onset	duration	trial_number	trial_type	frame_number	time_of_response
8.065718	0.049897	1.000000	nontarget	1.000000	na
8.115614	0.049997	1.000000	nontarget	2.000000	na
8.165612	0.049996	1.000000	nontarget	3.000000	na
8.215608	0.049998	1.000000	nontarget	4.000000	na
8.265606	0.049997	1.000000	nontarget	5.000000	na
8.315603	0.049996	1.000000	nontarget	6.000000	na
8.365598	0.049997	1.000000	nontarget	7.000000	na
8.415596	0.049997	1.000000	nontarget	8.000000	na
8.465592	0.049997	1.000000	nontarget	9.000000	na
8.515589	0.049998	1.000000	nontarget	10.000000	na
8.565587	0.049994	1.000000	nontarget	11.000000	na
8.615582	0.049998	1.000000	nontarget	12.000000	na
8.665579	0.049997	1.000000	nontarget	13.000000	na
8.715577	0.049997	1.000000	nontarget	14.000000	na
8.765574	0.049997	1.000000	nontarget	15.000000	8.768457
8.815571	0.049997	1.000000	nontarget	16.000000	na
8.865568	0.049996	2.000000	target	1.000000	8.866471
8.915564	0.050000	2.000000	target	2.000000	na
8.965564	0.049999	2.000000	target	3.000000	na
9.015563	0.049993	2.000000	target	4.000000	na
9.065556	0.049995	2.000000	target	5.000000	na
9.115552	0.049998	2.000000	target	6.000000	na
9.165550	0.049995	2.000000	target	7.000000	na
9.215545	0.049998	2.000000	target	8.000000	na
9.265543	0.049997	2.000000	target	9.000000	na
9.315540	0.049998	2.000000	target	10.000000	na
9.365538	0.049997	2.000000	target	11.000000	na
9.415535	0.049995	2.000000	target	12.000000	na
9.465530	0.049997	2.000000	target	13.000000	na
9.515527	0.049998	2.000000	target	14.000000	na
9.565526	0.049995	2.000000	target	15.000000	na
9.615521	0.049998	2.000000	target	16.000000	na
9.665519	0.049996	3.000000	nontarget	1.000000	na
9.715516	0.049997	3.000000	nontarget	2.000000	na
9.765513	0.049998	3.000000	nontarget	3.000000	na
9.815511	0.049995	3.000000	nontarget	4.000000	na
9.865506	0.049998	3.000000	nontarget	5.000000	na
9.915504	0.049996	3.000000	nontarget	6.000000	na
9.965499	0.050002	3.000000	nontarget	7.000000	na
10.015501	0.049994	3.000000	nontarget	8.000000	na
10.065495	0.049995	3.000000	nontarget	9.000000	na
10.115490	0.049999	3.000000	nontarget	10.000000	10.136206
10.165489	0.049996	3.000000	nontarget	11.000000	na
10.215485	0.049997	3.000000	nontarget	12.000000	na
10.265482	0.049997	3.000000	nontarget	13.000000	na
10.315479	0.049998	3.000000	nontarget	14.000000	na
10.365477	0.049997	3.000000	nontarget	15.000000	na
10.415473	0.049997	3.000000	nontarget	16.000000	na
10.465470	0.049998	4.000000	target	1.000000	na
10.515467	0.049996	4.000000	target	2.000000	na
10.565464	0.049997	4.000000	target	3.000000	na
10.615461	0.049997	4.000000	target	4.000000	na
10.665457	0.049996	4.000000	target	5.000000	na
10.715454	0.049999	4.000000	target	6.000000	na
10.765452	0.049998	4.000000	target	7.000000	na
10.815450	0.049995	4.000000	target	8.000000	na
10.865445	0.049997	4.000000	target	9.000000	na
10.915442	0.049998	4.000000	target	10.000000	na
10.965440	0.050001	4.000000	target	11.000000	na
11.015440	0.049994	4.000000	target	12.000000	na
11.065435	0.049995	4.000000	target	13.000000	na
11.115430	0.049998	4.000000	target	14.000000	na
11.165428	0.049997	4.000000	target	15.000000	na
11.215425	0.049997	4.000000	target	16.000000	na
11.265421	0.049998	5.000000	nontarget	1.000000	na
11.315419	0.049997	5.000000	nontarget	2.000000	na
11.365416	0.049997	5.000000	nontarget	3.000000	na
11.415413	0.049997	5.000000	nontarget	4.000000	11.416158
11.465409	0.049998	5.000000	nontarget	5.000000	na
11.515407	0.049996	5.000000	nontarget	6.000000	na
11.565403	0.049996	5.000000	nontarget	7.000000	na
11.615399	0.049998	5.000000	nontarget	8.000000	na
11.665397	0.049997	5.000000	nontarget	9.000000	na
11.715394	0.049996	5.000000	nontarget	10.000000	na
11.765390	0.049998	5.000000	nontarget	11.000000	na
11.815388	0.049998	5.000000	nontarget	12.000000	na
11.865386	0.049996	5.000000	nontarget	13.000000	na
11.915382	0.049996	5.000000	nontarget	14.000000	na
11.965378	0.050002	5.000000	nontarget	15.000000	11.996114
12.015380	0.049998	5.000000	nontarget	16.000000	na
12.065377	0.049991	6.000000	nontarget	1.000000	12.066161
12.115369	0.049999	6.000000	nontarget	2.000000	na
12.165367	0.049996	6.000000	nontarget	3.000000	na
12.215363	0.049997	6.000000	nontarget	4.000000	na
12.265361	0.049996	6.000000	nontarget	5.000000	na
12.315357	0.049998	6.000000	nontarget	6.000000	na
12.365354	0.049998	6.000000	nontarget	7.000000	na
12.415352	0.049996	6.000000	nontarget	8.000000	na
12.465348	0.049997	6.000000	nontarget	9.000000	na
12.515345	0.049997	6.000000	nontarget	10.000000	na
12.565342	0.049997	6.000000	nontarget	11.000000	12.588422
12.615339	0.049998	6.000000	nontarget	12.000000	na
12.665337	0.049995	6.000000	nontarget	13.000000	na
12.715332	0.050001	6.000000	nontarget	14.000000	na
12.765333	0.049988	6.000000	nontarget	15.000000	na
12.815322	0.050003	6.000000	nontarget	16.000000	na
12.865324	0.049996	7.000000	nontarget	1.000000	na
12.915320	0.049997	7.000000	nontarget	2.000000	na
12.965317	0.050004	7.000000	nontarget	3.000000	na
13.015321	0.050058	7.000000	nontarget	4.000000	na
13.065379	0.049932	7.000000	nontarget	5.000000	na
13.115311	0.050005	7.000000	nontarget	6.000000	na
13.165316	0.049998	7.000000	nontarget	7.000000	na
13.215314	0.049990	7.000000	nontarget	8.000000	13.216024
13.265303	0.050002	7.000000	nontarget	9.000000	na
13.315305	0.049990	7.000000	nontarget	10.000000	na
13.365295	0.050029	7.000000	nontarget	11.000000	na
13.415323	0.050017	7.000000	nontarget	12.000000	na
13.465340	0.049967	7.000000	nontarget	13.000000	na
13.515307	0.049986	7.000000	nontarget	14.000000	na
13.565293	0.049983	7.000000	nontarget	15.000000	na
13.615276	0.050023	7.000000	nontarget	16.000000	na
13.665299	0.049976	8.000000	nontarget	1.000000	na
13.715275	0.050004	8.000000	nontarget	2.000000	na
13.765279	0.049998	8.000000	nontarget	3.000000	13.789102
13.815277	0.049996	8.000000	nontarget	4.000000	na
13.865273	0.049999	8.000000	nontarget	5.000000	na
13.915272	0.049995	8.000000	nontarget	6.000000	na
13.965267	0.049998	8.000000	nontarget	7.000000	na
14.015264	0.049982	8.000000	nontarget	8.000000	na
14.065246	0.050003	8.000000	nontarget	9.000000	na
14.115249	0.050004	8.000000	nontarget	10.000000	na
14.165253	0.049990	8.000000	nontarget	11.000000	na
14.215243	0.050000	8.000000	nontarget	12.000000	na
14.265243	0.049986	8.000000	nontarget	13.000000	na
14.315230	0.049997	8.000000	nontarget	14.000000	na
14.365227	0.049996	8.000000	nontarget	15.000000	14.396148
14.415223	0.050003	8.000000	nontarget	16.000000	na
14.465226	0.049998	9.000000	nontarget	1.000000	14.465940
14.515223	0.049996	9.000000	nontarget	2.000000	na
14.565219	0.049997	9.000000	nontarget	3.000000	na
14.615216	0.049998	9.000000	nontarget	4.000000	na
14.665214	0.049998	9.000000	nontarget	5.000000	na
14.715211	0.049997	9.000000	nontarget	6.000000	na
14.765208	0.049995	9.000000	nontarget	7.000000	na
14.815204	0.049999	9.000000	nontarget	8.000000	na
14.865202	0.049996	9.000000	nontarget	9.000000	na
14.915198	0.049997	9.000000	nontarget	10.000000	na
14.965195	0.050002	9.000000	nontarget	11.000000	na
15.015197	0.050001	9.000000	nontarget	12.000000	na
15.065198	0.049990	9.000000	nontarget	13.000000	15.065980
15.115188	0.049996	9.000000	nontarget	14.000000	na
15.165184	0.049998	9.000000	nontarget	15.000000	na
15.215182	0.049995	9.000000	nontarget	16.000000	na
15.265177	0.049997	10.000000	nontarget	1.000000	na
15.315175	0.049999	10.000000	nontarget	2.000000	na
15.365173	0.049994	10.000000	nontarget	3.000000	na
15.415168	0.049998	10.000000	nontarget	4.000000	na
15.465166	0.049996	10.000000	nontarget	5.000000	na
15.515162	0.049998	10.000000	nontarget	6.000000	na
15.565160	0.049995	10.000000	nontarget	7.000000	na
15.615155	0.050000	10.000000	nontarget	8.000000	na
15.665156	0.049994	10.000000	nontarget	9.000000	15.665874
15.715150	0.049997	10.000000	nontarget	10.000000	na
15.765147	0.049996	10.000000	nontarget	11.000000	na
15.815143	0.049998	10.000000	nontarget	12.000000	na
15.865140	0.049997	10.000000	nontarget	13.000000	na
15.915137	0.049997	10.000000	nontarget	14.000000	na
15.965134	0.050001	10.000000	nontarget	15.000000	na
16.015135	0.049999	10.000000	nontarget	16.000000	na
16.065134	0.049992	11.000000	nontarget	1.000000	na
16.115126	0.049997	11.000000	nontarget	2.000000	na
16.165123	0.049997	11.000000	nontarget	3.000000	na
16.215119	0.049997	11.000000	nontarget	4.000000	na
16.265116	0.049997	11.000000	nontarget	5.000000	na
16.315114	0.049999	11.000000	nontarget	6.000000	na
16.365113	0.049993	11.000000	nontarget	7.000000	16.384172
16.415106	0.049999	11.000000	nontarget	8.000000	na
16.465105	0.049996	11.000000	nontarget	9.000000	na
16.515101	0.049998	11.000000	nontarget	10.000000	na
16.565098	0.049996	11.000000	nontarget	11.000000	na
16.615094	0.049998	11.000000	nontarget	12.000000	na
16.665092	0.049996	11.000000	nontarget	13.000000	na
16.715088	0.049997	11.000000	nontarget	14.000000	na
16.765085	0.049998	11.000000	nontarget	15.000000	na
16.815083	0.049998	11.000000	nontarget	16.000000	na
16.865081	0.049996	12.000000	nontarget	1.000000	na
16.915077	0.049998	12.000000	nontarget	2.000000	na
16.965074	0.050002	12.000000	nontarget	3.000000	na
17.015077	0.049993	12.000000	nontarget	4.000000	na
17.065069	0.049994	12.000000	nontarget	5.000000	17.065858
17.115064	0.049998	12.000000	nontarget	6.000000	na
17.165062	0.049999	12.000000	nontarget	7.000000	na
17.215061	0.049994	12.000000	nontarget	8.000000	na
17.265056	0.049997	12.000000	nontarget	9.000000	na
17.315053	0.049999	12.000000	nontarget	10.000000	na
17.365052	0.049994	12.000000	nontarget	11.000000	na
17.415046	0.049998	12.000000	nontarget	12.000000	na
17.465044	0.049997	12.000000	nontarget	13.000000	na
17.515041	0.049996	12.000000	nontarget	14.000000	na
17.565037	0.049997	12.000000	nontarget	15.000000	na
17.615034	0.049996	12.000000	nontarget	16.000000	na
17.665030	0.050000	13.000000	nontarget	1.000000	17.698316
17.715029	0.049996	13.000000	nontarget	2.000000	na
17.765025	0.049997	13.000000	nontarget	3.000000	na
17.815022	0.049998	13.000000	nontarget	4.000000	na
17.865020	0.049996	13.000000	nontarget	5.000000	na
17.915017	0.049996	13.000000	nontarget	6.000000	na
17.965012	0.050001	13.000000	nontarget	7.000000	na
18.015013	0.049996	13.000000	nontarget	8.000000	na
18.065009	0.049995	13.000000	nontarget	9.000000	na
18.115004	0.049995	13.000000	nontarget	10.000000	na
18.164999	0.049998	13.000000	nontarget	11.000000	na
18.214998	0.049998	13.000000	nontarget	12.000000	na
18.264996	0.049984	13.000000	nontarget	13.000000	na
18.314979	0.050009	13.000000	nontarget	14.000000	18.330116
18.364989	0.049997	13.000000	nontarget	15.000000	na
18.414986	0.049997	13.000000	nontarget	16.000000	na
18.464982	0.049999	14.000000	nontarget	1.000000	18.465681
18.514981	0.049995	14.000000	nontarget	2.000000	na
18.564976	0.049996	14.000000	nontarget	3.000000	na
18.614973	0.049997	14.000000	nontarget	4.000000	na
18.664970	0.049998	14.000000	nontarget	5.000000	na
18.714968	0.049996	14.000000	nontarget	6.000000	na
18.764964	0.049996	14.000000	nontarget	7.000000	na
18.814960	0.049997	14.000000	nontarget	8.000000	na
18.864957	0.049998	14.000000	nontarget	9.000000	na
18.914955	0.049998	14.000000	nontarget	10.000000	na
18.964952	0.050001	14.000000	nontarget	11.000000	na
19.014953	0.049995	14.000000	nontarget	12.000000	na
19.064948	0.049996	14.000000	nontarget	13.000000	19.065678
19.114944	0.049996	14.000000	nontarget	14.000000	na
19.164940	0.049996	14.000000	nontarget	15.000000	na
19.214936	0.049996	14.000000	nontarget	16.000000	na
19.264932	0.049998	15.000000	nontarget	1.000000	na
19.314930	0.049997	15.000000	nontarget	2.000000	na
19.364927	0.049998	15.000000	nontarget	3.000000	na
19.414925	0.049996	15.000000	nontarget	4.000000	na
19.464920	0.049998	15.000000	nontarget	5.000000	na
19.514918	0.049998	15.000000	nontarget	6.000000	na
19.564915	0.049996	15.000000	nontarget	7.000000	na
19.614912	0.049997	15.000000	nontarget	8.000000	na
19.664909	0.049996	15.000000	nontarget	9.000000	na
19.714905	0.049999	15.000000	nontarget	10.000000	na
19.764904	0.049997	15.000000	nontarget	11.000000	na
19.814901	0.049996	15.000000	nontarget	12.000000	na
19.864897	0.049996	15.000000	nontarget	13.000000	19.878017
19.914893	0.049998	15.000000	nontarget	14.000000	na
19.964891	0.050001	15.000000	nontarget	15.000000	na
20.014892	0.049994	15.000000	nontarget	16.000000	na
20.064887	0.049995	16.000000	nontarget	1.000000	na
20.114881	0.049998	16.000000	nontarget	2.000000	na
20.164880	0.049996	16.000000	nontarget	3.000000	na
20.214876	0.049997	16.000000	nontarget	4.000000	na
20.264872	0.049998	16.000000	nontarget	5.000000	na
20.314871	0.049995	16.000000	nontarget	6.000000	na
20.364866	0.049998	16.000000	nontarget	7.000000	na
20.414863	0.049998	16.000000	nontarget	8.000000	na
20.464861	0.049996	16.000000	nontarget	9.000000	na
20.514857	0.049998	16.000000	nontarget	10.000000	na
20.564855	0.049996	16.000000	nontarget	11.000000	na
20.614850	0.049998	16.000000	nontarget	12.000000	na
20.664848	0.049996	16.000000	nontarget	13.000000	20.694036
20.714844	0.049997	16.000000	nontarget	14.000000	na
20.764842	0.049998	16.000000	nontarget	15.000000	na
20.814840	0.049998	16.000000	nontarget	16.000000	na
20.864838	0.049995	17.000000	nontarget	1.000000	na
20.914833	0.049997	17.000000	nontarget	2.000000	na
20.964830	0.050000	17.000000	nontarget	3.000000	na
21.014830	0.049996	17.000000	nontarget	4.000000	na
21.064826	0.049994	17.000000	nontarget	5.000000	na
21.114820	0.049998	17.000000	nontarget	6.000000	na
21.164818	0.049996	17.000000	nontarget	7.000000	na
21.214814	0.049997	17.000000	nontarget	8.000000	na
21.264811	0.049998	17.000000	nontarget	9.000000	na
21.314809	0.049996	17.000000	nontarget	10.000000	na
21.364805	0.049996	17.000000	nontarget	11.000000	na
21.414801	0.049998	17.000000	nontarget	12.000000	na
21.464799	0.049997	17.000000	nontarget	13.000000	na
21.514796	0.049997	17.000000	nontarget	14.000000	na
21.564793	0.049997	17.000000	nontarget	15.000000	na
21.614790	0.049998	17.000000	nontarget	16.000000	na
21.664788	0.049997	18.000000	target	1.000000	na
21.714784	0.049997	18.000000	target	2.000000	na
21.764781	0.049997	18.000000	target	3.000000	na
21.814778	0.049997	18.000000	target	4.000000	na
21.864775	0.049996	18.000000	target	5.000000	na
21.914771	0.049998	18.000000	target	6.000000	na
21.964769	0.050000	18.000000	target	7.000000	na
22.014769	0.049995	18.000000	target	8.000000	na
22.064764	0.049995	18.000000	target	9.000000	na
22.114759	0.049998	18.000000	target	10.000000	na
22.164757	0.049996	18.000000	target	11.000000	na
22.214753	0.049998	18.000000	target	12.000000	na
22.264750	0.049997	18.000000	target	13.000000	22.270075
22.314747	0.049998	18.000000	target	14.000000	na
22.364745	0.049995	18.000000	target	15.000000	na
22.414741	0.049997	18.000000	target	16.000000	na
22.464738	0.049997	19.000000	nontarget	1.000000	na
22.514734	0.050001	19.000000	nontarget	2.000000	na
22.564736	0.049993	19.000000	nontarget	3.000000	na
22.614729	0.050007	19.000000	nontarget	4.000000	na
22.664735	0.049988	19.000000	nontarget	5.000000	na
22.714723	0.050000	19.000000	nontarget	6.000000	na
22.764723	0.050003	19.000000	nontarget	7.000000	na
22.814726	0.049989	19.000000	nontarget	8.000000	na
22.864714	0.050012	19.000000	nontarget	9.000000	na
22.914726	0.050013	19.000000	nontarget	10.000000	na
22.964739	0.049975	19.000000	nontarget	11.000000	22.993931
23.014715	0.050003	19.000000	nontarget	12.000000	na
23.064717	0.049979	19.000000	nontarget	13.000000	na
23.114696	0.050024	19.000000	nontarget	14.000000	na
23.164720	0.049978	19.000000	nontarget	15.000000	na
23.214698	0.050000	19.000000	nontarget	16.000000	na
23.264697	0.050001	20.000000	nontarget	1.000000	na
23.314699	0.049985	20.000000	nontarget	2.000000	na
23.364684	0.050008	20.000000	nontarget	3.000000	na
23.414693	0.049996	20.000000	nontarget	4.000000	na
23.464689	0.049993	20.000000	nontarget	5.000000	na
23.514682	0.049989	20.000000	nontarget	6.000000	na
23.564671	0.049997	20.000000	nontarget	7.000000	na
23.614668	0.049997	20.000000	nontarget	8.000000	na
23.664665	0.050007	20.000000	nontarget	9.000000	na
23.714671	0.049993	20.000000	nontarget	10.000000	na
23.764665	0.049985	20.000000	nontarget	11.000000	23.765443
23.814650	0.049998	20.000000	nontarget	12.000000	na
23.864648	0.049999	20.000000	nontarget	13.000000	na
23.914647	0.049994	20.000000	nontarget	14.000000	na
23.964641	0.050019	20.000000	nontarget	15.000000	na
24.014660	0.049987	20.000000	nontarget	16.000000	na
24.064647	0.049991	21.000000	nontarget	1.000000	na
24.114638	0.049999	21.000000	nontarget	2.000000	na
24.164637	0.049995	21.000000	nontarget	3.000000	na
24.214632	0.049997	21.000000	nontarget	4.000000	na
24.264629	0.049997	21.000000	nontarget	5.000000	na
24.314626	0.049997	21.000000	nontarget	6.000000	na
24.364623	0.049997	21.000000	nontarget	7.000000	na
24.414620	0.049998	21.000000	nontarget	8.000000	na
24.464617	0.049996	21.000000	nontarget	9.000000	na
24.514613	0.049998	21.000000	nontarget	10.000000	na
24.564611	0.049996	21.000000	nontarget	11.000000	na
24.614607	0.049997	21.000000	nontarget	12.000000	na
24.664605	0.049996	21.000000	nontarget	13.000000	na
24.714601	0.049998	21.000000	nontarget	14.000000	na
24.764599	0.049995	21.000000	nontarget	15.000000	na
24.814594	0.050000	21.000000	nontarget	16.000000	24.832056
24.864594	0.049996	22.000000	nontarget	1.000000	24.865324
24.914590	0.049997	22.000000	nontarget	2.000000	na
24.964586	0.050000	22.000000	nontarget	3.000000	na
25.014586	0.050001	22.000000	nontarget	4.000000	na
25.064587	0.049992	22.000000	nontarget	5.000000	na
25.114579	0.049997	22.000000	nontarget	6.000000	na
25.164575	0.049996	22.000000	nontarget	7.000000	na
25.214571	0.049997	22.000000	nontarget	8.000000	na
25.264568	0.049996	22.000000	nontarget	9.000000	na
25.314564	0.050000	22.000000	nontarget	10.000000	na
25.364564	0.049995	22.000000	nontarget	11.000000	na
25.414559	0.049997	22.000000	nontarget	12.000000	na
25.464556	0.049998	22.000000	nontarget	13.000000	na
25.514554	0.049995	22.000000	nontarget	14.000000	na
25.564549	0.049997	22.000000	nontarget	15.000000	na
25.614547	0.049997	22.000000	nontarget	16.000000	na
25.664543	0.049997	23.000000	target	1.000000	na
25.714540	0.049998	23.000000	target	2.000000	na
25.764538	0.049997	23.000000	target	3.000000	na
25.814535	0.049997	23.000000	target	4.000000	na
25.864532	0.049997	23.000000	target	5.000000	na
25.914529	0.049996	23.000000	target	6.000000	na
25.964525	0.050002	23.000000	target	7.000000	na
26.014527	0.049993	23.000000	target	8.000000	na
26.064520	0.049996	23.000000	target	9.000000	na
26.114516	0.049998	23.000000	target	10.000000	na
26.164514	0.049997	23.000000	target	11.000000	na
26.214511	0.049997	23.000000	target	12.000000	na
26.264508	0.049996	23.000000	target	13.000000	26.287998
26.314503	0.049997	23.000000	target	14.000000	na
26.364500	0.049997	23.000000	target	15.000000	na
26.414497	0.049999	23.000000	target	16.000000	na
26.464496	0.049997	24.000000	nontarget	1.000000	na
26.514493	0.049994	24.000000	nontarget	2.000000	na
26.564487	0.049998	24.000000	nontarget	3.000000	na
26.614485	0.049998	24.000000	nontarget	4.000000	na
26.664483	0.049995	24.000000	nontarget	5.000000	na
26.714479	0.049996	24.000000	nontarget	6.000000	na
26.764475	0.050000	24.000000	nontarget	7.000000	na
26.814475	0.049996	24.000000	nontarget	8.000000	na
26.864470	0.049996	24.000000	nontarget	9.000000	na
26.914466	0.049998	24.000000	nontarget	10.000000	na
26.964464	0.050001	24.000000	nontarget	11.000000	na
27.014465	0.049995	24.000000	nontarget	12.000000	na
27.064460	0.049997	24.000000	nontarget	13.000000	na
27.114457	0.049996	24.000000	nontarget	14.000000	27.135042
27.164453	0.049995	24.000000	nontarget	15.000000	na
27.214449	0.049998	24.000000	nontarget	16.000000	na
27.264447	0.049992	25.000000	nontarget	1.000000	27.265150
27.314438	0.050002	25.000000	nontarget	2.000000	na
27.364440	0.049996	25.000000	nontarget	3.000000	na
27.414436	0.049998	25.000000	nontarget	4.000000	na
27.464434	0.049997	25.000000	nontarget	5.000000	na
27.514430	0.049997	25.000000	nontarget	6.000000	na
27.564427	0.049997	25.000000	nontarget	7.000000	na
27.614424	0.049997	25.000000	nontarget	8.000000	na
27.664421	0.049997	25.000000	nontarget	9.000000	na
27.714418	0.049998	25.000000	nontarget	10.000000	na
27.764416	0.049997	25.000000	nontarget	11.000000	na
27.814413	0.049995	25.000000	nontarget	12.000000	na
27.864408	0.049999	25.000000	nontarget	13.000000	na
27.914407	0.049995	25.000000	nontarget	14.000000	na
27.964402	0.050001	25.000000	nontarget	15.000000	27.988114
28.014403	0.049994	25.000000	nontarget	16.000000	na
28.064398	0.049996	26.000000	nontarget	1.000000	28.065169
28.114394	0.049997	26.000000	nontarget	2.000000	na
28.164391	0.049997	26.000000	nontarget	3.000000	na
28.214388	0.049998	26.000000	nontarget	4.000000	na
28.264386	0.049995	26.000000	nontarget	5.000000	na
28.314382	0.049998	26.000000	nontarget	6.000000	na
28.364379	0.049997	26.000000	nontarget	7.000000	na
28.414376	0.049998	26.000000	nontarget	8.000000	na
28.464373	0.049999	26.000000	nontarget	9.000000	na
28.514372	0.049994	26.000000	nontarget	10.000000	na
28.564366	0.049997	26.000000	nontarget	11.000000	na
28.614363	0.049998	26.000000	nontarget	12.000000	na
28.664360	0.049997	26.000000	nontarget	13.000000	na
28.714357	0.049997	26.000000	nontarget	14.000000	na
28.764355	0.049997	26.000000	nontarget	15.000000	na
28.814352	0.049996	26.000000	nontarget	16.000000	na
28.864348	0.050002	27.000000	target	1.000000	na
28.914350	0.049992	27.000000	target	2.000000	na
28.964343	0.049985	27.000000	target	3.000000	na
29.014328	0.050014	27.000000	target	4.000000	na
29.064342	0.049992	27.000000	target	5.000000	na
29.114334	0.049997	27.000000	target	6.000000	na
29.164331	0.049995	27.000000	target	7.000000	na
29.214326	0.049998	27.000000	target	8.000000	na
29.264325	0.049996	27.000000	target	9.000000	na
29.314321	0.049998	27.000000	target	10.000000	na
29.364318	0.049997	27.000000	target	11.000000	na
29.414315	0.049997	27.000000	target	12.000000	na
29.464312	0.049999	27.000000	target	13.000000	29.497042
29.514311	0.049995	27.000000	target	14.000000	na
29.564306	0.049997	27.000000	target	15.000000	na
29.614303	0.050000	27.000000	target	16.000000	na
29.664303	0.049994	28.000000	nontarget	1.000000	na
29.714296	0.049998	28.000000	nontarget	2.000000	na
29.764294	0.049998	28.000000	nontarget	3.000000	na
29.814291	0.049997	28.000000	nontarget	4.000000	na
29.864288	0.049995	28.000000	nontarget	5.000000	na
29.914283	0.049998	28.000000	nontarget	6.000000	na
29.964281	0.050001	28.000000	nontarget	7.000000	na
30.014282	0.049999	28.000000	nontarget	8.000000	na
30.064281	0.049992	28.000000	nontarget	9.000000	na
30.114273	0.049997	28.000000	nontarget	10.000000	na
30.164269	0.049996	28.000000	nontarget	11.000000	na
30.214266	0.049998	28.000000	nontarget	12.000000	na
30.264264	0.049996	28.000000	nontarget	13.000000	30.288133
30.314259	0.049998	28.000000	nontarget	14.000000	na
30.364257	0.049996	28.000000	nontarget	15.000000	na
30.414254	0.049998	28.000000	nontarget	16.000000	na
30.464252	0.049995	29.000000	nontarget	1.000000	na
30.514248	0.049998	29.000000	nontarget	2.000000	na
30.564246	0.049996	29.000000	nontarget	3.000000	na
30.614242	0.049997	29.000000	nontarget	4.000000	na
30.664238	0.049997	29.000000	nontarget	5.000000	na
30.714235	0.049998	29.000000	nontarget	6.000000	na
30.764233	0.049996	29.000000	nontarget	7.000000	na
30.814229	0.049998	29.000000	nontarget	8.000000	na
30.864227	0.049998	29.000000	nontarget	9.000000	na
30.914224	0.049997	29.000000	nontarget	10.000000	na
30.964221	0.049983	29.000000	nontarget	11.000000	na
31.014204	0.050011	29.000000	nontarget	12.000000	na
31.064216	0.049995	29.000000	nontarget	13.000000	na
31.114211	0.049996	29.000000	nontarget	14.000000	na
31.164207	0.049996	29.000000	nontarget	15.000000	na
31.214203	0.049999	29.000000	nontarget	16.000000	na
31.264202	0.049998	30.000000	nontarget	1.000000	na
31.314200	0.049996	30.000000	nontarget	2.000000	31.318897
31.364195	0.049997	30.000000	nontarget	3.000000	na
31.414192	0.050001	30.000000	nontarget	4.000000	na
31.464193	0.049994	30.000000	nontarget	5.000000	na
31.514187	0.049997	30.000000	nontarget	6.000000	na
31.564183	0.049997	30.000000	nontarget	7.000000	na
31.614180	0.049998	30.000000	nontarget	8.000000	na
31.664178	0.049996	30.000000	nontarget	9.000000	na
31.714174	0.049998	30.000000	nontarget	10.000000	na
31.764172	0.049996	30.000000	nontarget	11.000000	na
31.814168	0.049997	30.000000	nontarget	12.000000	na
31.864165	0.049998	30.000000	nontarget	13.000000	na
31.914163	0.049997	30.000000	nontarget	14.000000	na
31.964160	0.050001	30.000000	nontarget	15.000000	na
32.014161	0.049978	30.000000	nontarget	16.000000	na
32.064139	0.050017	31.000000	nontarget	1.000000	na
32.114156	0.050001	31.000000	nontarget	2.000000	32.114865
32.164157	0.049998	31.000000	nontarget	3.000000	na
32.214155	0.049997	31.000000	nontarget	4.000000	na
32.264152	0.049994	31.000000	nontarget	5.000000	na
32.314146	0.049989	31.000000	nontarget	6.000000	na
32.364135	0.050041	31.000000	nontarget	7.000000	na
32.414176	0.050002	31.000000	nontarget	8.000000	na
32.464178	0.049968	31.000000	nontarget	9.000000	na
32.514146	0.050001	31.000000	nontarget	10.000000	na
32.564147	0.049988	31.000000	nontarget	11.000000	na
32.614135	0.050002	31.000000	nontarget	12.000000	na
32.664137	0.049978	31.000000	nontarget	13.000000	na
32.714115	0.050003	31.000000	nontarget	14.000000	32.714809
32.764118	0.050000	31.000000	nontarget	15.000000	na
32.814118	0.049989	31.000000	nontarget	16.000000	na
32.864107	0.050009	32.000000	nontarget	1.000000	na
32.914116	0.049994	32.000000	nontarget	2.000000	na
32.964110	0.050002	32.000000	nontarget	3.000000	na
33.014112	0.049993	32.000000	nontarget	4.000000	na
33.064105	0.049984	32.000000	nontarget	5.000000	na
33.114089	0.050004	32.000000	nontarget	6.000000	na
33.164093	0.049990	32.000000	nontarget	7.000000	na
33.214083	0.050000	32.000000	nontarget	8.000000	na
33.264083	0.049988	32.000000	nontarget	9.000000	na
33.314071	0.050010	32.000000	nontarget	10.000000	na
33.364082	0.049983	32.000000	nontarget	11.000000	na
33.414065	0.049999	32.000000	nontarget	12.000000	na
33.464064	0.050027	32.000000	nontarget	13.000000	na
33.514091	0.049975	32.000000	nontarget	14.000000	na
33.564066	0.049994	32.000000	nontarget	15.000000	33.564786
33.614060	0.049998	32.000000	nontarget	16.000000	na
33.664057	0.049998	33.000000	nontarget	1.000000	33.664775
33.714056	0.049994	33.000000	nontarget	2.000000	na
33.764050	0.049997	33.000000	nontarget	3.000000	na
33.814046	0.049996	33.000000	nontarget	4.000000	na
33.864043	0.049999	33.000000	nontarget	5.000000	na
33.914041	0.049996	33.000000	nontarget	6.000000	na
33.964037	0.050000	33.000000	nontarget	7.000000	na
34.014037	0.049996	33.000000	nontarget	8.000000	na
34.064033	0.049996	33.000000	nontarget	9.000000	na
34.114029	0.049997	33.000000	nontarget	10.000000	na
34.164026	0.049996	33.000000	nontarget	11.000000	na
34.214021	0.049998	33.000000	nontarget	12.000000	na
34.264019	0.049997	33.000000	nontarget	13.000000	34.293906
34.314016	0.049995	33.000000	nontarget	14.000000	na
34.364012	0.049999	33.000000	nontarget	15.000000	na
34.414011	0.049997	33.000000	nontarget	16.000000	na
34.464007	0.049997	34.000000	nontarget	1.000000	na
34.514004	0.049997	34.000000	nontarget	2.000000	na
34.564001	0.049997	34.000000	nontarget	3.000000	na
34.613997	0.049998	34.000000	nontarget	4.000000	na
34.663995	0.049997	34.000000	nontarget	5.000000	na
34.713992	0.049995	34.000000	nontarget	6.000000	na
34.763988	0.049998	34.000000	nontarget	7.000000	na
34.813986	0.049997	34.000000	nontarget	8.000000	na
34.863983	0.049998	34.000000	nontarget	9.000000	na
34.913980	0.049995	34.000000	nontarget	10.000000	na
34.963976	0.050000	34.000000	nontarget	11.000000	na
35.013976	0.049998	34.000000	nontarget	12.000000	na
35.063973	0.049994	34.000000	nontarget	13.000000	35.064740
35.113968	0.049997	34.000000	nontarget	14.000000	na
35.163965	0.049998	34.000000	nontarget	15.000000	na
35.213962	0.049997	34.000000	nontarget	16.000000	na
35.263959	0.049996	35.000000	nontarget	1.000000	na
35.313955	0.049998	35.000000	nontarget	2.000000	na
35.363953	0.049995	35.000000	nontarget	3.000000	na
35.413949	0.049996	35.000000	nontarget	4.000000	na
35.463945	0.049998	35.000000	nontarget	5.000000	na
35.513943	0.049997	35.000000	nontarget	6.000000	na
35.563940	0.049997	35.000000	nontarget	7.000000	na
35.613937	0.049996	35.000000	nontarget	8.000000	na
35.663933	0.049998	35.000000	nontarget	9.000000	na
35.713931	0.049996	35.000000	nontarget	10.000000	na
35.763927	0.049997	35.000000	nontarget	11.000000	na
35.813924	0.049998	35.000000	nontarget	12.000000	35.817521
35.863922	0.049997	35.000000	nontarget	13.000000	na
35.913919	0.050000	35.000000	nontarget	14.000000	na
35.963918	0.049993	35.000000	nontarget	15.000000	na
36.013912	0.050004	35.000000	nontarget	16.000000	na
36.063915	0.049992	36.000000	nontarget	1.000000	na
36.113907	0.049996	36.000000	nontarget	2.000000	na
36.163903	0.049996	36.000000	nontarget	3.000000	na
36.213900	0.049998	36.000000	nontarget	4.000000	na
36.263897	0.049997	36.000000	nontarget	5.000000	na
36.313894	0.049998	36.000000	nontarget	6.000000	na
36.363892	0.049995	36.000000	nontarget	7.000000	na
36.413887	0.049996	36.000000	nontarget	8.000000	na
36.463884	0.049998	36.000000	nontarget	9.000000	na
36.513881	0.049998	36.000000	nontarget	10.000000	na
36.563879	0.049997	36.000000	nontarget	11.000000	na
36.613876	0.049996	36.000000	nontarget	12.000000	na
36.663872	0.049998	36.000000	nontarget	13.000000	na
36.713870	0.049997	36.000000	nontarget	14.000000	na
36.763867	0.049997	36.000000	nontarget	15.000000	36.792950
36.813864	0.049991	36.000000	nontarget	16.000000	na
36.863855	0.050002	37.000000	nontarget	1.000000	36.864712
36.913857	0.049997	37.000000	nontarget	2.000000	na
36.963855	0.050000	37.000000	nontarget	3.000000	na
37.013855	0.049996	37.000000	nontarget	4.000000	na
37.063851	0.049994	37.000000	nontarget	5.000000	na
37.113844	0.049999	37.000000	nontarget	6.000000	na
37.163843	0.049996	37.000000	nontarget	7.000000	na
37.213839	0.049996	37.000000	nontarget	8.000000	na
37.263835	0.049998	37.000000	nontarget	9.000000	na
37.313833	0.049997	37.000000	nontarget	10.000000	na
37.363830	0.049997	37.000000	nontarget	11.000000	na
37.413827	0.049997	37.000000	nontarget	12.000000	na
37.463824	0.049999	37.000000	nontarget	13.000000	na
37.513822	0.049994	37.000000	nontarget	14.000000	37.524909
37.563817	0.049998	37.000000	nontarget	15.000000	na
37.613814	0.049998	37.000000	nontarget	16.000000	na
37.663812	0.049996	38.000000	nontarget	1.000000	37.664527
37.713808	0.049997	38.000000	nontarget	2.000000	na
37.763805	0.049998	38.000000	nontarget	3.000000	na
37.813804	0.049997	38.000000	nontarget	4.000000	na
37.863800	0.049996	38.000000	nontarget	5.000000	na
37.913797	0.049998	38.000000	nontarget	6.000000	na
37.963795	0.049998	38.000000	nontarget	7.000000	na
38.013792	0.049997	38.000000	nontarget	8.000000	na
38.063789	0.049994	38.000000	nontarget	9.000000	na
38.113784	0.049995	38.000000	nontarget	10.000000	na
38.163779	0.050000	38.000000	nontarget	11.000000	na
38.213779	0.049992	38.000000	nontarget	12.000000	na
38.263771	0.050005	38.000000	nontarget	13.000000	na
38.313776	0.049994	38.000000	nontarget	14.000000	38.335754
38.363770	0.049996	38.000000	nontarget	15.000000	na
38.413766	0.049995	38.000000	nontarget	16.000000	na
38.463762	0.049999	39.000000	nontarget	1.000000	38.464456
38.513761	0.049997	39.000000	nontarget	2.000000	na
38.563757	0.049996	39.000000	nontarget	3.000000	na
38.613753	0.049998	39.000000	nontarget	4.000000	na
38.663751	0.049996	39.000000	nontarget	5.000000	na
38.713747	0.049999	39.000000	nontarget	6.000000	na
38.763746	0.049996	39.000000	nontarget	7.000000	na
38.813741	0.050001	39.000000	nontarget	8.000000	na
38.863742	0.049993	39.000000	nontarget	9.000000	na
38.913735	0.049999	39.000000	nontarget	10.000000	na
38.963733	0.050002	39.000000	nontarget	11.000000	na
39.013736	0.049993	39.000000	nontarget	12.000000	na
39.063729	0.049996	39.000000	nontarget	13.000000	na
39.113725	0.049988	39.000000	nontarget	14.000000	na
39.163713	0.050004	39.000000	nontarget	15.000000	39.164515
39.213717	0.050001	39.000000	nontarget	16.000000	na
39.263718	0.049994	40.000000	target	1.000000	39.264453
39.313712	0.049997	40.000000	target	2.000000	na
39.363709	0.049996	40.000000	target	3.000000	na
39.413705	0.049997	40.000000	target	4.000000	na
39.463702	0.049997	40.000000	target	5.000000	na
39.513699	0.049998	40.000000	target	6.000000	na
39.563697	0.049999	40.000000	target	7.000000	na
39.613696	0.049998	40.000000	target	8.000000	na
39.663694	0.049992	40.000000	target	9.000000	na
39.713686	0.050000	40.000000	target	10.000000	na
39.763687	0.049994	40.000000	target	11.000000	na
39.813681	0.049997	40.000000	target	12.000000	na
39.863678	0.050000	40.000000	target	13.000000	na
39.913678	0.049999	40.000000	target	14.000000	39.914388
39.963677	0.049995	40.000000	target	15.000000	na
40.013672	0.050000	40.000000	target	16.000000	na
40.063671	0.049991	41.000000	nontarget	1.000000	na
40.113663	0.049998	41.000000	nontarget	2.000000	na
40.163661	0.049996	41.000000	nontarget	3.000000	na
40.213657	0.049995	41.000000	nontarget	4.000000	na
40.263653	0.049998	41.000000	nontarget	5.000000	na
40.313651	0.049999	41.000000	nontarget	6.000000	na
40.363650	0.049994	41.000000	nontarget	7.000000	na
40.413644	0.050001	41.000000	nontarget	8.000000	na
40.463645	0.049994	41.000000	nontarget	9.000000	na
40.513638	0.049997	41.000000	nontarget	10.000000	na
40.563635	0.049998	41.000000	nontarget	11.000000	na
40.613632	0.049996	41.000000	nontarget	12.000000	na
40.663628	0.049999	41.000000	nontarget	13.000000	na
40.713627	0.049996	41.000000	nontarget	14.000000	na
40.763623	0.049998	41.000000	nontarget	15.000000	na
40.813620	0.049996	41.000000	nontarget	16.000000	40.846823
40.863616	0.049997	42.000000	nontarget	1.000000	40.864318
40.913613	0.049998	42.000000	nontarget	2.000000	na
40.963611	0.049999	42.000000	nontarget	3.000000	na
41.013610	0.050001	42.000000	nontarget	4.000000	na
41.063611	0.049991	42.000000	nontarget	5.000000	na
41.113602	0.049998	42.000000	nontarget	6.000000	na
41.163599	0.050000	42.000000	nontarget	7.000000	na
41.213599	0.049992	42.000000	nontarget	8.000000	na
41.263592	0.049998	42.000000	nontarget	9.000000	na
41.313589	0.049997	42.000000	nontarget	10.000000	na
41.363586	0.049997	42.000000	nontarget	11.000000	na
41.413583	0.049999	42.000000	nontarget	12.000000	na
41.463581	0.049996	42.000000	nontarget	13.000000	na
41.513577	0.049998	42.000000	nontarget	14.000000	na
41.563575	0.049998	42.000000	nontarget	15.000000	41.584824
41.613572	0.049997	42.000000	nontarget	16.000000	na
41.663569	0.049994	43.000000	nontarget	1.000000	41.664265
41.713563	0.049998	43.000000	nontarget	2.000000	na
41.763560	0.050005	43.000000	nontarget	3.000000	na
41.813565	0.049988	43.000000	nontarget	4.000000	na
41.863553	0.050000	43.000000	nontarget	5.000000	na
41.913553	0.050031	43.000000	nontarget	6.000000	na
41.963584	0.049981	43.000000	nontarget	7.000000	na
42.013565	0.049978	43.000000	nontarget	8.000000	na
42.063543	0.049992	43.000000	nontarget	9.000000	na
42.113535	0.050021	43.000000	nontarget	10.000000	na
42.163556	0.049978	43.000000	nontarget	11.000000	na
42.213534	0.049992	43.000000	nontarget	12.000000	na
42.263526	0.050002	43.000000	nontarget	13.000000	na
42.313528	0.049998	43.000000	nontarget	14.000000	na
42.363526	0.050008	43.000000	nontarget	15.000000	42.392932
42.413533	0.049997	43.000000	nontarget	16.000000	na
42.463530	0.049997	44.000000	nontarget	1.000000	42.464241
42.513528	0.049987	44.000000	nontarget	2.000000	na
42.563514	0.049995	44.000000	nontarget	3.000000	na
42.613509	0.049999	44.000000	nontarget	4.000000	na
42.663508	0.049996	44.000000	nontarget	5.000000	na
42.713504	0.049998	44.000000	nontarget	6.000000	na
42.763502	0.049996	44.000000	nontarget	7.000000	na
42.813498	0.049992	44.000000	nontarget	8.000000	na
42.863490	0.049995	44.000000	nontarget	9.000000	na
42.913485	0.049998	44.000000	nontarget	10.000000	na
42.963483	0.049988	44.000000	nontarget	11.000000	na
43.013471	0.050013	44.000000	nontarget	12.000000	na
43.063484	0.049995	44.000000	nontarget	13.000000	na
43.113480	0.049997	44.000000	nontarget	14.000000	na
43.163476	0.049996	44.000000	nontarget	15.000000	na
43.213472	0.049998	44.000000	nontarget	16.000000	na
43.263471	0.049996	45.000000	nontarget	1.000000	na
43.313466	0.050001	45.000000	nontarget	2.000000	na
43.363467	0.049994	45.000000	nontarget	3.000000	na
43.413461	0.049997	45.000000	nontarget	4.000000	43.439702
43.463458	0.049996	45.000000	nontarget	5.000000	na
43.513454	0.049997	45.000000	nontarget	6.000000	na
43.563452	0.049997	45.000000	nontarget	7.000000	na
43.613449	0.049998	45.000000	nontarget	8.000000	na
43.663446	0.049996	45.000000	nontarget	9.000000	na
43.713442	0.049997	45.000000	nontarget	10.000000	na
43.763440	0.049996	45.000000	nontarget	11.000000	na
43.813436	0.049998	45.000000	nontarget	12.000000	na
43.863433	0.049996	45.000000	nontarget	13.000000	na
43.913429	0.049998	45.000000	nontarget	14.000000	na
43.963426	0.050004	45.000000	nontarget	15.000000	na
44.013430	0.049993	45.000000	nontarget	16.000000	na
44.063423	0.049996	46.000000	nontarget	1.000000	44.096780
44.113419	0.049996	46.000000	nontarget	2.000000	na
44.163416	0.049997	46.000000	nontarget	3.000000	na
44.213413	0.049997	46.000000	nontarget	4.000000	na
44.263410	0.049998	46.000000	nontarget	5.000000	na
44.313407	0.049995	46.000000	nontarget	6.000000	na
44.363403	0.049997	46.000000	nontarget	7.000000	na
44.413399	0.049998	46.000000	nontarget	8.000000	na
44.463398	0.049996	46.000000	nontarget	9.000000	na
44.513393	0.049997	46.000000	nontarget	10.000000	na
44.563390	0.049999	46.000000	nontarget	11.000000	na
44.613389	0.049996	46.000000	nontarget	12.000000	na
44.663385	0.049998	46.000000	nontarget	13.000000	na
44.713382	0.049996	46.000000	nontarget	14.000000	44.743813
44.763379	0.049998	46.000000	nontarget	15.000000	na
44.813377	0.049996	46.000000	nontarget	16.000000	na
44.863373	0.049997	47.000000	nontarget	1.000000	44.864089
44.913370	0.049996	47.000000	nontarget	2.000000	na
44.963366	0.050000	47.000000	nontarget	3.000000	na
45.013366	0.049998	47.000000	nontarget	4.000000	na
45.063364	0.049994	47.000000	nontarget	5.000000	na
45.113358	0.049997	47.000000	nontarget	6.000000	na
45.163355	0.049997	47.000000	nontarget	7.000000	na
45.213351	0.049997	47.000000	nontarget	8.000000	na
45.263349	0.049997	47.000000	nontarget	9.000000	na
45.313346	0.049998	47.000000	nontarget	10.000000	na
45.363343	0.049996	47.000000	nontarget	11.000000	na
45.413339	0.049997	47.000000	nontarget	12.000000	na
45.463336	0.049997	47.000000	nontarget	13.000000	na
45.513333	0.049997	47.000000	nontarget	14.000000	45.542756
45.563330	0.049996	47.000000	nontarget	15.000000	na
45.613325	0.049998	47.000000	nontarget	16.000000	na
45.663323	0.049996	48.000000	nontarget	1.000000	45.664040
45.713320	0.049998	48.000000	nontarget	2.000000	na
45.763317	0.049997	48.000000	nontarget	3.000000	na
45.813314	0.049998	48.000000	nontarget	4.000000	na
45.863312	0.049996	48.000000	nontarget	5.000000	na
45.913308	0.049997	48.000000	nontarget	6.000000	na
45.963305	0.049999	48.000000	nontarget	7.000000	na
46.013304	0.049999	48.000000	nontarget	8.000000	na
46.063303	0.049994	48.000000	nontarget	9.000000	na
46.113297	0.049997	48.000000	nontarget	10.000000	na
46.163294	0.049997	48.000000	nontarget	11.000000	na
46.213291	0.049996	48.000000	nontarget	12.000000	na
46.263287	0.049998	48.000000	nontarget	13.000000	na
46.313285	0.049997	48.000000	nontarget	14.000000	na
46.363282	0.049996	48.000000	nontarget	15.000000	46.378833
46.413278	0.049996	48.000000	nontarget	16.000000	na
46.463274	0.049999	49.000000	nontarget	1.000000	46.463970
46.513273	0.049991	49.000000	nontarget	2.000000	na
46.563265	0.050001	49.000000	nontarget	3.000000	na
46.613266	0.049997	49.000000	nontarget	4.000000	na
46.663263	0.049997	49.000000	nontarget	5.000000	na
46.713260	0.049997	49.000000	nontarget	6.000000	na
46.763257	0.049997	49.000000	nontarget	7.000000	na
46.813255	0.049995	49.000000	nontarget	8.000000	na
46.863250	0.049998	49.000000	nontarget	9.000000	na
46.913248	0.049997	49.000000	nontarget	10.000000	na
46.963245	0.049993	49.000000	nontarget	11.000000	na
47.013238	0.050005	49.000000	nontarget	12.000000	na
47.063242	0.049993	49.000000	nontarget	13.000000	na
47.113236	0.049999	49.000000	nontarget	14.000000	na
47.163235	0.049994	49.000000	nontarget	15.000000	47.163995
47.213229	0.049998	49.000000	nontarget	16.000000	na
47.263227	0.049997	50.000000	nontarget	1.000000	47.263955
47.313224	0.049998	50.000000	nontarget	2.000000	na
47.363221	0.049996	50.000000	nontarget	3.000000	na
47.413217	0.049998	50.000000	nontarget	4.000000	na
47.463215	0.049996	50.000000	nontarget	5.000000	na
47.513211	0.049998	50.000000	nontarget	6.000000	na
47.563209	0.049995	50.000000	nontarget	7.000000	na
47.613204	0.049998	50.000000	nontarget	8.000000	na
47.663202	0.049996	50.000000	nontarget	9.000000	na
47.713198	0.049998	50.000000	nontarget	10.000000	na
47.763196	0.049997	50.000000	nontarget	11.000000	na
47.813193	0.049998	50.000000	nontarget	12.000000	na
47.863191	0.049996	50.000000	nontarget	13.000000	47.863914
47.913187	0.049998	50.000000	nontarget	14.000000	na
47.963185	0.049997	50.000000	nontarget	15.000000	na
48.013182	0.049999	50.000000	nontarget	16.000000	na
48.063181	0.049994	51.000000	nontarget	1.000000	na
48.113175	0.049997	51.000000	nontarget	2.000000	na
48.163172	0.049997	51.000000	nontarget	3.000000	na
48.213168	0.049997	51.000000	nontarget	4.000000	na
48.263165	0.049998	51.000000	nontarget	5.000000	na
48.313163	0.049998	51.000000	nontarget	6.000000	na
48.363161	0.049995	51.000000	nontarget	7.000000	na
48.413156	0.049996	51.000000	nontarget	8.000000	na
48.463152	0.049998	51.000000	nontarget	9.000000	na
48.513150	0.049998	51.000000	nontarget	10.000000	na
48.563148	0.049996	51.000000	nontarget	11.000000	na
48.613144	0.049996	51.000000	nontarget	12.000000	na
48.663140	0.049997	51.000000	nontarget	13.000000	na
48.713138	0.049997	51.000000	nontarget	14.000000	na
48.763134	0.049996	51.000000	nontarget	15.000000	48.780601
48.813131	0.050000	51.000000	nontarget	16.000000	na
48.863130	0.049995	52.000000	nontarget	1.000000	48.863847
48.913126	0.049997	52.000000	nontarget	2.000000	na
48.963123	0.049998	52.000000	nontarget	3.000000	na
49.013121	0.049999	52.000000	nontarget	4.000000	na
49.063120	0.049993	52.000000	nontarget	5.000000	na
49.113113	0.050000	52.000000	nontarget	6.000000	na
49.163113	0.049994	52.000000	nontarget	7.000000	na
49.213107	0.049994	52.000000	nontarget	8.000000	na
49.263101	0.050000	52.000000	nontarget	9.000000	na
49.313101	0.049998	52.000000	nontarget	10.000000	na
49.363099	0.049995	52.000000	nontarget	11.000000	na
49.413095	0.049995	52.000000	nontarget	12.000000	na
49.463089	0.050000	52.000000	nontarget	13.000000	na
49.513089	0.049997	52.000000	nontarget	14.000000	49.535622
49.563086	0.049998	52.000000	nontarget	15.000000	na
49.613084	0.049995	52.000000	nontarget	16.000000	na
49.663080	0.049997	53.000000	nontarget	1.000000	49.663769
49.713076	0.049998	53.000000	nontarget	2.000000	na
49.763075	0.049996	53.000000	nontarget	3.000000	na
49.813071	0.049996	53.000000	nontarget	4.000000	na
49.863067	0.049997	53.000000	nontarget	5.000000	na
49.913064	0.049998	53.000000	nontarget	6.000000	na
49.963062	0.050001	53.000000	nontarget	7.000000	na
50.013063	0.049994	53.000000	nontarget	8.000000	na
50.063057	0.049996	53.000000	nontarget	9.000000	na
50.113053	0.049995	53.000000	nontarget	10.000000	na
50.163048	0.049999	53.000000	nontarget	11.000000	na
50.213047	0.049996	53.000000	nontarget	12.000000	na
50.263043	0.049998	53.000000	nontarget	13.000000	na
50.313040	0.049996	53.000000	nontarget	14.000000	na
50.363036	0.049998	53.000000	nontarget	15.000000	na
50.413034	0.049996	53.000000	nontarget	16.000000	na
50.463031	0.049998	54.000000	target	1.000000	na
50.513029	0.049997	54.000000	target	2.000000	na
50.563025	0.049996	54.000000	target	3.000000	na
50.613021	0.049996	54.000000	target	4.000000	na
50.663017	0.049999	54.000000	target	5.000000	na
50.713016	0.049998	54.000000	target	6.000000	na
50.763014	0.049994	54.000000	target	7.000000	na
50.813008	0.049999	54.000000	target	8.000000	na
50.863007	0.049996	54.000000	target	9.000000	na
50.913003	0.049998	54.000000	target	10.000000	na
50.963001	0.049998	54.000000	target	11.000000	na
51.012999	0.050002	54.000000	target	12.000000	na
51.063001	0.049990	54.000000	target	13.000000	na
51.112991	0.049996	54.000000	target	14.000000	na
51.162987	0.050008	54.000000	target	15.000000	na
51.212995	0.049995	54.000000	target	16.000000	na
51.262990	0.050005	55.000000	nontarget	1.000000	na
51.312996	0.049990	55.000000	nontarget	2.000000	na
51.362985	0.049988	55.000000	nontarget	3.000000	51.363689
51.412973	0.050043	55.000000	nontarget	4.000000	na
51.463016	0.049990	55.000000	nontarget	5.000000	na
51.513006	0.050014	55.000000	nontarget	6.000000	na
51.563021	0.049942	55.000000	nontarget	7.000000	na
51.612963	0.049992	55.000000	nontarget	8.000000	na
51.662955	0.050022	55.000000	nontarget	9.000000	na
51.712977	0.049980	55.000000	nontarget	10.000000	na
51.762956	0.050001	55.000000	nontarget	11.000000	na
51.812957	0.049990	55.000000	nontarget	12.000000	na
51.862947	0.049996	55.000000	nontarget	13.000000	na
51.912943	0.050009	55.000000	nontarget	14.000000	na
51.962952	0.049982	55.000000	nontarget	15.000000	na
52.012934	0.050000	55.000000	nontarget	16.000000	na
52.062934	0.049995	56.000000	nontarget	1.000000	na
52.112929	0.049998	56.000000	nontarget	2.000000	52.119586
52.162927	0.050007	56.000000	nontarget	3.000000	na
52.212934	0.049989	56.000000	nontarget	4.000000	na
52.262923	0.050001	56.000000	nontarget	5.000000	na
52.312924	0.049996	56.000000	nontarget	6.000000	na
52.362920	0.049985	56.000000	nontarget	7.000000	na
52.412906	0.049997	56.000000	nontarget	8.000000	na
52.462903	0.050003	56.000000	nontarget	9.000000	na
52.512906	0.049996	56.000000	nontarget	10.000000	na
52.562903	0.049996	56.000000	nontarget	11.000000	na
52.612898	0.049997	56.000000	nontarget	12.000000	na
52.662895	0.049998	56.000000	nontarget	13.000000	na
52.712894	0.049997	56.000000	nontarget	14.000000	na
52.762890	0.049998	56.000000	nontarget	15.000000	na
52.812888	0.050000	56.000000	nontarget	16.000000	na
52.862887	0.049994	57.000000	nontarget	1.000000	52.863589
52.912882	0.049997	57.000000	nontarget	2.000000	na
52.962878	0.050003	57.000000	nontarget	3.000000	na
53.012881	0.049992	57.000000	nontarget	4.000000	na
53.062873	0.049997	57.000000	nontarget	5.000000	na
53.112870	0.049997	57.000000	nontarget	6.000000	na
53.162867	0.049997	57.000000	nontarget	7.000000	na
53.212864	0.049996	57.000000	nontarget	8.000000	na
53.262860	0.049996	57.000000	nontarget	9.000000	na
53.312856	0.049998	57.000000	nontarget	10.000000	na
53.362855	0.049997	57.000000	nontarget	11.000000	na
53.412851	0.049998	57.000000	nontarget	12.000000	na
53.462849	0.049997	57.000000	nontarget	13.000000	na
53.512846	0.049996	57.000000	nontarget	14.000000	na
53.562842	0.049997	57.000000	nontarget	15.000000	na
53.612839	0.049999	57.000000	nontarget	16.000000	na
53.662838	0.049996	58.000000	nontarget	1.000000	53.663560
53.712834	0.049995	58.000000	nontarget	2.000000	na
53.762829	0.049993	58.000000	nontarget	3.000000	na
53.812823	0.050001	58.000000	nontarget	4.000000	na
53.862824	0.049997	58.000000	nontarget	5.000000	na
53.912821	0.049996	58.000000	nontarget	6.000000	na
53.962817	0.050002	58.000000	nontarget	7.000000	na
54.012819	0.049999	58.000000	nontarget	8.000000	na
54.062818	0.049990	58.000000	nontarget	9.000000	na
54.112808	0.049998	58.000000	nontarget	10.000000	na
54.162806	0.049991	58.000000	nontarget	11.000000	na
54.212797	0.050004	58.000000	nontarget	12.000000	na
54.262800	0.049996	58.000000	nontarget	13.000000	54.263507
54.312796	0.049996	58.000000	nontarget	14.000000	na
54.362792	0.049999	58.000000	nontarget	15.000000	na
54.412791	0.049995	58.000000	nontarget	16.000000	na
54.462786	0.050001	59.000000	nontarget	1.000000	na
54.512786	0.049995	59.000000	nontarget	2.000000	na
54.562781	0.049996	59.000000	nontarget	3.000000	na
54.612777	0.049998	59.000000	nontarget	4.000000	na
54.662775	0.049996	59.000000	nontarget	5.000000	na
54.712771	0.049997	59.000000	nontarget	6.000000	na
54.762768	0.049996	59.000000	nontarget	7.000000	na
54.812765	0.049998	59.000000	nontarget	8.000000	na
54.862763	0.049997	59.000000	nontarget	9.000000	na
54.912760	0.049997	59.000000	nontarget	10.000000	na
54.962757	0.049984	59.000000	nontarget	11.000000	na
55.012741	0.050010	59.000000	nontarget	12.000000	na
55.062752	0.049996	59.000000	nontarget	13.000000	na
55.112747	0.049996	59.000000	nontarget	14.000000	na
55.162744	0.049997	59.000000	nontarget	15.000000	na
55.212741	0.049997	59.000000	nontarget	16.000000	na
55.262738	0.049997	60.000000	target	1.000000	na
55.312735	0.049998	60.000000	target	2.000000	na
55.362733	0.049997	60.000000	target	3.000000	na
55.412730	0.049997	60.000000	target	4.000000	na
55.462726	0.049997	60.000000	target	5.000000	na
55.512723	0.049997	60.000000	target	6.000000	na
55.562720	0.049998	60.000000	target	7.000000	na
55.612718	0.049996	60.000000	target	8.000000	na
55.662713	0.049996	60.000000	target	9.000000	na
55.712709	0.049997	60.000000	target	10.000000	na
55.762707	0.049998	60.000000	target	11.000000	na
55.812704	0.049997	60.000000	target	12.000000	na
55.862701	0.049998	60.000000	target	13.000000	na
55.912700	0.049996	60.000000	target	14.000000	55.913431
55.962696	0.050001	60.000000	target	15.000000	na
56.012696	0.049998	60.000000	target	16.000000	na
56.062694	0.049993	61.000000	nontarget	1.000000	na
56.112687	0.049996	61.000000	nontarget	2.000000	na
56.162683	0.049997	61.000000	nontarget	3.000000	na
56.212680	0.049997	61.000000	nontarget	4.000000	na
56.262677	0.049996	61.000000	nontarget	5.000000	na
56.312673	0.049998	61.000000	nontarget	6.000000	na
56.362671	0.049997	61.000000	nontarget	7.000000	na
56.412667	0.049997	61.000000	nontarget	8.000000	na
56.462664	0.049998	61.000000	nontarget	9.000000	na
56.512663	0.049996	61.000000	nontarget	10.000000	na
56.562659	0.049998	61.000000	nontarget	11.000000	na
56.612657	0.049995	61.000000	nontarget	12.000000	na
56.662652	0.049998	61.000000	nontarget	13.000000	na
56.712650	0.049995	61.000000	nontarget	14.000000	56.725578
56.762645	0.049999	61.000000	nontarget	15.000000	na
56.812643	0.049997	61.000000	nontarget	16.000000	na
56.862640	0.049998	62.000000	nontarget	1.000000	56.863327
56.912638	0.049997	62.000000	nontarget	2.000000	na
56.962635	0.049999	62.000000	nontarget	3.000000	na
57.012634	0.049996	62.000000	nontarget	4.000000	na
57.062630	0.049996	62.000000	nontarget	5.000000	na
57.112626	0.049996	62.000000	nontarget	6.000000	na
57.162621	0.049998	62.000000	nontarget	7.000000	na
57.212619	0.049998	62.000000	nontarget	8.000000	na
57.262617	0.049997	62.000000	nontarget	9.000000	na
57.312614	0.049995	62.000000	nontarget	10.000000	na
57.362609	0.049998	62.000000	nontarget	11.000000	na
57.412607	0.049998	62.000000	nontarget	12.000000	na
57.462605	0.049996	62.000000	nontarget	13.000000	na
57.512600	0.049997	62.000000	nontarget	14.000000	57.521610
57.562597	0.049998	62.000000	nontarget	15.000000	na
57.612595	0.049995	62.000000	nontarget	16.000000	na
57.662590	0.049998	63.000000	nontarget	1.000000	57.663272
57.712588	0.049997	63.000000	nontarget	2.000000	na
57.762584	0.049998	63.000000	nontarget	3.000000	na
57.812582	0.049997	63.000000	nontarget	4.000000	na
57.862579	0.049997	63.000000	nontarget	5.000000	na
57.912576	0.049996	63.000000	nontarget	6.000000	na
57.962572	0.049987	63.000000	nontarget	7.000000	na
58.012559	0.050014	63.000000	nontarget	8.000000	na
58.062573	0.049992	63.000000	nontarget	9.000000	na
58.112565	0.049996	63.000000	nontarget	10.000000	na
58.162561	0.050010	63.000000	nontarget	11.000000	na
58.212571	0.049985	63.000000	nontarget	12.000000	na
58.262555	0.049997	63.000000	nontarget	13.000000	na
58.312553	0.049998	63.000000	nontarget	14.000000	na
58.362550	0.049997	63.000000	nontarget	15.000000	58.381802
58.412547	0.049996	63.000000	nontarget	16.000000	na
58.462543	0.049997	64.000000	nontarget	1.000000	58.463245
58.512540	0.049998	64.000000	nontarget	2.000000	na
58.562537	0.049996	64.000000	nontarget	3.000000	na
58.612534	0.049997	64.000000	nontarget	4.000000	na
58.662530	0.049997	64.000000	nontarget	5.000000	na
58.712527	0.049998	64.000000	nontarget	6.000000	na
58.762525	0.049997	64.000000	nontarget	7.000000	na
58.812522	0.049997	64.000000	nontarget	8.000000	na
58.862519	0.049997	64.000000	nontarget	9.000000	na
58.912516	0.049997	64.000000	nontarget	10.000000	na
58.962513	0.050003	64.000000	nontarget	11.000000	na
59.012516	0.049993	64.000000	nontarget	12.000000	na
59.062509	0.049994	64.000000	nontarget	13.000000	na
59.112503	0.049997	64.000000	nontarget	14.000000	na
59.162501	0.049997	64.000000	nontarget	15.000000	na
59.212498	0.049997	64.000000	nontarget	16.000000	59.219608
59.262495	0.049997	65.000000	nontarget	1.000000	59.263242
59.312491	0.049997	65.000000	nontarget	2.000000	na
59.362488	0.049998	65.000000	nontarget	3.000000	na
59.412486	0.049997	65.000000	nontarget	4.000000	na
59.462483	0.049997	65.000000	nontarget	5.000000	na
59.512479	0.049997	65.000000	nontarget	6.000000	na
59.562476	0.049996	65.000000	nontarget	7.000000	na
59.612473	0.049997	65.000000	nontarget	8.000000	na
59.662469	0.049998	65.000000	nontarget	9.000000	na
59.712467	0.049996	65.000000	nontarget	10.000000	na
59.762464	0.049996	65.000000	nontarget	11.000000	na
59.812460	0.049997	65.000000	nontarget	12.000000	na
59.862457	0.049998	65.000000	nontarget	13.000000	na
59.912455	0.049996	65.000000	nontarget	14.000000	59.914621
59.962452	0.050000	65.000000	nontarget	15.000000	na
60.012452	0.049998	65.000000	nontarget	16.000000	na
60.062449	0.049993	66.000000	nontarget	1.000000	na
60.112442	0.049996	66.000000	nontarget	2.000000	na
60.162439	0.049996	66.000000	nontarget	3.000000	na
60.212435	0.049999	66.000000	nontarget	4.000000	na
60.262434	0.049997	66.000000	nontarget	5.000000	na
60.312431	0.049995	66.000000	nontarget	6.000000	na
60.362426	0.049998	66.000000	nontarget	7.000000	na
60.412424	0.049997	66.000000	nontarget	8.000000	na
60.462421	0.049997	66.000000	nontarget	9.000000	na
60.512418	0.049996	66.000000	nontarget	10.000000	na
60.562414	0.049998	66.000000	nontarget	11.000000	na
60.612412	0.049995	66.000000	nontarget	12.000000	na
60.662408	0.050007	66.000000	nontarget	13.000000	na
60.712415	0.049988	66.000000	nontarget	14.000000	na
60.762403	0.050009	66.000000	nontarget	15.000000	na
60.812412	0.049984	66.000000	nontarget	16.000000	na
60.862396	0.049997	67.000000	target	1.000000	na
60.912393	0.050021	67.000000	target	2.000000	na
60.962414	0.049990	67.000000	target	3.000000	na
61.012404	0.049994	67.000000	target	4.000000	na
61.062398	0.049977	67.000000	target	5.000000	na
61.112375	0.050000	67.000000	target	6.000000	na
61.162375	0.050021	67.000000	target	7.000000	na
61.212396	0.049979	67.000000	target	8.000000	na
61.262375	0.050003	67.000000	target	9.000000	na
61.312378	0.049989	67.000000	target	10.000000	na
61.362367	0.049997	67.000000	target	11.000000	na
61.412364	0.050008	67.000000	target	12.000000	na
61.462372	0.049996	67.000000	target	13.000000	na
61.512368	0.049987	67.000000	target	14.000000	na
61.562354	0.049998	67.000000	target	15.000000	61.591583
61.612352	0.049999	67.000000	target	16.000000	na
61.662352	0.049991	68.000000	nontarget	1.000000	61.663036
61.712343	0.049999	68.000000	nontarget	2.000000	na
61.762342	0.050000	68.000000	nontarget	3.000000	na
61.812342	0.049987	68.000000	nontarget	4.000000	na
61.862329	0.049998	68.000000	nontarget	5.000000	na
61.912326	0.049997	68.000000	nontarget	6.000000	na
61.962323	0.050001	68.000000	nontarget	7.000000	na
62.012324	0.049999	68.000000	nontarget	8.000000	na
62.062324	0.049996	68.000000	nontarget	9.000000	na
62.112320	0.049995	68.000000	nontarget	10.000000	na
62.162315	0.049999	68.000000	nontarget	11.000000	na
62.212314	0.049997	68.000000	nontarget	12.000000	na
62.262311	0.049998	68.000000	nontarget	13.000000	na
62.312308	0.049997	68.000000	nontarget	14.000000	na
62.362305	0.049996	68.000000	nontarget	15.000000	na
62.412302	0.049997	68.000000	nontarget	16.000000	na
62.462298	0.049998	69.000000	target	1.000000	na
62.512296	0.049996	69.000000	target	2.000000	na
62.562292	0.049997	69.000000	target	3.000000	na
62.612289	0.049997	69.000000	target	4.000000	na
62.662286	0.049995	69.000000	target	5.000000	na
62.712281	0.049998	69.000000	target	6.000000	na
62.762280	0.049997	69.000000	target	7.000000	na
62.812277	0.049998	69.000000	target	8.000000	na
62.862275	0.049997	69.000000	target	9.000000	na
62.912271	0.049997	69.000000	target	10.000000	na
62.962268	0.050001	69.000000	target	11.000000	na
63.012270	0.049999	69.000000	target	12.000000	na
63.062268	0.049990	69.000000	target	13.000000	63.074545
63.112258	0.049997	69.000000	target	14.000000	na
63.162255	0.049999	69.000000	target	15.000000	na
63.212254	0.049995	69.000000	target	16.000000	na
63.262249	0.049998	70.000000	nontarget	1.000000	na
63.312247	0.049998	70.000000	nontarget	2.000000	na
63.362245	0.049996	70.000000	nontarget	3.000000	na
63.412241	0.049996	70.000000	nontarget	4.000000	na
63.462237	0.049998	70.000000	nontarget	5.000000	na
63.512235	0.049995	70.000000	nontarget	6.000000	na
63.562231	0.049998	70.000000	nontarget	7.000000	na
63.612229	0.049996	70.000000	nontarget	8.000000	na
63.662224	0.049999	70.000000	nontarget	9.000000	na
63.712223	0.050003	70.000000	nontarget	10.000000	na
63.762226	0.049989	70.000000	nontarget	11.000000	na
63.812216	0.049997	70.000000	nontarget	12.000000	na
63.862213	0.049997	70.000000	nontarget	13.000000	na
63.912210	0.049998	70.000000	nontarget	14.000000	na
63.962208	0.049998	70.000000	nontarget	15.000000	na
64.012206	0.050002	70.000000	nontarget	16.000000	64.020769
64.062208	0.049992	71.000000	nontarget	1.000000	64.062950
64.112201	0.049997	71.000000	nontarget	2.000000	na
64.162197	0.049996	71.000000	nontarget	3.000000	na
64.212193	0.049994	71.000000	nontarget	4.000000	na
64.262187	0.049998	71.000000	nontarget	5.000000	na
64.312185	0.050000	71.000000	nontarget	6.000000	na
64.362186	0.049994	71.000000	nontarget	7.000000	na
64.412180	0.049996	71.000000	nontarget	8.000000	na
64.462176	0.049997	71.000000	nontarget	9.000000	na
64.512174	0.049996	71.000000	nontarget	10.000000	na
64.562170	0.049996	71.000000	nontarget	11.000000	na
64.612166	0.049998	71.000000	nontarget	12.000000	na
64.662164	0.049997	71.000000	nontarget	13.000000	na
64.712161	0.049998	71.000000	nontarget	14.000000	64.712878
64.762158	0.049997	71.000000	nontarget	15.000000	na
64.812156	0.049997	71.000000	nontarget	16.000000	na
64.862153	0.049995	72.000000	nontarget	1.000000	na
64.912148	0.049998	72.000000	nontarget	2.000000	na
64.962146	0.050003	72.000000	nontarget	3.000000	na
65.012149	0.049991	72.000000	nontarget	4.000000	na
65.062140	0.049998	72.000000	nontarget	5.000000	na
65.112138	0.049995	72.000000	nontarget	6.000000	na
65.162133	0.049998	72.000000	nontarget	7.000000	na
65.212131	0.049997	72.000000	nontarget	8.000000	na
65.262128	0.049997	72.000000	nontarget	9.000000	na
65.312125	0.049998	72.000000	nontarget	10.000000	na
65.362122	0.049996	72.000000	nontarget	11.000000	na
65.412118	0.049997	72.000000	nontarget	12.000000	na
65.462115	0.049998	72.000000	nontarget	13.000000	65.462896
65.512113	0.049995	72.000000	nontarget	14.000000	na
65.562108	0.049999	72.000000	nontarget	15.000000	na
65.612108	0.049995	72.000000	nontarget	16.000000	na
65.662103	0.049997	73.000000	nontarget	1.000000	na
65.712100	0.049997	73.000000	nontarget	2.000000	na
65.762097	0.049998	73.000000	nontarget	3.000000	na
65.812095	0.049997	73.000000	nontarget	4.000000	na
65.862092	0.049995	73.000000	nontarget	5.000000	na
65.912087	0.049998	73.000000	nontarget	6.000000	na
65.962085	0.050001	73.000000	nontarget	7.000000	na
66.012085	0.049994	73.000000	nontarget	8.000000	na
66.062079	0.049998	73.000000	nontarget	9.000000	na
66.112077	0.049995	73.000000	nontarget	10.000000	na
66.162072	0.049997	73.000000	nontarget	11.000000	na
66.212070	0.049998	73.000000	nontarget	12.000000	66.214530
66.262068	0.049996	73.000000	nontarget	13.000000	na
66.312064	0.049997	73.000000	nontarget	14.000000	na
66.362061	0.049995	73.000000	nontarget	15.000000	na
66.412057	0.049998	73.000000	nontarget	16.000000	na
66.462055	0.049996	74.000000	nontarget	1.000000	na
66.512051	0.049997	74.000000	nontarget	2.000000	na
66.562048	0.049996	74.000000	nontarget	3.000000	na
66.612044	0.049999	74.000000	nontarget	4.000000	na
66.662043	0.049996	74.000000	nontarget	5.000000	na
66.712039	0.049997	74.000000	nontarget	6.000000	na
66.762036	0.049998	74.000000	nontarget	7.000000	na
66.812033	0.049998	74.000000	nontarget	8.000000	na
66.862031	0.049995	74.000000	nontarget	9.000000	na
66.912026	0.049997	74.000000	nontarget	10.000000	na
66.962023	0.049999	74.000000	nontarget	11.000000	na
67.012023	0.049996	74.000000	nontarget	12.000000	na
67.062019	0.049996	74.000000	nontarget	13.000000	67.062898
67.112015	0.049997	74.000000	nontarget	14.000000	na
67.162012	0.049998	74.000000	nontarget	15.000000	na
67.212009	0.049998	74.000000	nontarget	16.000000	na
67.262007	0.049997	75.000000	nontarget	1.000000	na
67.312004	0.049996	75.000000	nontarget	2.000000	na
67.362000	0.049995	75.000000	nontarget	3.000000	na
67.411995	0.049998	75.000000	nontarget	4.000000	na
67.461993	0.049998	75.000000	nontarget	5.000000	na
67.511991	0.049996	75.000000	nontarget	6.000000	na
67.561987	0.049997	75.000000	nontarget	7.000000	na
67.611984	0.049997	75.000000	nontarget	8.000000	na
67.661981	0.049998	75.000000	nontarget	9.000000	na
67.711979	0.049997	75.000000	nontarget	10.000000	67.712697
67.761976	0.049996	75.000000	nontarget	11.000000	na
67.811972	0.049997	75.000000	nontarget	12.000000	na
67.861969	0.049998	75.000000	nontarget	13.000000	na
67.911967	0.049995	75.000000	nontarget	14.000000	na
67.961962	0.050003	75.000000	nontarget	15.000000	na
68.011965	0.049992	75.000000	nontarget	16.000000	na
68.061958	0.049997	76.000000	nontarget	1.000000	na
68.111955	0.049996	76.000000	nontarget	2.000000	na
68.161951	0.049997	76.000000	nontarget	3.000000	na
68.211948	0.049996	76.000000	nontarget	4.000000	na
68.261944	0.049999	76.000000	nontarget	5.000000	na
68.311943	0.049999	76.000000	nontarget	6.000000	68.321916
68.361942	0.049992	76.000000	nontarget	7.000000	na
68.411934	0.050000	76.000000	nontarget	8.000000	na
68.461934	0.049995	76.000000	nontarget	9.000000	na
68.511930	0.049997	76.000000	nontarget	10.000000	na
68.561926	0.049997	76.000000	nontarget	11.000000	na
68.611923	0.049996	76.000000	nontarget	12.000000	na
68.661920	0.049998	76.000000	nontarget	13.000000	na
68.711918	0.049995	76.000000	nontarget	14.000000	na
68.761913	0.049997	76.000000	nontarget	15.000000	na
68.811910	0.049998	76.000000	nontarget	16.000000	na
68.861908	0.049996	77.000000	nontarget	1.000000	na
68.911904	0.049997	77.000000	nontarget	2.000000	na
68.961901	0.050000	77.000000	nontarget	3.000000	na
69.011902	0.050001	77.000000	nontarget	4.000000	na
69.061903	0.049989	77.000000	nontarget	5.000000	na
69.111892	0.049997	77.000000	nontarget	6.000000	na
69.161889	0.049998	77.000000	nontarget	7.000000	na
69.211887	0.049998	77.000000	nontarget	8.000000	na
69.261884	0.049997	77.000000	nontarget	9.000000	na
69.311881	0.049995	77.000000	nontarget	10.000000	na
69.361877	0.049998	77.000000	nontarget	11.000000	na
69.411875	0.049996	77.000000	nontarget	12.000000	na
69.461871	0.049998	77.000000	nontarget	13.000000	69.487452
69.511869	0.049995	77.000000	nontarget	14.000000	na
69.561864	0.049998	77.000000	nontarget	15.000000	na
69.611863	0.049997	77.000000	nontarget	16.000000	na
69.661860	0.049996	78.000000	nontarget	1.000000	na
69.711856	0.049997	78.000000	nontarget	2.000000	na
69.761852	0.049998	78.000000	nontarget	3.000000	na
69.811850	0.049996	78.000000	nontarget	4.000000	na
69.861846	0.049998	78.000000	nontarget	5.000000	na
69.911844	0.049997	78.000000	nontarget	6.000000	na
69.961840	0.050001	78.000000	nontarget	7.000000	na
70.011841	0.049999	78.000000	nontarget	8.000000	na
70.061840	0.049992	78.000000	nontarget	9.000000	na
70.111832	0.049996	78.000000	nontarget	10.000000	na
70.161829	0.049997	78.000000	nontarget	11.000000	na
70.211825	0.049998	78.000000	nontarget	12.000000	na
70.261823	0.049999	78.000000	nontarget	13.000000	70.287347
70.311822	0.049996	78.000000	nontarget	14.000000	na
70.361818	0.050004	78.000000	nontarget	15.000000	na
70.411821	0.050034	78.000000	nontarget	16.000000	na
70.461856	0.050002	79.000000	nontarget	1.000000	na
70.511858	0.049988	79.000000	nontarget	2.000000	na
70.561845	0.049956	79.000000	nontarget	3.000000	na
70.611801	0.049992	79.000000	nontarget	4.000000	na
70.661793	0.050023	79.000000	nontarget	5.000000	na
70.711816	0.049977	79.000000	nontarget	6.000000	na
70.761793	0.050004	79.000000	nontarget	7.000000	na
70.811797	0.049989	79.000000	nontarget	8.000000	na
70.861786	0.049998	79.000000	nontarget	9.000000	na
70.911784	0.050008	79.000000	nontarget	10.000000	na
70.961792	0.050002	79.000000	nontarget	11.000000	na
71.011794	0.049990	79.000000	nontarget	12.000000	na
71.061784	0.049987	79.000000	nontarget	13.000000	na
71.111771	0.050001	79.000000	nontarget	14.000000	na
71.161772	0.050008	79.000000	nontarget	15.000000	71.162485
71.211780	0.049982	79.000000	nontarget	16.000000	na
71.261762	0.049996	80.000000	nontarget	1.000000	71.262480
71.311757	0.049992	80.000000	nontarget	2.000000	na
71.361750	0.049998	80.000000	nontarget	3.000000	na
71.411747	0.049996	80.000000	nontarget	4.000000	na
71.461743	0.049998	80.000000	nontarget	5.000000	na
71.511740	0.050004	80.000000	nontarget	6.000000	na
71.561744	0.049995	80.000000	nontarget	7.000000	na
71.611740	0.049997	80.000000	nontarget	8.000000	na
71.661737	0.049996	80.000000	nontarget	9.000000	na
71.711733	0.049998	80.000000	nontarget	10.000000	na
71.761731	0.049998	80.000000	nontarget	11.000000	na
71.811729	0.049994	80.000000	nontarget	12.000000	na
71.861724	0.049999	80.000000	nontarget	13.000000	na
71.911722	0.049995	80.000000	nontarget	14.000000	71.912436
71.961718	0.050003	80.000000	nontarget	15.000000	na
72.011721	0.049998	80.000000	nontarget	16.000000	na
72.061719	0.049990	81.000000	nontarget	1.000000	na
72.111709	0.049997	81.000000	nontarget	2.000000	na
72.161706	0.049997	81.000000	nontarget	3.000000	na
72.211703	0.049998	81.000000	nontarget	4.000000	na
72.261701	0.049995	81.000000	nontarget	5.000000	na
72.311696	0.049998	81.000000	nontarget	6.000000	na
72.361694	0.049997	81.000000	nontarget	7.000000	na
72.411691	0.049997	81.000000	nontarget	8.000000	na
72.461688	0.049996	81.000000	nontarget	9.000000	na
72.511684	0.049999	81.000000	nontarget	10.000000	na
72.561683	0.049996	81.000000	nontarget	11.000000	na
72.611679	0.049996	81.000000	nontarget	12.000000	na
72.661675	0.049998	81.000000	nontarget	13.000000	na
72.711673	0.049995	81.000000	nontarget	14.000000	na
72.761668	0.049998	81.000000	nontarget	15.000000	na
72.811666	0.049998	81.000000	nontarget	16.000000	na
72.861664	0.049997	82.000000	target	1.000000	na
72.911660	0.049997	82.000000	target	2.000000	na
72.961657	0.050000	82.000000	target	3.000000	na
73.011657	0.050001	82.000000	target	4.000000	na
73.061658	0.049990	82.000000	target	5.000000	na
73.111648	0.049998	82.000000	target	6.000000	na
73.161646	0.049997	82.000000	target	7.000000	na
73.211643	0.049995	82.000000	target	8.000000	na
73.261639	0.049997	82.000000	target	9.000000	na
73.311636	0.050000	82.000000	target	10.000000	na
73.361636	0.049994	82.000000	target	11.000000	na
73.411630	0.049999	82.000000	target	12.000000	na
73.461628	0.049996	82.000000	target	13.000000	na
73.511624	0.049996	82.000000	target	14.000000	73.530490
73.561620	0.049998	82.000000	target	15.000000	na
73.611618	0.049997	82.000000	target	16.000000	na
73.661615	0.049997	83.000000	nontarget	1.000000	73.662328
73.711612	0.049995	83.000000	nontarget	2.000000	na
73.761607	0.049998	83.000000	nontarget	3.000000	na
73.811605	0.049998	83.000000	nontarget	4.000000	na
73.861603	0.049997	83.000000	nontarget	5.000000	na
73.911600	0.049997	83.000000	nontarget	6.000000	na
73.961597	0.050001	83.000000	nontarget	7.000000	na
74.011598	0.049993	83.000000	nontarget	8.000000	na
74.061591	0.049996	83.000000	nontarget	9.000000	na
74.111587	0.049998	83.000000	nontarget	10.000000	na
74.161584	0.049996	83.000000	nontarget	11.000000	na
74.211580	0.049998	83.000000	nontarget	12.000000	na
74.261578	0.049998	83.000000	nontarget	13.000000	na
74.311575	0.049997	83.000000	nontarget	14.000000	na
74.361572	0.049996	83.000000	nontarget	15.000000	na
74.411569	0.049998	83.000000	nontarget	16.000000	na
74.461566	0.049996	84.000000	target	1.000000	na
74.511562	0.049997	84.000000	target	2.000000	na
74.561559	0.049996	84.000000	target	3.000000	na
74.611555	0.049999	84.000000	target	4.000000	na
74.661554	0.049997	84.000000	target	5.000000	na
74.711551	0.049997	84.000000	target	6.000000	na
74.761547	0.049997	84.000000	target	7.000000	na
74.811544	0.049997	84.000000	target	8.000000	na
74.861541	0.049998	84.000000	target	9.000000	na
74.911539	0.049997	84.000000	target	10.000000	na
74.961535	0.050000	84.000000	target	11.000000	na
75.011536	0.049994	84.000000	target	12.000000	na
75.061529	0.049998	84.000000	target	13.000000	na
75.111527	0.049998	84.000000	target	14.000000	75.119387
75.161525	0.049995	84.000000	target	15.000000	na
75.211520	0.049999	84.000000	target	16.000000	na
75.261518	0.049995	85.000000	nontarget	1.000000	75.262233
75.311513	0.049998	85.000000	nontarget	2.000000	na
75.361511	0.049997	85.000000	nontarget	3.000000	na
75.411507	0.049998	85.000000	nontarget	4.000000	na
75.461505	0.049997	85.000000	nontarget	5.000000	na
75.511501	0.049998	85.000000	nontarget	6.000000	na
75.561500	0.049996	85.000000	nontarget	7.000000	na
75.611496	0.049997	85.000000	nontarget	8.000000	na
75.661492	0.049997	85.000000	nontarget	9.000000	na
75.711489	0.049998	85.000000	nontarget	10.000000	na
75.761487	0.049997	85.000000	nontarget	11.000000	na
75.811483	0.049996	85.000000	nontarget	12.000000	na
75.861480	0.049997	85.000000	nontarget	13.000000	na
75.911477	0.049998	85.000000	nontarget	14.000000	na
75.961474	0.049999	85.000000	nontarget	15.000000	na
76.011473	0.050002	85.000000	nontarget	16.000000	na
76.061475	0.049990	86.000000	nontarget	1.000000	na
76.111465	0.049997	86.000000	nontarget	2.000000	76.119414
76.161462	0.049996	86.000000	nontarget	3.000000	na
76.211458	0.050001	86.000000	nontarget	4.000000	na
76.261459	0.049994	86.000000	nontarget	5.000000	na
76.311453	0.050000	86.000000	nontarget	6.000000	na
76.361453	0.049994	86.000000	nontarget	7.000000	na
76.411447	0.049997	86.000000	nontarget	8.000000	na
76.461444	0.049997	86.000000	nontarget	9.000000	na
76.511441	0.049997	86.000000	nontarget	10.000000	na
76.561438	0.049997	86.000000	nontarget	11.000000	na
76.611435	0.049998	86.000000	nontarget	12.000000	na
76.661434	0.049993	86.000000	nontarget	13.000000	na
76.711427	0.049998	86.000000	nontarget	14.000000	na
76.761425	0.049999	86.000000	nontarget	15.000000	na
76.811424	0.049994	86.000000	nontarget	16.000000	76.812150
76.861419	0.049996	87.000000	nontarget	1.000000	76.862136
76.911415	0.050001	87.000000	nontarget	2.000000	na
76.961416	0.049995	87.000000	nontarget	3.000000	na
77.011412	0.050010	87.000000	nontarget	4.000000	na
77.061422	0.049982	87.000000	nontarget	5.000000	na
77.111404	0.049997	87.000000	nontarget	6.000000	na
77.161400	0.049996	87.000000	nontarget	7.000000	na
77.211397	0.049999	87.000000	nontarget	8.000000	na
77.261396	0.049996	87.000000	nontarget	9.000000	na
77.311392	0.049997	87.000000	nontarget	10.000000	na
77.361389	0.049998	87.000000	nontarget	11.000000	na
77.411387	0.049996	87.000000	nontarget	12.000000	na
77.461382	0.049997	87.000000	nontarget	13.000000	na
77.511379	0.049998	87.000000	nontarget	14.000000	na
77.561377	0.049997	87.000000	nontarget	15.000000	na
77.611374	0.049997	87.000000	nontarget	16.000000	na
77.661370	0.049996	88.000000	nontarget	1.000000	na
77.711367	0.049997	88.000000	nontarget	2.000000	77.724372
77.761364	0.049997	88.000000	nontarget	3.000000	na
77.811361	0.050001	88.000000	nontarget	4.000000	na
77.861361	0.049994	88.000000	nontarget	5.000000	na
77.911355	0.049998	88.000000	nontarget	6.000000	na
77.961352	0.049999	88.000000	nontarget	7.000000	na
78.011352	0.049993	88.000000	nontarget	8.000000	na
78.061345	0.049999	88.000000	nontarget	9.000000	na
78.111344	0.049997	88.000000	nontarget	10.000000	na
78.161340	0.049995	88.000000	nontarget	11.000000	na
78.211336	0.050000	88.000000	nontarget	12.000000	na
78.261335	0.049995	88.000000	nontarget	13.000000	na
78.311331	0.049998	88.000000	nontarget	14.000000	na
78.361328	0.049997	88.000000	nontarget	15.000000	na
78.411326	0.049995	88.000000	nontarget	16.000000	na
78.461321	0.049996	89.000000	nontarget	1.000000	78.462022
78.511317	0.049999	89.000000	nontarget	2.000000	na
78.561315	0.049996	89.000000	nontarget	3.000000	na
78.611312	0.049997	89.000000	nontarget	4.000000	na
78.661308	0.049998	89.000000	nontarget	5.000000	na
78.711306	0.049997	89.000000	nontarget	6.000000	na
78.761302	0.049997	89.000000	nontarget	7.000000	na
78.811300	0.049998	89.000000	nontarget	8.000000	na
78.861297	0.049996	89.000000	nontarget	9.000000	na
78.911293	0.049999	89.000000	nontarget	10.000000	na
78.961292	0.049999	89.000000	nontarget	11.000000	na
79.011291	0.049994	89.000000	nontarget	12.000000	na
79.061286	0.049996	89.000000	nontarget	13.000000	na
79.111281	0.049991	89.000000	nontarget	14.000000	79.139825
79.161272	0.050003	89.000000	nontarget	15.000000	na
79.211275	0.050001	89.000000	nontarget	16.000000	na
79.261276	0.050002	90.000000	nontarget	1.000000	79.261980
79.311278	0.049989	90.000000	nontarget	2.000000	na
79.361268	0.050006	90.000000	nontarget	3.000000	na
79.411274	0.050003	90.000000	nontarget	4.000000	na
79.461277	0.049999	90.000000	nontarget	5.000000	na
79.511275	0.049989	90.000000	nontarget	6.000000	na
79.561264	0.050019	90.000000	nontarget	7.000000	na
79.611283	0.050001	90.000000	nontarget	8.000000	na
79.661284	0.050001	90.000000	nontarget	9.000000	na
79.711285	0.050004	90.000000	nontarget	10.000000	na
79.761290	0.049964	90.000000	nontarget	11.000000	na
79.811254	0.050016	90.000000	nontarget	12.000000	na
79.861270	0.050002	90.000000	nontarget	13.000000	79.861965
79.911272	0.049985	90.000000	nontarget	14.000000	na
79.961257	0.049965	90.000000	nontarget	15.000000	na
80.011222	0.050001	90.000000	nontarget	16.000000	na
80.061223	0.050022	91.000000	nontarget	1.000000	na
80.111245	0.050000	91.000000	nontarget	2.000000	na
80.161244	0.049996	91.000000	nontarget	3.000000	na
80.211240	0.049984	91.000000	nontarget	4.000000	na
80.261224	0.049995	91.000000	nontarget	5.000000	na
80.311219	0.050002	91.000000	nontarget	6.000000	na
80.361221	0.050003	91.000000	nontarget	7.000000	na
80.411224	0.049987	91.000000	nontarget	8.000000	na
80.461211	0.049995	91.000000	nontarget	9.000000	na
80.511206	0.049994	91.000000	nontarget	10.000000	80.511902
80.561200	0.050016	91.000000	nontarget	11.000000	na
80.611216	0.049969	91.000000	nontarget	12.000000	na
80.661185	0.050009	91.000000	nontarget	13.000000	na
80.711194	0.049986	91.000000	nontarget	14.000000	na
80.761180	0.050001	91.000000	nontarget	15.000000	na
80.811182	0.049998	91.000000	nontarget	16.000000	na
80.861180	0.049998	92.000000	nontarget	1.000000	na
80.911178	0.049984	92.000000	nontarget	2.000000	na
80.961162	0.050000	92.000000	nontarget	3.000000	na
81.011162	0.050000	92.000000	nontarget	4.000000	na
81.061162	0.049997	92.000000	nontarget	5.000000	na
81.111159	0.049998	92.000000	nontarget	6.000000	na
81.161157	0.049996	92.000000	nontarget	7.000000	na
81.211153	0.049998	92.000000	nontarget	8.000000	na
81.261151	0.049997	92.000000	nontarget	9.000000	na
81.311148	0.049996	92.000000	nontarget	10.000000	na
81.361144	0.049998	92.000000	nontarget	11.000000	81.361899
81.411142	0.049995	92.000000	nontarget	12.000000	na
81.461137	0.049998	92.000000	nontarget	13.000000	na
81.511136	0.049998	92.000000	nontarget	14.000000	na
81.561134	0.049994	92.000000	nontarget	15.000000	na
81.611128	0.049998	92.000000	nontarget	16.000000	na
81.661126	0.049996	93.000000	nontarget	1.000000	na
81.711123	0.049997	93.000000	nontarget	2.000000	na
81.761119	0.049998	93.000000	nontarget	3.000000	na
81.811117	0.049996	93.000000	nontarget	4.000000	na
81.861113	0.049998	93.000000	nontarget	5.000000	na
81.911111	0.049997	93.000000	nontarget	6.000000	na
81.961108	0.049999	93.000000	nontarget	7.000000	na
82.011107	0.049995	93.000000	nontarget	8.000000	82.011869
82.061102	0.049996	93.000000	nontarget	9.000000	na
82.111098	0.050000	93.000000	nontarget	10.000000	na
82.161098	0.049995	93.000000	nontarget	11.000000	na
82.211093	0.049998	93.000000	nontarget	12.000000	na
82.261091	0.049994	93.000000	nontarget	13.000000	na
82.311085	0.049998	93.000000	nontarget	14.000000	na
82.361082	0.049999	93.000000	nontarget	15.000000	na
82.411081	0.049997	93.000000	nontarget	16.000000	na
82.461077	0.049998	94.000000	nontarget	1.000000	na
82.511075	0.049996	94.000000	nontarget	2.000000	na
82.561071	0.049996	94.000000	nontarget	3.000000	na
82.611067	0.049997	94.000000	nontarget	4.000000	na
82.661064	0.049997	94.000000	nontarget	5.000000	na
82.711061	0.049997	94.000000	nontarget	6.000000	na
82.761058	0.049997	94.000000	nontarget	7.000000	na
82.811055	0.049998	94.000000	nontarget	8.000000	na
82.861053	0.049997	94.000000	nontarget	9.000000	na
82.911050	0.049997	94.000000	nontarget	10.000000	na
82.961046	0.049999	94.000000	nontarget	11.000000	82.984244
83.011045	0.049996	94.000000	nontarget	12.000000	na
83.061041	0.049995	94.000000	nontarget	13.000000	na
83.111037	0.049999	94.000000	nontarget	14.000000	na
83.161035	0.049999	94.000000	nontarget	15.000000	na
83.211034	0.049995	94.000000	nontarget	16.000000	na
83.261029	0.049996	95.000000	nontarget	1.000000	na
83.311025	0.049996	95.000000	nontarget	2.000000	na
83.361021	0.049998	95.000000	nontarget	3.000000	na
83.411019	0.049997	95.000000	nontarget	4.000000	na
83.461016	0.049996	95.000000	nontarget	5.000000	na
83.511012	0.049996	95.000000	nontarget	6.000000	na
83.561008	0.049999	95.000000	nontarget	7.000000	na
83.611007	0.049998	95.000000	nontarget	8.000000	na
83.661005	0.049996	95.000000	nontarget	9.000000	na
83.711001	0.049998	95.000000	nontarget	10.000000	na
83.760998	0.049997	95.000000	nontarget	11.000000	na
83.810995	0.049997	95.000000	nontarget	12.000000	na
83.860992	0.049998	95.000000	nontarget	13.000000	83.893342
83.910990	0.049995	95.000000	nontarget	14.000000	na
83.960985	0.050001	95.000000	nontarget	15.000000	na
84.010986	0.049988	95.000000	nontarget	16.000000	na
84.060974	0.050001	96.000000	nontarget	1.000000	na
84.110975	0.049998	96.000000	nontarget	2.000000	na
84.160974	0.049996	96.000000	nontarget	3.000000	na
84.210970	0.049997	96.000000	nontarget	4.000000	na
84.260967	0.049996	96.000000	nontarget	5.000000	na
84.310963	0.049998	96.000000	nontarget	6.000000	na
84.360960	0.049998	96.000000	nontarget	7.000000	na
84.410958	0.049997	96.000000	nontarget	8.000000	na
84.460955	0.049998	96.000000	nontarget	9.000000	na
84.510953	0.049995	96.000000	nontarget	10.000000	na
84.560948	0.049997	96.000000	nontarget	11.000000	na
84.610945	0.049998	96.000000	nontarget	12.000000	na
84.660943	0.049996	96.000000	nontarget	13.000000	84.661670
84.710939	0.049997	96.000000	nontarget	14.000000	na
84.760936	0.049995	96.000000	nontarget	15.000000	na
84.810931	0.050000	96.000000	nontarget	16.000000	na
84.860931	0.049997	97.000000	nontarget	1.000000	na
84.910928	0.049996	97.000000	nontarget	2.000000	na
84.960924	0.050001	97.000000	nontarget	3.000000	na
85.010925	0.049995	97.000000	nontarget	4.000000	na
85.060920	0.049996	97.000000	nontarget	5.000000	na
85.110915	0.049998	97.000000	nontarget	6.000000	na
85.160913	0.049995	97.000000	nontarget	7.000000	na
85.210908	0.049998	97.000000	nontarget	8.000000	na
85.260906	0.049997	97.000000	nontarget	9.000000	na
85.310903	0.049997	97.000000	nontarget	10.000000	na
85.360899	0.049998	97.000000	nontarget	11.000000	na
85.410898	0.049997	97.000000	nontarget	12.000000	na
85.460894	0.050039	97.000000	nontarget	13.000000	85.465337
85.510933	0.049953	97.000000	nontarget	14.000000	na
85.560886	0.050000	97.000000	nontarget	15.000000	na
85.610886	0.049996	97.000000	nontarget	16.000000	na
85.660882	0.049996	98.000000	nontarget	1.000000	na
85.710878	0.049998	98.000000	nontarget	2.000000	na
85.760876	0.049996	98.000000	nontarget	3.000000	na
85.810872	0.049996	98.000000	nontarget	4.000000	na
85.860868	0.049998	98.000000	nontarget	5.000000	na
85.910866	0.049998	98.000000	nontarget	6.000000	na
85.960863	0.050005	98.000000	nontarget	7.000000	na
86.010869	0.049987	98.000000	nontarget	8.000000	na
86.060856	0.049999	98.000000	nontarget	9.000000	86.069142
86.110855	0.049996	98.000000	nontarget	10.000000	na
86.160851	0.049999	98.000000	nontarget	11.000000	na
86.210850	0.049995	98.000000	nontarget	12.000000	na
86.260845	0.049998	98.000000	nontarget	13.000000	na
86.310842	0.049996	98.000000	nontarget	14.000000	na
86.360838	0.049998	98.000000	nontarget	15.000000	na
86.410836	0.049998	98.000000	nontarget	16.000000	na
86.460834	0.050005	99.000000	nontarget	1.000000	na
86.510839	0.049986	99.000000	nontarget	2.000000	na
86.560825	0.049998	99.000000	nontarget	3.000000	na
86.610823	0.049998	99.000000	nontarget	4.000000	na
86.660821	0.049996	99.000000	nontarget	5.000000	na
86.710817	0.049997	99.000000	nontarget	6.000000	86.722144
86.760814	0.049997	99.000000	nontarget	7.000000	na
86.810811	0.050001	99.000000	nontarget	8.000000	na
86.860811	0.049994	99.000000	nontarget	9.000000	na
86.910805	0.049996	99.000000	nontarget	10.000000	na
86.960802	0.050001	99.000000	nontarget	11.000000	na
87.010802	0.049995	99.000000	nontarget	12.000000	na
87.060797	0.049996	99.000000	nontarget	13.000000	na
87.110793	0.049997	99.000000	nontarget	14.000000	na
87.160790	0.049997	99.000000	nontarget	15.000000	na
87.210786	0.049997	99.000000	nontarget	16.000000	na
87.260783	0.049997	100.000000	nontarget	1.000000	na
87.310780	0.049997	100.000000	nontarget	2.000000	na
87.360777	0.049998	100.000000	nontarget	3.000000	na
87.410775	0.049997	100.000000	nontarget	4.000000	na
87.460771	0.049997	100.000000	nontarget	5.000000	87.482206
87.510768	0.049996	100.000000	nontarget	6.000000	na
87.560764	0.049997	100.000000	nontarget	7.000000	na
87.610762	0.049997	100.000000	nontarget	8.000000	na
87.660758	0.049998	100.000000	nontarget	9.000000	na
87.710756	0.049996	100.000000	nontarget	10.000000	na
87.760752	0.049997	100.000000	nontarget	11.000000	na
87.810749	0.050000	100.000000	nontarget	12.000000	na
87.860749	0.049996	100.000000	nontarget	13.000000	na
87.910746	0.049995	100.000000	nontarget	14.000000	na
87.960740	0.050001	100.000000	nontarget	15.000000	na
88.010741	0.049993	100.000000	nontarget	16.000000	na
88.060734	0.049998	101.000000	target	1.000000	na
88.110733	0.049995	101.000000	target	2.000000	na
88.160728	0.049999	101.000000	target	3.000000	na
88.210727	0.049996	101.000000	target	4.000000	na
88.260723	0.049997	101.000000	target	5.000000	na
88.310719	0.049996	101.000000	target	6.000000	na
88.360716	0.049996	101.000000	target	7.000000	na
88.410712	0.049999	101.000000	target	8.000000	na
88.460711	0.049998	101.000000	target	9.000000	na
88.510708	0.049995	101.000000	target	10.000000	na
88.560703	0.049998	101.000000	target	11.000000	na
88.610701	0.050000	101.000000	target	12.000000	na
88.660701	0.049995	101.000000	target	13.000000	88.661394
88.710695	0.049997	101.000000	target	14.000000	na
88.760692	0.049997	101.000000	target	15.000000	na
88.810689	0.049996	101.000000	target	16.000000	na
88.860685	0.049996	102.000000	nontarget	1.000000	na
88.910681	0.049999	102.000000	nontarget	2.000000	na
88.960680	0.050004	102.000000	nontarget	3.000000	na
89.010683	0.049991	102.000000	nontarget	4.000000	na
89.060675	0.049996	102.000000	nontarget	5.000000	na
89.110671	0.049998	102.000000	nontarget	6.000000	na
89.160669	0.049995	102.000000	nontarget	7.000000	na
89.210664	0.049996	102.000000	nontarget	8.000000	na
89.260660	0.050000	102.000000	nontarget	9.000000	na
89.310659	0.050002	102.000000	nontarget	10.000000	na
89.360662	0.050009	102.000000	nontarget	11.000000	na
89.410671	0.049989	102.000000	nontarget	12.000000	na
89.460660	0.050014	102.000000	nontarget	13.000000	89.475156
89.510675	0.050005	102.000000	nontarget	14.000000	na
89.560680	0.049985	102.000000	nontarget	15.000000	na
89.610665	0.049988	102.000000	nontarget	16.000000	na
89.660652	0.050002	103.000000	nontarget	1.000000	na
89.710654	0.049978	103.000000	nontarget	2.000000	na
89.760632	0.050003	103.000000	nontarget	3.000000	na
89.810635	0.050003	103.000000	nontarget	4.000000	na
89.860639	0.049993	103.000000	nontarget	5.000000	na
89.910632	0.049998	103.000000	nontarget	6.000000	na
89.960629	0.049996	103.000000	nontarget	7.000000	na
90.010625	0.049994	103.000000	nontarget	8.000000	na
90.060619	0.049991	103.000000	nontarget	9.000000	na
90.110611	0.049991	103.000000	nontarget	10.000000	na
90.160601	0.050002	103.000000	nontarget	11.000000	na
90.210603	0.049998	103.000000	nontarget	12.000000	na
90.260601	0.050001	103.000000	nontarget	13.000000	na
90.310602	0.049996	103.000000	nontarget	14.000000	na
90.360598	0.049991	103.000000	nontarget	15.000000	na
90.410589	0.049992	103.000000	nontarget	16.000000	na
90.460581	0.049998	104.000000	nontarget	1.000000	90.461361
90.510579	0.050003	104.000000	nontarget	2.000000	na
90.560582	0.049998	104.000000	nontarget	3.000000	na
90.610580	0.049994	104.000000	nontarget	4.000000	na
90.660574	0.049998	104.000000	nontarget	5.000000	na
90.710573	0.049998	104.000000	nontarget	6.000000	na
90.760571	0.049995	104.000000	nontarget	7.000000	na
90.810566	0.049996	104.000000	nontarget	8.000000	na
90.860563	0.049997	104.000000	nontarget	9.000000	na
90.910560	0.049998	104.000000	nontarget	10.000000	na
90.960557	0.049991	104.000000	nontarget	11.000000	na
91.010548	0.050005	104.000000	nontarget	12.000000	na
91.060554	0.049995	104.000000	nontarget	13.000000	na
91.110549	0.049997	104.000000	nontarget	14.000000	na
91.160546	0.049996	104.000000	nontarget	15.000000	na
91.210542	0.049997	104.000000	nontarget	16.000000	na
91.260539	0.049999	105.000000	nontarget	1.000000	na
91.310538	0.049998	105.000000	nontarget	2.000000	na
91.360536	0.049994	105.000000	nontarget	3.000000	91.361258
91.410530	0.049998	105.000000	nontarget	4.000000	na
91.460528	0.049997	105.000000	nontarget	5.000000	na
91.510524	0.049998	105.000000	nontarget	6.000000	na
91.560523	0.049996	105.000000	nontarget	7.000000	na
91.610519	0.049997	105.000000	nontarget	8.000000	na
91.660515	0.049996	105.000000	nontarget	9.000000	na
91.710512	0.049998	105.000000	nontarget	10.000000	na
91.760509	0.049997	105.000000	nontarget	11.000000	na
91.810506	0.049996	105.000000	nontarget	12.000000	na
91.860502	0.049998	105.000000	nontarget	13.000000	na
91.910500	0.049995	105.000000	nontarget	14.000000	na
91.960495	0.050002	105.000000	nontarget	15.000000	na
92.010497	0.049995	105.000000	nontarget	16.000000	92.038229
92.060492	0.049996	106.000000	nontarget	1.000000	92.061201
92.110488	0.049995	106.000000	nontarget	2.000000	na
92.160483	0.049999	106.000000	nontarget	3.000000	na
92.210482	0.049997	106.000000	nontarget	4.000000	na
92.260479	0.049999	106.000000	nontarget	5.000000	na
92.310478	0.049993	106.000000	nontarget	6.000000	na
92.360471	0.049995	106.000000	nontarget	7.000000	na
92.410466	0.050000	106.000000	nontarget	8.000000	na
92.460466	0.049997	106.000000	nontarget	9.000000	na
92.510463	0.049997	106.000000	nontarget	10.000000	na
92.560460	0.049996	106.000000	nontarget	11.000000	na
92.610456	0.049998	106.000000	nontarget	12.000000	na
92.660454	0.049996	106.000000	nontarget	13.000000	na
92.710450	0.049999	106.000000	nontarget	14.000000	na
92.760449	0.049996	106.000000	nontarget	15.000000	na
92.810445	0.049997	106.000000	nontarget	16.000000	92.811164
92.860442	0.049997	107.000000	nontarget	1.000000	92.861162
92.910439	0.050000	107.000000	nontarget	2.000000	na
92.960438	0.049996	107.000000	nontarget	3.000000	na
93.010434	0.049997	107.000000	nontarget	4.000000	na
93.060431	0.049997	107.000000	nontarget	5.000000	na
93.110428	0.049996	107.000000	nontarget	6.000000	na
93.160424	0.049995	107.000000	nontarget	7.000000	na
93.210420	0.049998	107.000000	nontarget	8.000000	na
93.260418	0.049997	107.000000	nontarget	9.000000	na
93.310414	0.049998	107.000000	nontarget	10.000000	na
93.360412	0.049998	107.000000	nontarget	11.000000	na
93.410410	0.049996	107.000000	nontarget	12.000000	93.411140
93.460406	0.049996	107.000000	nontarget	13.000000	na
93.510402	0.049997	107.000000	nontarget	14.000000	na
93.560399	0.049997	107.000000	nontarget	15.000000	na
93.610396	0.049997	107.000000	nontarget	16.000000	na
93.660393	0.049996	108.000000	nontarget	1.000000	na
93.710389	0.049997	108.000000	nontarget	2.000000	na
93.760386	0.049999	108.000000	nontarget	3.000000	na
93.810385	0.049995	108.000000	nontarget	4.000000	na
93.860380	0.049997	108.000000	nontarget	5.000000	na
93.910377	0.049998	108.000000	nontarget	6.000000	na
93.960375	0.049993	108.000000	nontarget	7.000000	na
94.010368	0.050001	108.000000	nontarget	8.000000	na
94.060369	0.049997	108.000000	nontarget	9.000000	na
94.110365	0.050001	108.000000	nontarget	10.000000	na
94.160367	0.049993	108.000000	nontarget	11.000000	na
94.210359	0.049996	108.000000	nontarget	12.000000	na
94.260356	0.049997	108.000000	nontarget	13.000000	na
94.310353	0.049998	108.000000	nontarget	14.000000	94.313164
94.360351	0.049990	108.000000	nontarget	15.000000	na
94.410341	0.050004	108.000000	nontarget	16.000000	na
94.460345	0.049997	109.000000	nontarget	1.000000	na
94.510341	0.049994	109.000000	nontarget	2.000000	na
94.560335	0.049997	109.000000	nontarget	3.000000	na
94.610332	0.050001	109.000000	nontarget	4.000000	na
94.660333	0.049996	109.000000	nontarget	5.000000	na
94.710329	0.049996	109.000000	nontarget	6.000000	na
94.760325	0.049998	109.000000	nontarget	7.000000	na
94.810322	0.049997	109.000000	nontarget	8.000000	na
94.860319	0.049997	109.000000	nontarget	9.000000	na
94.910316	0.049996	109.000000	nontarget	10.000000	94.939191
94.960312	0.050006	109.000000	nontarget	11.000000	na
95.010318	0.049990	109.000000	nontarget	12.000000	na
95.060308	0.049997	109.000000	nontarget	13.000000	na
95.110304	0.049995	109.000000	nontarget	14.000000	na
95.160299	0.049999	109.000000	nontarget	15.000000	na
95.210298	0.049996	109.000000	nontarget	16.000000	na
95.260294	0.049998	110.000000	target	1.000000	na
95.310292	0.049997	110.000000	target	2.000000	na
95.360288	0.049998	110.000000	target	3.000000	na
95.410286	0.049998	110.000000	target	4.000000	na
95.460284	0.049997	110.000000	target	5.000000	na
95.510281	0.049996	110.000000	target	6.000000	na
95.560277	0.049995	110.000000	target	7.000000	na
95.610273	0.049997	110.000000	target	8.000000	na
95.660270	0.049997	110.000000	target	9.000000	na
95.710267	0.049997	110.000000	target	10.000000	na
95.760264	0.049997	110.000000	target	11.000000	95.773214
95.810261	0.049997	110.000000	target	12.000000	na
95.860258	0.049998	110.000000	target	13.000000	na
95.910256	0.049997	110.000000	target	14.000000	na
95.960252	0.050024	110.000000	target	15.000000	na
96.010276	0.049970	110.000000	target	16.000000	na
96.060246	0.049997	111.000000	nontarget	1.000000	na
96.110243	0.049996	111.000000	nontarget	2.000000	na
96.160239	0.049997	111.000000	nontarget	3.000000	na
96.210236	0.049997	111.000000	nontarget	4.000000	na
96.260233	0.049998	111.000000	nontarget	5.000000	na
96.310231	0.049996	111.000000	nontarget	6.000000	na
96.360227	0.049997	111.000000	nontarget	7.000000	na
96.410224	0.049999	111.000000	nontarget	8.000000	na
96.460223	0.049995	111.000000	nontarget	9.000000	na
96.510218	0.049997	111.000000	nontarget	10.000000	na
96.560215	0.049997	111.000000	nontarget	11.000000	na
96.610212	0.049997	111.000000	nontarget	12.000000	na
96.660209	0.049997	111.000000	nontarget	13.000000	na
96.710205	0.049999	111.000000	nontarget	14.000000	96.723153
96.760204	0.049996	111.000000	nontarget	15.000000	na
96.810200	0.049997	111.000000	nontarget	16.000000	na
96.860197	0.049998	112.000000	nontarget	1.000000	96.860911
96.910195	0.049997	112.000000	nontarget	2.000000	na
96.960192	0.050004	112.000000	nontarget	3.000000	na
97.010196	0.049989	112.000000	nontarget	4.000000	na
97.060185	0.049997	112.000000	nontarget	5.000000	na
97.110182	0.049998	112.000000	nontarget	6.000000	na
97.160181	0.049995	112.000000	nontarget	7.000000	na
97.210176	0.049996	112.000000	nontarget	8.000000	na
97.260172	0.049998	112.000000	nontarget	9.000000	na
97.310170	0.049997	112.000000	nontarget	10.000000	na
97.360167	0.049995	112.000000	nontarget	11.000000	na
97.410162	0.049999	112.000000	nontarget	12.000000	na
97.460162	0.049990	112.000000	nontarget	13.000000	na
97.510152	0.050003	112.000000	nontarget	14.000000	97.515864
97.560155	0.049997	112.000000	nontarget	15.000000	na
97.610152	0.049997	112.000000	nontarget	16.000000	na
97.660149	0.049997	113.000000	nontarget	1.000000	na
97.710146	0.049996	113.000000	nontarget	2.000000	na
97.760142	0.049997	113.000000	nontarget	3.000000	na
97.810139	0.049997	113.000000	nontarget	4.000000	na
97.860136	0.049996	113.000000	nontarget	5.000000	na
97.910132	0.049998	113.000000	nontarget	6.000000	na
97.960130	0.050031	113.000000	nontarget	7.000000	na
98.010161	0.049963	113.000000	nontarget	8.000000	na
98.060124	0.049997	113.000000	nontarget	9.000000	na
98.110121	0.049997	113.000000	nontarget	10.000000	na
98.160118	0.049997	113.000000	nontarget	11.000000	na
98.210114	0.049996	113.000000	nontarget	12.000000	na
98.260110	0.049998	113.000000	nontarget	13.000000	na
98.310109	0.049996	113.000000	nontarget	14.000000	na
98.360105	0.050021	113.000000	nontarget	15.000000	98.366375
98.410126	0.049975	113.000000	nontarget	16.000000	na
98.460101	0.049997	114.000000	nontarget	1.000000	98.460800
98.510098	0.049994	114.000000	nontarget	2.000000	na
98.560092	0.049998	114.000000	nontarget	3.000000	na
98.610090	0.049997	114.000000	nontarget	4.000000	na
98.660087	0.050005	114.000000	nontarget	5.000000	na
98.710092	0.050011	114.000000	nontarget	6.000000	na
98.760103	0.049976	114.000000	nontarget	7.000000	na
98.810079	0.050014	114.000000	nontarget	8.000000	na
98.860093	0.049988	114.000000	nontarget	9.000000	na
98.910081	0.050020	114.000000	nontarget	10.000000	na
98.960102	0.050027	114.000000	nontarget	11.000000	na
99.010129	0.049976	114.000000	nontarget	12.000000	na
99.060105	0.050002	114.000000	nontarget	13.000000	99.060817
99.110106	0.050000	114.000000	nontarget	14.000000	na
99.160106	0.049981	114.000000	nontarget	15.000000	na
99.210087	0.049976	114.000000	nontarget	16.000000	na
99.260063	0.050001	115.000000	nontarget	1.000000	na
99.310064	0.050002	115.000000	nontarget	2.000000	na
99.360066	0.049988	115.000000	nontarget	3.000000	na
99.410054	0.049994	115.000000	nontarget	4.000000	na
99.460049	0.049990	115.000000	nontarget	5.000000	na
99.510039	0.049992	115.000000	nontarget	6.000000	na
99.560031	0.050003	115.000000	nontarget	7.000000	na
99.610034	0.049986	115.000000	nontarget	8.000000	na
99.660020	0.049999	115.000000	nontarget	9.000000	na
99.710019	0.050014	115.000000	nontarget	10.000000	na
99.760033	0.049989	115.000000	nontarget	11.000000	na
99.810022	0.049996	115.000000	nontarget	12.000000	na
99.860018	0.049999	115.000000	nontarget	13.000000	na
99.910017	0.049984	115.000000	nontarget	14.000000	na
99.960001	0.049997	115.000000	nontarget	15.000000	99.975165
100.009998	0.050003	115.000000	nontarget	16.000000	na
100.060001	0.049997	116.000000	nontarget	1.000000	100.060740
100.109998	0.049998	116.000000	nontarget	2.000000	na
100.159996	0.049998	116.000000	nontarget	3.000000	na
100.209993	0.049996	116.000000	nontarget	4.000000	na
100.259989	0.049998	116.000000	nontarget	5.000000	na
100.309986	0.049997	116.000000	nontarget	6.000000	na
100.359984	0.049998	116.000000	nontarget	7.000000	na
100.409981	0.049996	116.000000	nontarget	8.000000	na
100.459977	0.049997	116.000000	nontarget	9.000000	na
100.509974	0.049997	116.000000	nontarget	10.000000	na
100.559971	0.049997	116.000000	nontarget	11.000000	na
100.609968	0.049996	116.000000	nontarget	12.000000	na
100.659964	0.049998	116.000000	nontarget	13.000000	100.677208
100.709962	0.049997	116.000000	nontarget	14.000000	na
100.759959	0.049995	116.000000	nontarget	15.000000	na
100.809954	0.049998	116.000000	nontarget	16.000000	na
100.859952	0.049998	117.000000	nontarget	1.000000	na
100.909950	0.049997	117.000000	nontarget	2.000000	na
100.959947	0.049998	117.000000	nontarget	3.000000	na
101.009945	0.049995	117.000000	nontarget	4.000000	na
101.059940	0.049998	117.000000	nontarget	5.000000	na
101.109938	0.049996	117.000000	nontarget	6.000000	na
101.159934	0.049996	117.000000	nontarget	7.000000	na
101.209930	0.049998	117.000000	nontarget	8.000000	na
101.259928	0.049997	117.000000	nontarget	9.000000	na
101.309925	0.049997	117.000000	nontarget	10.000000	na
101.359922	0.049998	117.000000	nontarget	11.000000	na
101.409919	0.049997	117.000000	nontarget	12.000000	na
101.459916	0.049996	117.000000	nontarget	13.000000	na
101.509912	0.049998	117.000000	nontarget	14.000000	101.528308
101.559909	0.049998	117.000000	nontarget	15.000000	na
101.609907	0.049998	117.000000	nontarget	16.000000	na
101.659905	0.049995	118.000000	nontarget	1.000000	na
101.709900	0.049997	118.000000	nontarget	2.000000	na
101.759897	0.049998	118.000000	nontarget	3.000000	na
101.809894	0.049998	118.000000	nontarget	4.000000	na
101.859892	0.049995	118.000000	nontarget	5.000000	na
101.909888	0.049998	118.000000	nontarget	6.000000	na
101.959886	0.049998	118.000000	nontarget	7.000000	na
102.009884	0.049996	118.000000	nontarget	8.000000	na
102.059880	0.049995	118.000000	nontarget	9.000000	na
102.109875	0.049998	118.000000	nontarget	10.000000	na
102.159873	0.049998	118.000000	nontarget	11.000000	na
102.209870	0.049996	118.000000	nontarget	12.000000	102.238025
102.259866	0.049997	118.000000	nontarget	13.000000	na
102.309863	0.049997	118.000000	nontarget	14.000000	na
102.359860	0.049996	118.000000	nontarget	15.000000	na
102.409856	0.049998	118.000000	nontarget	16.000000	na
102.459854	0.049997	119.000000	nontarget	1.000000	na
102.509851	0.049997	119.000000	nontarget	2.000000	na
102.559849	0.049996	119.000000	nontarget	3.000000	na
102.609844	0.049998	119.000000	nontarget	4.000000	na
102.659842	0.049997	119.000000	nontarget	5.000000	na
102.709840	0.049997	119.000000	nontarget	6.000000	na
102.759836	0.049997	119.000000	nontarget	7.000000	na
102.809833	0.049997	119.000000	nontarget	8.000000	na
102.859830	0.049996	119.000000	nontarget	9.000000	na
102.909826	0.049997	119.000000	nontarget	10.000000	na
102.959823	0.050000	119.000000	nontarget	11.000000	na
103.009823	0.049994	119.000000	nontarget	12.000000	na
103.059817	0.049998	119.000000	nontarget	13.000000	na
103.109815	0.049995	119.000000	nontarget	14.000000	na
103.159811	0.049996	119.000000	nontarget	15.000000	103.193029
103.209807	0.050001	119.000000	nontarget	16.000000	na
103.259808	0.049993	120.000000	target	1.000000	na
103.309801	0.049999	120.000000	target	2.000000	na
103.359800	0.049996	120.000000	target	3.000000	na
103.409796	0.049998	120.000000	target	4.000000	na
103.459793	0.049996	120.000000	target	5.000000	na
103.509789	0.049998	120.000000	target	6.000000	na
103.559787	0.049997	120.000000	target	7.000000	na
103.609784	0.049997	120.000000	target	8.000000	na
103.659781	0.049997	120.000000	target	9.000000	na
103.709778	0.049997	120.000000	target	10.000000	103.738969
103.759775	0.049997	120.000000	target	11.000000	na
103.809772	0.049997	120.000000	target	12.000000	na
103.859768	0.049998	120.000000	target	13.000000	na
103.909767	0.049995	120.000000	target	14.000000	na
103.959762	0.050001	120.000000	target	15.000000	na
104.009762	0.049995	120.000000	target	16.000000	na
104.059757	0.049997	121.000000	nontarget	1.000000	na
104.109754	0.049996	121.000000	nontarget	2.000000	na
104.159750	0.049998	121.000000	nontarget	3.000000	na
104.209748	0.049996	121.000000	nontarget	4.000000	na
104.259744	0.049997	121.000000	nontarget	5.000000	na
104.309741	0.049997	121.000000	nontarget	6.000000	na
104.359738	0.049998	121.000000	nontarget	7.000000	na
104.409736	0.049995	121.000000	nontarget	8.000000	na
104.459731	0.049988	121.000000	nontarget	9.000000	na
104.509719	0.050007	121.000000	nontarget	10.000000	na
104.559726	0.049996	121.000000	nontarget	11.000000	na
