onset	duration	trial_number	trial_type	frame_number	time_of_response
8.053361	0.043193	1.000000	nontarget	1.000000	na
8.096554	0.049352	1.000000	nontarget	2.000000	na
8.145906	0.041847	1.000000	nontarget	3.000000	na
8.187752	0.049665	1.000000	nontarget	4.000000	na
8.237417	0.041662	1.000000	nontarget	5.000000	na
8.279079	0.050988	1.000000	nontarget	6.000000	na
8.330067	0.050013	1.000000	nontarget	7.000000	na
8.380080	0.040141	1.000000	nontarget	8.000000	na
8.420221	0.042427	1.000000	nontarget	9.000000	na
8.462648	0.050612	1.000000	nontarget	10.000000	na
8.513260	0.040193	1.000000	nontarget	11.000000	na
8.553454	0.042355	1.000000	nontarget	12.000000	na
8.595809	0.050991	1.000000	nontarget	13.000000	na
8.646800	0.050005	1.000000	nontarget	14.000000	na
8.696805	0.040735	1.000000	nontarget	15.000000	8.708519
8.737540	0.042677	1.000000	nontarget	16.000000	na
8.780218	0.049917	2.000000	nontarget	1.000000	8.786925
8.830134	0.049838	2.000000	nontarget	2.000000	na
8.879973	0.040379	2.000000	nontarget	3.000000	na
8.920352	0.042354	2.000000	nontarget	4.000000	na
8.962706	0.051131	2.000000	nontarget	5.000000	na
9.013837	0.049436	2.000000	nontarget	6.000000	na
9.063273	0.049776	2.000000	nontarget	7.000000	na
9.113049	0.040210	2.000000	nontarget	8.000000	na
9.153259	0.043489	2.000000	nontarget	9.000000	na
9.196748	0.050036	2.000000	nontarget	10.000000	na
9.246784	0.049303	2.000000	nontarget	11.000000	9.253398
9.296086	0.040870	2.000000	nontarget	12.000000	na
9.336956	0.043341	2.000000	nontarget	13.000000	na
9.380297	0.039572	2.000000	nontarget	14.000000	na
9.419869	0.042768	2.000000	nontarget	15.000000	na
9.462636	0.050167	2.000000	nontarget	16.000000	na
9.512803	0.041007	3.000000	nontarget	1.000000	na
9.553810	0.042070	3.000000	nontarget	2.000000	na
9.595880	0.050683	3.000000	nontarget	3.000000	na
9.646562	0.040284	3.000000	nontarget	4.000000	na
9.686846	0.043007	3.000000	nontarget	5.000000	na
9.729853	0.049277	3.000000	nontarget	6.000000	na
9.779130	0.051090	3.000000	nontarget	7.000000	9.786733
9.830220	0.040015	3.000000	nontarget	8.000000	na
9.870235	0.042395	3.000000	nontarget	9.000000	na
9.912630	0.050640	3.000000	nontarget	10.000000	na
9.963270	0.040547	3.000000	nontarget	11.000000	na
10.003816	0.041923	3.000000	nontarget	12.000000	na
10.045739	0.040879	3.000000	nontarget	13.000000	na
10.086618	0.043538	3.000000	nontarget	14.000000	na
10.130156	0.040896	3.000000	nontarget	15.000000	na
10.171052	0.049665	3.000000	nontarget	16.000000	na
10.220717	0.041755	4.000000	nontarget	1.000000	na
10.262472	0.041872	4.000000	nontarget	2.000000	na
10.304345	0.041526	4.000000	nontarget	3.000000	10.327211
10.345870	0.041309	4.000000	nontarget	4.000000	na
10.387180	0.042582	4.000000	nontarget	5.000000	na
10.429762	0.050350	4.000000	nontarget	6.000000	na
10.480112	0.050094	4.000000	nontarget	7.000000	na
10.530205	0.049334	4.000000	nontarget	8.000000	na
10.579539	0.040891	4.000000	nontarget	9.000000	na
10.620430	0.042849	4.000000	nontarget	10.000000	na
10.663279	0.049256	4.000000	nontarget	11.000000	na
10.712535	0.041050	4.000000	nontarget	12.000000	na
10.753584	0.042216	4.000000	nontarget	13.000000	na
10.795800	0.041830	4.000000	nontarget	14.000000	na
10.837630	0.049231	4.000000	nontarget	15.000000	na
10.886861	0.042984	4.000000	nontarget	16.000000	10.906375
10.929845	0.050308	5.000000	nontarget	1.000000	10.935823
10.980152	0.049995	5.000000	nontarget	2.000000	na
11.030147	0.050010	5.000000	nontarget	3.000000	na
11.080157	0.049774	5.000000	nontarget	4.000000	na
11.129931	0.040344	5.000000	nontarget	5.000000	na
11.170275	0.042420	5.000000	nontarget	6.000000	na
11.212695	0.050595	5.000000	nontarget	7.000000	na
11.263289	0.039836	5.000000	nontarget	8.000000	na
11.303126	0.043609	5.000000	nontarget	9.000000	na
11.346735	0.048838	5.000000	nontarget	10.000000	na
11.395572	0.042108	5.000000	nontarget	11.000000	na
11.437680	0.042245	5.000000	nontarget	12.000000	na
11.479925	0.040265	5.000000	nontarget	13.000000	na
11.520191	0.043244	5.000000	nontarget	14.000000	na
11.563435	0.048855	5.000000	nontarget	15.000000	na
11.612290	0.040836	5.000000	nontarget	16.000000	na
11.653126	0.043612	6.000000	target	1.000000	na
11.696738	0.039913	6.000000	target	2.000000	na
11.736651	0.042727	6.000000	target	3.000000	na
11.779378	0.050723	6.000000	target	4.000000	na
11.830101	0.049988	6.000000	target	5.000000	na
11.880089	0.040041	6.000000	target	6.000000	na
11.920130	0.042335	6.000000	target	7.000000	na
11.962464	0.050030	6.000000	target	8.000000	na
12.012494	0.050702	6.000000	target	9.000000	na
12.063196	0.040318	6.000000	target	10.000000	12.071589
12.103515	0.043355	6.000000	target	11.000000	na
12.146870	0.049172	6.000000	target	12.000000	na
12.196041	0.050442	6.000000	target	13.000000	na
12.246483	0.050312	6.000000	target	14.000000	na
12.296795	0.049986	6.000000	target	15.000000	na
12.346781	0.050004	6.000000	target	16.000000	na
12.396785	0.049747	7.000000	nontarget	1.000000	na
12.446532	0.050277	7.000000	nontarget	2.000000	na
12.496810	0.050027	7.000000	nontarget	3.000000	na
12.546836	0.049967	7.000000	nontarget	4.000000	na
12.596804	0.049068	7.000000	nontarget	5.000000	na
12.645871	0.041746	7.000000	nontarget	6.000000	na
12.687617	0.042251	7.000000	nontarget	7.000000	na
12.729868	0.040015	7.000000	nontarget	8.000000	na
12.769883	0.042889	7.000000	nontarget	9.000000	12.779087
12.812772	0.040560	7.000000	nontarget	10.000000	na
12.853332	0.042510	7.000000	nontarget	11.000000	na
12.895842	0.050962	7.000000	nontarget	12.000000	na
12.946804	0.051877	7.000000	nontarget	13.000000	na
12.998681	0.047731	7.000000	nontarget	14.000000	na
13.046412	0.040392	7.000000	nontarget	15.000000	na
13.086804	0.042922	7.000000	nontarget	16.000000	na
13.129726	0.039919	8.000000	nontarget	1.000000	na
13.169644	0.043820	8.000000	nontarget	2.000000	na
13.213464	0.039671	8.000000	nontarget	3.000000	na
13.253135	0.043901	8.000000	nontarget	4.000000	na
13.297036	0.039940	8.000000	nontarget	5.000000	na
13.336976	0.042594	8.000000	nontarget	6.000000	na
13.379569	0.039972	8.000000	nontarget	7.000000	na
13.419541	0.050567	8.000000	nontarget	8.000000	13.456740
13.470108	0.042847	8.000000	nontarget	9.000000	na
13.512954	0.040877	8.000000	nontarget	10.000000	na
13.553831	0.042827	8.000000	nontarget	11.000000	na
13.596658	0.049585	8.000000	nontarget	12.000000	na
13.646243	0.050858	8.000000	nontarget	13.000000	na
13.697101	0.049177	8.000000	nontarget	14.000000	na
13.746278	0.040248	8.000000	nontarget	15.000000	na
13.786526	0.042758	8.000000	nontarget	16.000000	na
13.829283	0.050842	9.000000	nontarget	1.000000	na
13.880125	0.049823	9.000000	nontarget	2.000000	na
13.929948	0.050462	9.000000	nontarget	3.000000	na
13.980411	0.050208	9.000000	nontarget	4.000000	na
14.030619	0.048958	9.000000	nontarget	5.000000	na
14.079576	0.050349	9.000000	nontarget	6.000000	14.114582
14.129925	0.050519	9.000000	nontarget	7.000000	na
14.180444	0.049816	9.000000	nontarget	8.000000	na
14.230260	0.050101	9.000000	nontarget	9.000000	na
14.280361	0.049322	9.000000	nontarget	10.000000	na
14.329683	0.050418	9.000000	nontarget	11.000000	na
14.380101	0.049998	9.000000	nontarget	12.000000	na
14.430099	0.049409	9.000000	nontarget	13.000000	na
14.479508	0.040275	9.000000	nontarget	14.000000	na
14.519783	0.043604	9.000000	nontarget	15.000000	na
14.563387	0.039720	9.000000	nontarget	16.000000	na
14.603107	0.044004	10.000000	nontarget	1.000000	na
14.647110	0.049750	10.000000	nontarget	2.000000	na
14.696860	0.040287	10.000000	nontarget	3.000000	14.708181
14.737147	0.043225	10.000000	nontarget	4.000000	na
14.780372	0.039873	10.000000	nontarget	5.000000	na
14.820245	0.042276	10.000000	nontarget	6.000000	na
14.862521	0.051107	10.000000	nontarget	7.000000	na
14.913628	0.050083	10.000000	nontarget	8.000000	na
14.963711	0.049806	10.000000	nontarget	9.000000	na
15.013518	0.050226	10.000000	nontarget	10.000000	na
15.063743	0.049136	10.000000	nontarget	11.000000	na
15.112880	0.050316	10.000000	nontarget	12.000000	na
15.163196	0.050290	10.000000	nontarget	13.000000	na
15.213486	0.049958	10.000000	nontarget	14.000000	na
15.263444	0.050388	10.000000	nontarget	15.000000	na
15.313832	0.039337	10.000000	nontarget	16.000000	15.325394
15.353169	0.043437	11.000000	nontarget	1.000000	15.358479
15.396606	0.039949	11.000000	nontarget	2.000000	na
15.436555	0.043488	11.000000	nontarget	3.000000	na
15.480043	0.050290	11.000000	nontarget	4.000000	na
15.530333	0.049826	11.000000	nontarget	5.000000	na
15.580159	0.050265	11.000000	nontarget	6.000000	na
15.630425	0.049693	11.000000	nontarget	7.000000	na
15.680118	0.050262	11.000000	nontarget	8.000000	na
15.730380	0.049250	11.000000	nontarget	9.000000	na
15.779630	0.050416	11.000000	nontarget	10.000000	na
15.830047	0.050055	11.000000	nontarget	11.000000	na
15.880101	0.049878	11.000000	nontarget	12.000000	na
15.929979	0.039948	11.000000	nontarget	13.000000	15.936736
15.969927	0.043766	11.000000	nontarget	14.000000	na
16.013694	0.040137	11.000000	nontarget	15.000000	na
16.053831	0.043110	11.000000	nontarget	16.000000	na
16.096941	0.049933	12.000000	nontarget	1.000000	na
16.146874	0.049514	12.000000	nontarget	2.000000	na
16.196388	0.049899	12.000000	nontarget	3.000000	na
16.246287	0.040498	12.000000	nontarget	4.000000	na
16.286785	0.043613	12.000000	nontarget	5.000000	na
16.330398	0.039671	12.000000	nontarget	6.000000	na
16.370069	0.042390	12.000000	nontarget	7.000000	na
16.412459	0.050822	12.000000	nontarget	8.000000	na
16.463281	0.050569	12.000000	nontarget	9.000000	na
16.513849	0.040144	12.000000	nontarget	10.000000	na
16.553993	0.042497	12.000000	nontarget	11.000000	na
16.596491	0.039752	12.000000	nontarget	12.000000	na
16.636243	0.043158	12.000000	nontarget	13.000000	na
16.679401	0.041093	12.000000	nontarget	14.000000	na
16.720494	0.042998	12.000000	nontarget	15.000000	16.735760
16.763492	0.039593	12.000000	nontarget	16.000000	na
16.803085	0.043580	13.000000	nontarget	1.000000	16.808202
16.846665	0.050039	13.000000	nontarget	2.000000	na
16.896704	0.039858	13.000000	nontarget	3.000000	na
16.936562	0.043881	13.000000	nontarget	4.000000	na
16.980443	0.049707	13.000000	nontarget	5.000000	na
17.030150	0.050294	13.000000	nontarget	6.000000	na
17.080444	0.049524	13.000000	nontarget	7.000000	na
17.129969	0.050547	13.000000	nontarget	8.000000	na
17.180515	0.049640	13.000000	nontarget	9.000000	na
17.230155	0.050184	13.000000	nontarget	10.000000	na
17.280339	0.049768	13.000000	nontarget	11.000000	na
17.330107	0.049985	13.000000	nontarget	12.000000	na
17.380092	0.050005	13.000000	nontarget	13.000000	na
17.430097	0.049684	13.000000	nontarget	14.000000	na
17.479781	0.050319	13.000000	nontarget	15.000000	17.486385
17.530100	0.050380	13.000000	nontarget	16.000000	na
17.580480	0.049028	14.000000	nontarget	1.000000	17.587163
17.629508	0.040495	14.000000	nontarget	2.000000	na
17.670004	0.042585	14.000000	nontarget	3.000000	na
17.712588	0.051199	14.000000	nontarget	4.000000	na
17.763787	0.049663	14.000000	nontarget	5.000000	na
17.813450	0.049445	14.000000	nontarget	6.000000	na
17.862895	0.039966	14.000000	nontarget	7.000000	na
17.902861	0.043290	14.000000	nontarget	8.000000	na
17.946151	0.052910	14.000000	nontarget	9.000000	na
17.999061	0.047509	14.000000	nontarget	10.000000	na
18.046570	0.049686	14.000000	nontarget	11.000000	na
18.096257	0.050140	14.000000	nontarget	12.000000	na
18.146397	0.050415	14.000000	nontarget	13.000000	na
18.196812	0.040259	14.000000	nontarget	14.000000	na
18.237071	0.042050	14.000000	nontarget	15.000000	18.242774
18.279121	0.051059	14.000000	nontarget	16.000000	na
18.330179	0.050148	15.000000	nontarget	1.000000	18.336809
18.380328	0.048818	15.000000	nontarget	2.000000	na
18.429146	0.050741	15.000000	nontarget	3.000000	na
18.479887	0.040182	15.000000	nontarget	4.000000	na
18.520069	0.042678	15.000000	nontarget	5.000000	na
18.562747	0.050079	15.000000	nontarget	6.000000	na
18.612825	0.039967	15.000000	nontarget	7.000000	na
18.652792	0.043952	15.000000	nontarget	8.000000	na
18.696745	0.040037	15.000000	nontarget	9.000000	na
18.736782	0.043189	15.000000	nontarget	10.000000	na
18.779971	0.039951	15.000000	nontarget	11.000000	na
18.819922	0.043350	15.000000	nontarget	12.000000	na
18.863272	0.050348	15.000000	nontarget	13.000000	na
18.913619	0.050028	15.000000	nontarget	14.000000	na
18.963647	0.048836	15.000000	nontarget	15.000000	na
19.012483	0.051705	15.000000	nontarget	16.000000	na
19.064187	0.049532	16.000000	nontarget	1.000000	19.070555
19.113719	0.049902	16.000000	nontarget	2.000000	na
19.163622	0.049825	16.000000	nontarget	3.000000	na
19.213447	0.049861	16.000000	nontarget	4.000000	na
19.263308	0.050150	16.000000	nontarget	5.000000	na
19.313457	0.050242	16.000000	nontarget	6.000000	na
19.363699	0.049740	16.000000	nontarget	7.000000	na
19.413439	0.049818	16.000000	nontarget	8.000000	na
19.463258	0.049965	16.000000	nontarget	9.000000	na
19.513223	0.050216	16.000000	nontarget	10.000000	na
19.563439	0.050007	16.000000	nontarget	11.000000	na
19.613446	0.040260	16.000000	nontarget	12.000000	na
19.653706	0.042830	16.000000	nontarget	13.000000	na
19.696536	0.040241	16.000000	nontarget	14.000000	na
19.736777	0.043202	16.000000	nontarget	15.000000	19.753874
19.779979	0.050390	16.000000	nontarget	16.000000	na
19.830369	0.049945	17.000000	nontarget	1.000000	19.836992
19.880313	0.049985	17.000000	nontarget	2.000000	na
19.930298	0.049128	17.000000	nontarget	3.000000	na
19.979426	0.040199	17.000000	nontarget	4.000000	na
20.019625	0.042963	17.000000	nontarget	5.000000	na
20.062588	0.040724	17.000000	nontarget	6.000000	na
20.103312	0.043710	17.000000	nontarget	7.000000	na
20.147022	0.049992	17.000000	nontarget	8.000000	na
20.197014	0.049785	17.000000	nontarget	9.000000	na
20.246799	0.050203	17.000000	nontarget	10.000000	na
20.297002	0.049218	17.000000	nontarget	11.000000	na
20.346220	0.050575	17.000000	nontarget	12.000000	na
20.396795	0.049673	17.000000	nontarget	13.000000	na
20.446468	0.040329	17.000000	nontarget	14.000000	na
20.486797	0.043265	17.000000	nontarget	15.000000	na
20.530063	0.039263	17.000000	nontarget	16.000000	na
20.569325	0.127304	18.000000	nontarget	1.000000	20.575045
20.696629	0.040787	18.000000	nontarget	2.000000	na
20.737415	0.042926	18.000000	nontarget	3.000000	na
20.780342	0.039312	18.000000	nontarget	4.000000	na
20.819654	0.043583	18.000000	nontarget	5.000000	na
20.863236	0.050259	18.000000	nontarget	6.000000	na
20.913495	0.049937	18.000000	nontarget	7.000000	na
20.963432	0.050409	18.000000	nontarget	8.000000	na
21.013841	0.049886	18.000000	nontarget	9.000000	na
21.063727	0.049760	18.000000	nontarget	10.000000	na
21.113487	0.050144	18.000000	nontarget	11.000000	na
21.163631	0.049823	18.000000	nontarget	12.000000	na
21.213454	0.049985	18.000000	nontarget	13.000000	na
21.263439	0.049888	18.000000	nontarget	14.000000	na
21.313327	0.039908	18.000000	nontarget	15.000000	na
21.353235	0.042792	18.000000	nontarget	16.000000	na
21.396027	0.050288	19.000000	target	1.000000	na
21.446315	0.050062	19.000000	target	2.000000	na
21.496377	0.040233	19.000000	target	3.000000	na
21.536610	0.042667	19.000000	target	4.000000	na
21.579278	0.050819	19.000000	target	5.000000	na
21.630096	0.049996	19.000000	target	6.000000	na
21.680092	0.050242	19.000000	target	7.000000	na
21.730334	0.049769	19.000000	target	8.000000	na
21.780103	0.049995	19.000000	target	9.000000	na
21.830098	0.040093	19.000000	target	10.000000	na
21.870190	0.042575	19.000000	target	11.000000	na
21.912765	0.040076	19.000000	target	12.000000	na
21.952841	0.046397	19.000000	target	13.000000	na
21.999238	0.047743	19.000000	target	14.000000	na
22.046981	0.049928	19.000000	target	15.000000	na
22.096910	0.049011	19.000000	target	16.000000	na
22.145921	0.040499	20.000000	nontarget	1.000000	22.154199
22.186420	0.043551	20.000000	nontarget	2.000000	na
22.229970	0.050392	20.000000	nontarget	3.000000	na
22.280362	0.049628	20.000000	nontarget	4.000000	na
22.329990	0.049656	20.000000	nontarget	5.000000	na
22.379646	0.040570	20.000000	nontarget	6.000000	na
22.420216	0.043037	20.000000	nontarget	7.000000	na
22.463252	0.050192	20.000000	nontarget	8.000000	na
22.513444	0.049845	20.000000	nontarget	9.000000	na
22.563289	0.050157	20.000000	nontarget	10.000000	na
22.613446	0.049439	20.000000	nontarget	11.000000	na
22.662885	0.050617	20.000000	nontarget	12.000000	na
22.713502	0.049251	20.000000	nontarget	13.000000	na
22.762753	0.041192	20.000000	nontarget	14.000000	na
22.803945	0.041713	20.000000	nontarget	15.000000	na
22.845657	0.041558	20.000000	nontarget	16.000000	22.851993
22.887216	0.042853	21.000000	nontarget	1.000000	22.893569
22.930069	0.050254	21.000000	nontarget	2.000000	na
22.980322	0.039877	21.000000	nontarget	3.000000	na
23.020199	0.042709	21.000000	nontarget	4.000000	na
23.062908	0.040261	21.000000	nontarget	5.000000	na
23.103169	0.043761	21.000000	nontarget	6.000000	na
23.146930	0.049830	21.000000	nontarget	7.000000	na
23.196760	0.050021	21.000000	nontarget	8.000000	na
23.246781	0.050375	21.000000	nontarget	9.000000	na
23.297155	0.049900	21.000000	nontarget	10.000000	na
23.347055	0.049572	21.000000	nontarget	11.000000	na
23.396627	0.049775	21.000000	nontarget	12.000000	na
23.446402	0.050831	21.000000	nontarget	13.000000	na
23.497233	0.049808	21.000000	nontarget	14.000000	na
23.547040	0.049969	21.000000	nontarget	15.000000	na
23.597009	0.050057	21.000000	nontarget	16.000000	23.604092
23.647066	0.049777	22.000000	nontarget	1.000000	23.653694
23.696843	0.049405	22.000000	nontarget	2.000000	na
23.746248	0.050044	22.000000	nontarget	3.000000	na
23.796292	0.040494	22.000000	nontarget	4.000000	na
23.836786	0.042931	22.000000	nontarget	5.000000	na
23.879717	0.050403	22.000000	nontarget	6.000000	na
23.930120	0.050325	22.000000	nontarget	7.000000	na
23.980445	0.039415	22.000000	nontarget	8.000000	na
24.019860	0.043628	22.000000	nontarget	9.000000	na
24.063488	0.050462	22.000000	nontarget	10.000000	na
24.113950	0.049502	22.000000	nontarget	11.000000	na
24.163452	0.049581	22.000000	nontarget	12.000000	na
24.213033	0.040593	22.000000	nontarget	13.000000	na
24.253627	0.043550	22.000000	nontarget	14.000000	na
24.297176	0.049090	22.000000	nontarget	15.000000	na
24.346266	0.050538	22.000000	nontarget	16.000000	na
24.396804	0.049924	23.000000	nontarget	1.000000	na
24.446728	0.049596	23.000000	nontarget	2.000000	na
24.496325	0.049974	23.000000	nontarget	3.000000	24.511723
24.546299	0.050538	23.000000	nontarget	4.000000	na
24.596836	0.050266	23.000000	nontarget	5.000000	na
24.647103	0.049703	23.000000	nontarget	6.000000	na
24.696806	0.050098	23.000000	nontarget	7.000000	na
24.746904	0.049904	23.000000	nontarget	8.000000	na
24.796808	0.049988	23.000000	nontarget	9.000000	na
24.846796	0.050150	23.000000	nontarget	10.000000	na
24.896946	0.049868	23.000000	nontarget	11.000000	na
24.946814	0.052077	23.000000	nontarget	12.000000	na
24.998891	0.048300	23.000000	nontarget	13.000000	na
25.047191	0.049794	23.000000	nontarget	14.000000	na
25.096985	0.050235	23.000000	nontarget	15.000000	na
25.147220	0.049452	23.000000	nontarget	16.000000	na
25.196672	0.050001	24.000000	nontarget	1.000000	na
25.246673	0.050418	24.000000	nontarget	2.000000	25.266079
25.297091	0.049757	24.000000	nontarget	3.000000	na
25.346848	0.039961	24.000000	nontarget	4.000000	na
25.386809	0.043649	24.000000	nontarget	5.000000	na
25.430458	0.049888	24.000000	nontarget	6.000000	na
25.480346	0.049600	24.000000	nontarget	7.000000	na
25.529945	0.049591	24.000000	nontarget	8.000000	na
25.579537	0.040354	24.000000	nontarget	9.000000	na
25.619891	0.043468	24.000000	nontarget	10.000000	na
25.663359	0.040049	24.000000	nontarget	11.000000	na
25.703408	0.043392	24.000000	nontarget	12.000000	na
25.746800	0.039489	24.000000	nontarget	13.000000	na
25.786289	0.043739	24.000000	nontarget	14.000000	na
25.830028	0.039709	24.000000	nontarget	15.000000	na
25.869737	0.043684	24.000000	nontarget	16.000000	na
25.913421	0.039653	25.000000	nontarget	1.000000	na
25.953074	0.047122	25.000000	nontarget	2.000000	na
26.000196	0.046793	25.000000	nontarget	3.000000	na
26.046989	0.050218	25.000000	nontarget	4.000000	na
26.097206	0.050041	25.000000	nontarget	5.000000	na
26.147248	0.049646	25.000000	nontarget	6.000000	na
26.196893	0.050274	25.000000	nontarget	7.000000	na
26.247167	0.048922	25.000000	nontarget	8.000000	na
26.296089	0.049946	25.000000	nontarget	9.000000	na
26.346035	0.050726	25.000000	nontarget	10.000000	26.370684
26.396760	0.049865	25.000000	nontarget	11.000000	na
26.446626	0.040068	25.000000	nontarget	12.000000	na
26.486694	0.042580	25.000000	nontarget	13.000000	na
26.529274	0.050432	25.000000	nontarget	14.000000	na
26.579706	0.040237	25.000000	nontarget	15.000000	na
26.619943	0.043771	25.000000	nontarget	16.000000	na
26.663714	0.050071	26.000000	nontarget	1.000000	na
26.713785	0.049163	26.000000	nontarget	2.000000	na
26.762948	0.040179	26.000000	nontarget	3.000000	na
26.803127	0.044090	26.000000	nontarget	4.000000	na
26.847217	0.049962	26.000000	nontarget	5.000000	na
26.897179	0.049757	26.000000	nontarget	6.000000	na
26.946935	0.051952	26.000000	nontarget	7.000000	na
26.998887	0.047946	26.000000	nontarget	8.000000	na
27.046833	0.050352	26.000000	nontarget	9.000000	na
27.097186	0.049695	26.000000	nontarget	10.000000	27.125150
27.146881	0.040119	26.000000	nontarget	11.000000	na
27.186999	0.043464	26.000000	nontarget	12.000000	na
27.230463	0.048890	26.000000	nontarget	13.000000	na
27.279354	0.040136	26.000000	nontarget	14.000000	na
27.319490	0.043345	26.000000	nontarget	15.000000	na
27.362835	0.050079	26.000000	nontarget	16.000000	na
27.412915	0.050828	27.000000	nontarget	1.000000	na
27.463743	0.049750	27.000000	nontarget	2.000000	na
27.513493	0.049642	27.000000	nontarget	3.000000	na
27.563135	0.050310	27.000000	nontarget	4.000000	na
27.613445	0.049615	27.000000	nontarget	5.000000	na
27.663060	0.039610	27.000000	nontarget	6.000000	na
27.702669	0.043911	27.000000	nontarget	7.000000	na
27.746580	0.050500	27.000000	nontarget	8.000000	na
27.797081	0.049797	27.000000	nontarget	9.000000	na
27.846877	0.050281	27.000000	nontarget	10.000000	na
27.897158	0.049768	27.000000	nontarget	11.000000	na
27.946927	0.042808	27.000000	nontarget	12.000000	27.978486
27.989735	0.047219	27.000000	nontarget	13.000000	na
28.036954	0.043634	27.000000	nontarget	14.000000	na
28.080588	0.049400	27.000000	nontarget	15.000000	na
28.129987	0.049801	27.000000	nontarget	16.000000	na
28.179788	0.049883	28.000000	nontarget	1.000000	na
28.229671	0.040037	28.000000	nontarget	2.000000	na
28.269708	0.043612	28.000000	nontarget	3.000000	na
28.313320	0.039406	28.000000	nontarget	4.000000	na
28.352726	0.042986	28.000000	nontarget	5.000000	na
28.395712	0.051067	28.000000	nontarget	6.000000	na
28.446779	0.039836	28.000000	nontarget	7.000000	na
28.486615	0.043122	28.000000	nontarget	8.000000	na
28.529737	0.050354	28.000000	nontarget	9.000000	na
28.580091	0.050194	28.000000	nontarget	10.000000	na
28.630284	0.049871	28.000000	nontarget	11.000000	na
28.680155	0.049796	28.000000	nontarget	12.000000	na
28.729951	0.050132	28.000000	nontarget	13.000000	na
28.780083	0.049900	28.000000	nontarget	14.000000	na
28.829983	0.050143	28.000000	nontarget	15.000000	na
28.880126	0.049817	28.000000	nontarget	16.000000	na
28.929943	0.050152	29.000000	nontarget	1.000000	28.965764
28.980094	0.049714	29.000000	nontarget	2.000000	na
29.029808	0.050342	29.000000	nontarget	3.000000	na
29.080150	0.049406	29.000000	nontarget	4.000000	na
29.129556	0.040835	29.000000	nontarget	5.000000	na
29.170391	0.043051	29.000000	nontarget	6.000000	na
29.213442	0.050010	29.000000	nontarget	7.000000	na
29.263451	0.050055	29.000000	nontarget	8.000000	na
29.313507	0.049950	29.000000	nontarget	9.000000	na
29.363457	0.050058	29.000000	nontarget	10.000000	na
29.413515	0.049863	29.000000	nontarget	11.000000	na
29.463378	0.040051	29.000000	nontarget	12.000000	na
29.503429	0.043267	29.000000	nontarget	13.000000	na
29.546696	0.050111	29.000000	nontarget	14.000000	na
29.596808	0.050043	29.000000	nontarget	15.000000	29.628643
29.646851	0.049921	29.000000	nontarget	16.000000	na
29.696772	0.050076	30.000000	nontarget	1.000000	29.703389
29.746848	0.049359	30.000000	nontarget	2.000000	na
29.796206	0.050606	30.000000	nontarget	3.000000	na
29.846813	0.050051	30.000000	nontarget	4.000000	na
29.896864	0.049606	30.000000	nontarget	5.000000	na
29.946470	0.052088	30.000000	nontarget	6.000000	na
29.998558	0.048336	30.000000	nontarget	7.000000	na
30.046894	0.049946	30.000000	nontarget	8.000000	na
30.096840	0.049327	30.000000	nontarget	9.000000	na
30.146167	0.050040	30.000000	nontarget	10.000000	na
30.196207	0.050012	30.000000	nontarget	11.000000	na
30.246219	0.050612	30.000000	nontarget	12.000000	na
30.296831	0.050064	30.000000	nontarget	13.000000	na
30.346894	0.050019	30.000000	nontarget	14.000000	na
30.396913	0.049859	30.000000	nontarget	15.000000	30.432553
30.446772	0.050011	30.000000	nontarget	16.000000	na
30.496783	0.049120	31.000000	nontarget	1.000000	30.503323
30.545902	0.040600	31.000000	nontarget	2.000000	na
30.586502	0.042812	31.000000	nontarget	3.000000	na
30.629314	0.050871	31.000000	nontarget	4.000000	na
30.680185	0.049344	31.000000	nontarget	5.000000	na
30.729529	0.050420	31.000000	nontarget	6.000000	na
30.779950	0.050155	31.000000	nontarget	7.000000	na
30.830104	0.050066	31.000000	nontarget	8.000000	na
30.880170	0.049880	31.000000	nontarget	9.000000	na
30.930050	0.050027	31.000000	nontarget	10.000000	na
30.980077	0.049176	31.000000	nontarget	11.000000	na
31.029253	0.050881	31.000000	nontarget	12.000000	na
31.080134	0.050018	31.000000	nontarget	13.000000	na
31.130152	0.049918	31.000000	nontarget	14.000000	na
31.180071	0.049865	31.000000	nontarget	15.000000	na
31.229936	0.049413	31.000000	nontarget	16.000000	31.241211
31.279349	0.051004	32.000000	nontarget	1.000000	31.286023
31.330353	0.049898	32.000000	nontarget	2.000000	na
31.380251	0.050007	32.000000	nontarget	3.000000	na
31.430258	0.049855	32.000000	nontarget	4.000000	na
31.480113	0.050056	32.000000	nontarget	5.000000	na
31.530169	0.049196	32.000000	nontarget	6.000000	na
31.579365	0.040407	32.000000	nontarget	7.000000	na
31.619772	0.043707	32.000000	nontarget	8.000000	na
31.663480	0.039352	32.000000	nontarget	9.000000	na
31.702832	0.043871	32.000000	nontarget	10.000000	na
31.746703	0.039722	32.000000	nontarget	11.000000	na
31.786425	0.043552	32.000000	nontarget	12.000000	na
31.829978	0.039712	32.000000	nontarget	13.000000	na
31.869690	0.043695	32.000000	nontarget	14.000000	na
31.913384	0.039598	32.000000	nontarget	15.000000	na
31.952982	0.059508	32.000000	nontarget	16.000000	na
32.012490	0.050473	33.000000	nontarget	1.000000	32.023931
32.062962	0.050764	33.000000	nontarget	2.000000	na
32.113727	0.049786	33.000000	nontarget	3.000000	na
32.163513	0.050082	33.000000	nontarget	4.000000	na
32.213595	0.049844	33.000000	nontarget	5.000000	na
32.263439	0.050083	33.000000	nontarget	6.000000	na
32.313522	0.049754	33.000000	nontarget	7.000000	na
32.363276	0.050264	33.000000	nontarget	8.000000	na
32.413540	0.049559	33.000000	nontarget	9.000000	na
32.463098	0.050394	33.000000	nontarget	10.000000	na
32.513492	0.049184	33.000000	nontarget	11.000000	na
32.562676	0.040132	33.000000	nontarget	12.000000	na
32.602808	0.043820	33.000000	nontarget	13.000000	na
32.646628	0.039653	33.000000	nontarget	14.000000	na
32.686281	0.043450	33.000000	nontarget	15.000000	na
32.729731	0.039704	33.000000	nontarget	16.000000	na
32.769436	0.043477	34.000000	nontarget	1.000000	na
32.812913	0.050029	34.000000	nontarget	2.000000	na
32.862941	0.050606	34.000000	nontarget	3.000000	32.882136
32.913547	0.049923	34.000000	nontarget	4.000000	na
32.963470	0.050028	34.000000	nontarget	5.000000	na
33.013498	0.040074	34.000000	nontarget	6.000000	na
33.053572	0.042963	34.000000	nontarget	7.000000	na
33.096535	0.039872	34.000000	nontarget	8.000000	na
33.136407	0.043544	34.000000	nontarget	9.000000	na
33.179951	0.039528	34.000000	nontarget	10.000000	na
33.219479	0.043706	34.000000	nontarget	11.000000	na
33.263185	0.050394	34.000000	nontarget	12.000000	na
33.313579	0.049371	34.000000	nontarget	13.000000	na
33.362950	0.050500	34.000000	nontarget	14.000000	na
33.413450	0.049967	34.000000	nontarget	15.000000	na
33.463417	0.049446	34.000000	nontarget	16.000000	na
33.512862	0.040353	35.000000	nontarget	1.000000	na
33.553215	0.042638	35.000000	nontarget	2.000000	na
33.595854	0.050775	35.000000	nontarget	3.000000	na
33.646629	0.050195	35.000000	nontarget	4.000000	na
33.696824	0.049094	35.000000	nontarget	5.000000	33.725488
33.745918	0.050932	35.000000	nontarget	6.000000	na
33.796850	0.049425	35.000000	nontarget	7.000000	na
33.846275	0.050743	35.000000	nontarget	8.000000	na
33.897018	0.049406	35.000000	nontarget	9.000000	na
33.946424	0.052407	35.000000	nontarget	10.000000	na
33.998831	0.048220	35.000000	nontarget	11.000000	na
34.047051	0.049791	35.000000	nontarget	12.000000	na
34.096842	0.048982	35.000000	nontarget	13.000000	na
34.145825	0.050989	35.000000	nontarget	14.000000	na
34.196814	0.049948	35.000000	nontarget	15.000000	na
34.246762	0.050035	35.000000	nontarget	16.000000	na
34.296797	0.039275	36.000000	nontarget	1.000000	na
34.336071	0.043286	36.000000	nontarget	2.000000	na
34.379358	0.050718	36.000000	nontarget	3.000000	na
34.430076	0.050013	36.000000	nontarget	4.000000	na
34.480089	0.050156	36.000000	nontarget	5.000000	na
34.530245	0.049183	36.000000	nontarget	6.000000	na
34.579428	0.050678	36.000000	nontarget	7.000000	na
34.630106	0.050093	36.000000	nontarget	8.000000	34.662672
34.680199	0.049417	36.000000	nontarget	9.000000	na
34.729616	0.050464	36.000000	nontarget	10.000000	na
34.780079	0.050030	36.000000	nontarget	11.000000	na
34.830109	0.050115	36.000000	nontarget	12.000000	na
34.880224	0.049900	36.000000	nontarget	13.000000	na
34.930124	0.039903	36.000000	nontarget	14.000000	na
34.970028	0.043402	36.000000	nontarget	15.000000	na
35.013430	0.039544	36.000000	nontarget	16.000000	na
35.052974	0.043662	37.000000	nontarget	1.000000	na
35.096636	0.039728	37.000000	nontarget	2.000000	na
35.136364	0.043054	37.000000	nontarget	3.000000	na
35.179418	0.050710	37.000000	nontarget	4.000000	na
35.230128	0.049963	37.000000	nontarget	5.000000	na
35.280091	0.049358	37.000000	nontarget	6.000000	na
35.329449	0.039918	37.000000	nontarget	7.000000	na
35.369366	0.043837	37.000000	nontarget	8.000000	na
35.413203	0.050405	37.000000	nontarget	9.000000	na
35.463608	0.050085	37.000000	nontarget	10.000000	na
35.513693	0.049853	37.000000	nontarget	11.000000	na
35.563546	0.049727	37.000000	nontarget	12.000000	na
35.613273	0.050057	37.000000	nontarget	13.000000	na
35.663329	0.049586	37.000000	nontarget	14.000000	na
35.712915	0.040264	37.000000	nontarget	15.000000	na
35.753179	0.047047	37.000000	nontarget	16.000000	35.784860
35.800226	0.046033	38.000000	nontarget	1.000000	35.805025
35.846259	0.039933	38.000000	nontarget	2.000000	na
35.886192	0.043277	38.000000	nontarget	3.000000	na
35.929469	0.040127	38.000000	nontarget	4.000000	na
35.969595	0.043534	38.000000	nontarget	5.000000	na
36.013129	0.050470	38.000000	nontarget	6.000000	na
36.063600	0.049950	38.000000	nontarget	7.000000	na
36.113550	0.049964	38.000000	nontarget	8.000000	na
36.163514	0.049919	38.000000	nontarget	9.000000	na
36.213433	0.049964	38.000000	nontarget	10.000000	na
36.263397	0.050159	38.000000	nontarget	11.000000	na
36.313555	0.049848	38.000000	nontarget	12.000000	na
36.363404	0.050100	38.000000	nontarget	13.000000	na
36.413503	0.049967	38.000000	nontarget	14.000000	na
36.463471	0.050005	38.000000	nontarget	15.000000	na
36.513476	0.049850	38.000000	nontarget	16.000000	na
36.563327	0.050137	39.000000	nontarget	1.000000	na
36.613463	0.040053	39.000000	nontarget	2.000000	36.619933
36.653516	0.043278	39.000000	nontarget	3.000000	na
36.696794	0.050028	39.000000	nontarget	4.000000	na
36.746822	0.049455	39.000000	nontarget	5.000000	na
36.796278	0.050698	39.000000	nontarget	6.000000	na
36.846976	0.049219	39.000000	nontarget	7.000000	na
36.896195	0.050607	39.000000	nontarget	8.000000	na
36.946803	0.051691	39.000000	nontarget	9.000000	na
36.998493	0.047766	39.000000	nontarget	10.000000	na
37.046259	0.040228	39.000000	nontarget	11.000000	na
37.086487	0.043605	39.000000	nontarget	12.000000	na
37.130091	0.039708	39.000000	nontarget	13.000000	na
37.169799	0.042980	39.000000	nontarget	14.000000	na
37.212779	0.050673	39.000000	nontarget	15.000000	na
37.263451	0.049974	39.000000	nontarget	16.000000	na
37.313425	0.050027	40.000000	nontarget	1.000000	na
37.363452	0.049979	40.000000	nontarget	2.000000	37.387103
37.413431	0.049971	40.000000	nontarget	3.000000	na
37.463402	0.049974	40.000000	nontarget	4.000000	na
37.513376	0.049872	40.000000	nontarget	5.000000	na
37.563247	0.049686	40.000000	nontarget	6.000000	na
37.612934	0.050582	40.000000	nontarget	7.000000	na
37.663516	0.049983	40.000000	nontarget	8.000000	na
37.713499	0.049955	40.000000	nontarget	9.000000	na
37.763454	0.049820	40.000000	nontarget	10.000000	na
37.813274	0.039885	40.000000	nontarget	11.000000	na
37.853159	0.043613	40.000000	nontarget	12.000000	na
37.896772	0.039698	40.000000	nontarget	13.000000	na
37.936470	0.042977	40.000000	nontarget	14.000000	na
37.979447	0.039766	40.000000	nontarget	15.000000	na
38.019213	0.044513	40.000000	nontarget	16.000000	na
38.063726	0.049973	41.000000	nontarget	1.000000	na
38.113698	0.049115	41.000000	nontarget	2.000000	na
38.162813	0.050655	41.000000	nontarget	3.000000	na
38.213468	0.040469	41.000000	nontarget	4.000000	38.240681
38.253937	0.042208	41.000000	nontarget	5.000000	na
38.296145	0.050579	41.000000	nontarget	6.000000	na
38.346724	0.049959	41.000000	nontarget	7.000000	na
38.396683	0.039426	41.000000	nontarget	8.000000	na
38.436109	0.044133	41.000000	nontarget	9.000000	na
38.480242	0.050025	41.000000	nontarget	10.000000	na
38.530266	0.050064	41.000000	nontarget	11.000000	na
38.580330	0.049679	41.000000	nontarget	12.000000	na
38.630009	0.050339	41.000000	nontarget	13.000000	na
38.680348	0.049705	41.000000	nontarget	14.000000	na
38.730052	0.049457	41.000000	nontarget	15.000000	na
38.779509	0.039945	41.000000	nontarget	16.000000	na
38.819454	0.043740	42.000000	nontarget	1.000000	na
38.863194	0.039807	42.000000	nontarget	2.000000	38.888878
38.903001	0.042822	42.000000	nontarget	3.000000	na
38.945823	0.053232	42.000000	nontarget	4.000000	na
38.999055	0.047728	42.000000	nontarget	5.000000	na
39.046783	0.049778	42.000000	nontarget	6.000000	na
39.096561	0.050248	42.000000	nontarget	7.000000	na
39.146809	0.049574	42.000000	nontarget	8.000000	na
39.196383	0.049853	42.000000	nontarget	9.000000	na
39.246236	0.050571	42.000000	nontarget	10.000000	na
39.296806	0.049998	42.000000	nontarget	11.000000	na
39.346804	0.049852	42.000000	nontarget	12.000000	na
39.396656	0.049739	42.000000	nontarget	13.000000	na
39.446396	0.040025	42.000000	nontarget	14.000000	na
39.486421	0.042984	42.000000	nontarget	15.000000	na
39.529405	0.039871	42.000000	nontarget	16.000000	na
39.569276	0.043367	43.000000	nontarget	1.000000	na
39.612643	0.040806	43.000000	nontarget	2.000000	na
39.653449	0.043460	43.000000	nontarget	3.000000	39.668427
39.696909	0.049956	43.000000	nontarget	4.000000	na
39.746865	0.049897	43.000000	nontarget	5.000000	na
39.796761	0.050070	43.000000	nontarget	6.000000	na
39.846831	0.049282	43.000000	nontarget	7.000000	na
39.896114	0.050684	43.000000	nontarget	8.000000	na
39.946797	0.052074	43.000000	nontarget	9.000000	na
39.998871	0.047195	43.000000	nontarget	10.000000	na
40.046066	0.040250	43.000000	nontarget	11.000000	na
40.086316	0.042885	43.000000	nontarget	12.000000	na
40.129201	0.050926	43.000000	nontarget	13.000000	na
40.180127	0.050118	43.000000	nontarget	14.000000	na
40.230245	0.038868	43.000000	nontarget	15.000000	na
40.269113	0.044471	43.000000	nontarget	16.000000	na
40.313584	0.049053	44.000000	nontarget	1.000000	40.321144
40.362637	0.040517	44.000000	nontarget	2.000000	na
40.403154	0.043061	44.000000	nontarget	3.000000	na
40.446215	0.039925	44.000000	nontarget	4.000000	na
40.486140	0.043465	44.000000	nontarget	5.000000	na
40.529605	0.040008	44.000000	nontarget	6.000000	na
40.569613	0.043774	44.000000	nontarget	7.000000	na
40.613387	0.049978	44.000000	nontarget	8.000000	na
40.663365	0.050368	44.000000	nontarget	9.000000	na
40.713733	0.049514	44.000000	nontarget	10.000000	na
40.763248	0.050199	44.000000	nontarget	11.000000	na
40.813447	0.049693	44.000000	nontarget	12.000000	na
40.863140	0.050183	44.000000	nontarget	13.000000	na
40.913323	0.050136	44.000000	nontarget	14.000000	na
40.963459	0.050128	44.000000	nontarget	15.000000	na
41.013587	0.049767	44.000000	nontarget	16.000000	na
41.063354	0.050143	45.000000	nontarget	1.000000	41.083449
41.113497	0.049792	45.000000	nontarget	2.000000	na
41.163289	0.050284	45.000000	nontarget	3.000000	na
41.213573	0.050028	45.000000	nontarget	4.000000	na
41.263601	0.049137	45.000000	nontarget	5.000000	na
41.312739	0.040035	45.000000	nontarget	6.000000	na
41.352774	0.043106	45.000000	nontarget	7.000000	na
41.395880	0.050779	45.000000	nontarget	8.000000	na
41.446658	0.039821	45.000000	nontarget	9.000000	na
41.486479	0.043838	45.000000	nontarget	10.000000	na
41.530317	0.049870	45.000000	nontarget	11.000000	na
41.580186	0.050011	45.000000	nontarget	12.000000	na
41.630198	0.049859	45.000000	nontarget	13.000000	na
41.680057	0.039790	45.000000	nontarget	14.000000	na
41.719848	0.043388	45.000000	nontarget	15.000000	na
41.763236	0.039567	45.000000	nontarget	16.000000	na
41.802803	0.046638	46.000000	nontarget	1.000000	41.835078
41.849441	0.047412	46.000000	nontarget	2.000000	na
41.896853	0.050266	46.000000	nontarget	3.000000	na
41.947119	0.051356	46.000000	nontarget	4.000000	na
41.998475	0.047697	46.000000	nontarget	5.000000	na
42.046172	0.040264	46.000000	nontarget	6.000000	na
42.086436	0.042748	46.000000	nontarget	7.000000	na
42.129184	0.051003	46.000000	nontarget	8.000000	na
42.180187	0.049802	46.000000	nontarget	9.000000	na
42.229988	0.050261	46.000000	nontarget	10.000000	na
42.280249	0.049866	46.000000	nontarget	11.000000	na
42.330115	0.049908	46.000000	nontarget	12.000000	na
42.380023	0.049713	46.000000	nontarget	13.000000	na
42.429735	0.050515	46.000000	nontarget	14.000000	na
42.480250	0.049734	46.000000	nontarget	15.000000	na
42.529984	0.050076	46.000000	nontarget	16.000000	na
42.580061	0.050046	47.000000	nontarget	1.000000	na
42.630107	0.049604	47.000000	nontarget	2.000000	na
42.679710	0.050486	47.000000	nontarget	3.000000	42.699340
42.730196	0.040296	47.000000	nontarget	4.000000	na
42.770492	0.042941	47.000000	nontarget	5.000000	na
42.813434	0.049438	47.000000	nontarget	6.000000	na
42.862872	0.050918	47.000000	nontarget	7.000000	na
42.913791	0.049465	47.000000	nontarget	8.000000	na
42.963256	0.050586	47.000000	nontarget	9.000000	na
43.013841	0.049505	47.000000	nontarget	10.000000	na
43.063346	0.050156	47.000000	nontarget	11.000000	na
43.113502	0.050074	47.000000	nontarget	12.000000	na
43.163576	0.049269	47.000000	nontarget	13.000000	na
43.212845	0.040386	47.000000	nontarget	14.000000	na
43.253232	0.043008	47.000000	nontarget	15.000000	na
43.296240	0.039556	47.000000	nontarget	16.000000	na
43.335796	0.044265	48.000000	nontarget	1.000000	na
43.380061	0.049979	48.000000	nontarget	2.000000	na
43.430040	0.050058	48.000000	nontarget	3.000000	na
43.480098	0.049341	48.000000	nontarget	4.000000	43.491428
43.529439	0.040437	48.000000	nontarget	5.000000	na
43.569875	0.043759	48.000000	nontarget	6.000000	na
43.613634	0.049212	48.000000	nontarget	7.000000	na
43.662846	0.049608	48.000000	nontarget	8.000000	na
43.712454	0.050773	48.000000	nontarget	9.000000	na
43.763227	0.039873	48.000000	nontarget	10.000000	na
43.803100	0.043397	48.000000	nontarget	11.000000	na
43.846497	0.039674	48.000000	nontarget	12.000000	na
43.886171	0.043490	48.000000	nontarget	13.000000	na
43.929660	0.050288	48.000000	nontarget	14.000000	na
43.979949	0.050075	48.000000	nontarget	15.000000	na
44.030023	0.050070	48.000000	nontarget	16.000000	na
44.080094	0.050138	49.000000	nontarget	1.000000	na
44.130231	0.049891	49.000000	nontarget	2.000000	na
44.180122	0.049839	49.000000	nontarget	3.000000	na
44.229962	0.049437	49.000000	nontarget	4.000000	na
44.279399	0.040202	49.000000	nontarget	5.000000	na
44.319600	0.044157	49.000000	nontarget	6.000000	44.343959
44.363757	0.049733	49.000000	nontarget	7.000000	na
44.413490	0.049447	49.000000	nontarget	8.000000	na
44.462937	0.039823	49.000000	nontarget	9.000000	na
44.502760	0.043601	49.000000	nontarget	10.000000	na
44.546361	0.040016	49.000000	nontarget	11.000000	na
44.586377	0.043658	49.000000	nontarget	12.000000	na
44.630035	0.050069	49.000000	nontarget	13.000000	na
44.680104	0.049845	49.000000	nontarget	14.000000	na
44.729948	0.050346	49.000000	nontarget	15.000000	na
44.780294	0.049862	49.000000	nontarget	16.000000	na
44.830157	0.049939	50.000000	nontarget	1.000000	na
44.880096	0.050014	50.000000	nontarget	2.000000	na
44.930110	0.049275	50.000000	nontarget	3.000000	na
44.979385	0.049998	50.000000	nontarget	4.000000	na
45.029382	0.041020	50.000000	nontarget	5.000000	45.037421
45.070402	0.042817	50.000000	nontarget	6.000000	na
45.113219	0.050242	50.000000	nontarget	7.000000	na
45.163461	0.049128	50.000000	nontarget	8.000000	na
45.212589	0.050965	50.000000	nontarget	9.000000	na
45.263554	0.049908	50.000000	nontarget	10.000000	na
45.313463	0.049378	50.000000	nontarget	11.000000	na
45.362841	0.039781	50.000000	nontarget	12.000000	na
45.402622	0.044070	50.000000	nontarget	13.000000	na
45.446693	0.039614	50.000000	nontarget	14.000000	na
45.486306	0.043057	50.000000	nontarget	15.000000	na
45.529363	0.050732	50.000000	nontarget	16.000000	na
45.580095	0.050184	51.000000	nontarget	1.000000	na
45.630279	0.049837	51.000000	nontarget	2.000000	na
45.680116	0.049915	51.000000	nontarget	3.000000	45.704012
45.730031	0.050111	51.000000	nontarget	4.000000	na
45.780142	0.049275	51.000000	nontarget	5.000000	na
45.829417	0.050903	51.000000	nontarget	6.000000	na
45.880320	0.049037	51.000000	nontarget	7.000000	na
45.929357	0.040143	51.000000	nontarget	8.000000	na
45.969500	0.043801	51.000000	nontarget	9.000000	na
46.013300	0.040038	51.000000	nontarget	10.000000	na
46.053338	0.043434	51.000000	nontarget	11.000000	na
46.096772	0.049993	51.000000	nontarget	12.000000	na
46.146765	0.050129	51.000000	nontarget	13.000000	na
46.196894	0.049584	51.000000	nontarget	14.000000	na
46.246478	0.050328	51.000000	nontarget	15.000000	na
46.296806	0.049098	51.000000	nontarget	16.000000	na
46.345904	0.040141	52.000000	nontarget	1.000000	na
46.386044	0.043420	52.000000	nontarget	2.000000	na
46.429465	0.040580	52.000000	nontarget	3.000000	46.439970
46.470045	0.042335	52.000000	nontarget	4.000000	na
46.512380	0.050853	52.000000	nontarget	5.000000	na
46.563232	0.050203	52.000000	nontarget	6.000000	na
46.613435	0.049556	52.000000	nontarget	7.000000	na
46.662991	0.040110	52.000000	nontarget	8.000000	na
46.703101	0.042722	52.000000	nontarget	9.000000	na
46.745823	0.050880	52.000000	nontarget	10.000000	na
46.796703	0.050162	52.000000	nontarget	11.000000	na
46.846865	0.049236	52.000000	nontarget	12.000000	na
46.896101	0.050859	52.000000	nontarget	13.000000	na
46.946960	0.051779	52.000000	nontarget	14.000000	na
46.998739	0.047981	52.000000	nontarget	15.000000	na
47.046720	0.039767	52.000000	nontarget	16.000000	na
47.086487	0.043311	53.000000	nontarget	1.000000	na
47.129797	0.039566	53.000000	nontarget	2.000000	na
47.169363	0.043244	53.000000	nontarget	3.000000	na
47.212607	0.039925	53.000000	nontarget	4.000000	na
47.252533	0.047938	53.000000	nontarget	5.000000	na
47.300470	0.046360	53.000000	nontarget	6.000000	47.305456
47.346830	0.050187	53.000000	nontarget	7.000000	na
47.397017	0.049519	53.000000	nontarget	8.000000	na
47.446535	0.050261	53.000000	nontarget	9.000000	na
47.496796	0.049247	53.000000	nontarget	10.000000	na
47.546043	0.050590	53.000000	nontarget	11.000000	na
47.596633	0.050101	53.000000	nontarget	12.000000	na
47.646734	0.039941	53.000000	nontarget	13.000000	na
47.686675	0.042710	53.000000	nontarget	14.000000	na
47.729386	0.040246	53.000000	nontarget	15.000000	na
47.769631	0.042773	53.000000	nontarget	16.000000	na
47.812405	0.050855	54.000000	nontarget	1.000000	na
47.863259	0.049482	54.000000	nontarget	2.000000	na
47.912742	0.050586	54.000000	nontarget	3.000000	na
47.963328	0.049161	54.000000	nontarget	4.000000	na
48.012488	0.051020	54.000000	nontarget	5.000000	na
48.063509	0.039336	54.000000	nontarget	6.000000	48.070388
48.102845	0.043613	54.000000	nontarget	7.000000	na
48.146458	0.040106	54.000000	nontarget	8.000000	na
48.186563	0.043322	54.000000	nontarget	9.000000	na
48.229885	0.049995	54.000000	nontarget	10.000000	na
48.279880	0.049449	54.000000	nontarget	11.000000	na
48.329330	0.050526	54.000000	nontarget	12.000000	na
48.379856	0.050254	54.000000	nontarget	13.000000	na
48.430110	0.049768	54.000000	nontarget	14.000000	na
48.479878	0.050232	54.000000	nontarget	15.000000	na
48.530110	0.049768	54.000000	nontarget	16.000000	na
48.579878	0.050656	55.000000	nontarget	1.000000	na
48.630534	0.049367	55.000000	nontarget	2.000000	na
48.679901	0.050524	55.000000	nontarget	3.000000	48.691229
48.730425	0.049942	55.000000	nontarget	4.000000	na
48.780366	0.049776	55.000000	nontarget	5.000000	na
48.830142	0.049751	55.000000	nontarget	6.000000	na
48.879893	0.050053	55.000000	nontarget	7.000000	na
48.929946	0.049935	55.000000	nontarget	8.000000	na
48.979881	0.050073	55.000000	nontarget	9.000000	na
49.029954	0.050542	55.000000	nontarget	10.000000	na
49.080496	0.049882	55.000000	nontarget	11.000000	na
49.130378	0.049885	55.000000	nontarget	12.000000	na
49.180263	0.049659	55.000000	nontarget	13.000000	na
49.229922	0.050534	55.000000	nontarget	14.000000	na
49.280456	0.049885	55.000000	nontarget	15.000000	na
49.330341	0.049780	55.000000	nontarget	16.000000	49.336853
49.380121	0.050017	56.000000	nontarget	1.000000	49.386758
49.430138	0.049988	56.000000	nontarget	2.000000	na
49.480126	0.049983	56.000000	nontarget	3.000000	na
49.530109	0.050058	56.000000	nontarget	4.000000	na
49.580167	0.049963	56.000000	nontarget	5.000000	na
49.630130	0.050124	56.000000	nontarget	6.000000	na
49.680254	0.049914	56.000000	nontarget	7.000000	na
49.730168	0.049923	56.000000	nontarget	8.000000	na
49.780091	0.050003	56.000000	nontarget	9.000000	na
49.830095	0.050324	56.000000	nontarget	10.000000	na
49.880419	0.049565	56.000000	nontarget	11.000000	na
49.929984	0.050209	56.000000	nontarget	12.000000	na
49.980193	0.040135	56.000000	nontarget	13.000000	na
50.020328	0.043115	56.000000	nontarget	14.000000	na
50.063443	0.043518	56.000000	nontarget	15.000000	50.094252
50.106961	0.046089	56.000000	nontarget	16.000000	na
50.153050	0.043731	57.000000	nontarget	1.000000	50.159702
50.196781	0.049526	57.000000	nontarget	2.000000	na
50.246307	0.049815	57.000000	nontarget	3.000000	na
50.296122	0.050687	57.000000	nontarget	4.000000	na
50.346809	0.049951	57.000000	nontarget	5.000000	na
50.396760	0.050113	57.000000	nontarget	6.000000	na
50.446873	0.049996	57.000000	nontarget	7.000000	na
50.496869	0.049870	57.000000	nontarget	8.000000	na
50.546739	0.050055	57.000000	nontarget	9.000000	na
50.596794	0.049859	57.000000	nontarget	10.000000	na
50.646654	0.049543	57.000000	nontarget	11.000000	na
50.696197	0.049833	57.000000	nontarget	12.000000	na
50.746030	0.040526	57.000000	nontarget	13.000000	na
50.786556	0.043188	57.000000	nontarget	14.000000	na
50.829744	0.050354	57.000000	nontarget	15.000000	na
50.880098	0.050194	57.000000	nontarget	16.000000	na
50.930292	0.049594	58.000000	nontarget	1.000000	na
50.979885	0.050241	58.000000	nontarget	2.000000	na
51.030127	0.049785	58.000000	nontarget	3.000000	51.036908
51.079912	0.050077	58.000000	nontarget	4.000000	na
51.129989	0.040286	58.000000	nontarget	5.000000	na
51.170276	0.042527	58.000000	nontarget	6.000000	na
51.212803	0.040276	58.000000	nontarget	7.000000	na
51.253079	0.043532	58.000000	nontarget	8.000000	na
51.296611	0.050211	58.000000	nontarget	9.000000	na
51.346822	0.050046	58.000000	nontarget	10.000000	na
51.396868	0.049932	58.000000	nontarget	11.000000	na
51.446800	0.050265	58.000000	nontarget	12.000000	na
51.497065	0.049755	58.000000	nontarget	13.000000	na
51.546820	0.049963	58.000000	nontarget	14.000000	na
51.596783	0.050021	58.000000	nontarget	15.000000	na
51.646804	0.050224	58.000000	nontarget	16.000000	na
51.697028	0.049769	59.000000	nontarget	1.000000	na
51.746798	0.049437	59.000000	nontarget	2.000000	51.758135
51.796235	0.039475	59.000000	nontarget	3.000000	na
51.835710	0.044660	59.000000	nontarget	4.000000	na
51.880370	0.049749	59.000000	nontarget	5.000000	na
51.930119	0.049969	59.000000	nontarget	6.000000	na
51.980087	0.049850	59.000000	nontarget	7.000000	na
52.029938	0.050183	59.000000	nontarget	8.000000	na
52.080121	0.050123	59.000000	nontarget	9.000000	na
52.130244	0.049845	59.000000	nontarget	10.000000	na
52.180088	0.050182	59.000000	nontarget	11.000000	na
52.230270	0.049576	59.000000	nontarget	12.000000	na
52.279846	0.050094	59.000000	nontarget	13.000000	na
52.329940	0.050247	59.000000	nontarget	14.000000	na
52.380188	0.050033	59.000000	nontarget	15.000000	na
52.430221	0.049647	59.000000	nontarget	16.000000	na
52.479868	0.050325	60.000000	nontarget	1.000000	52.510921
52.530193	0.049642	60.000000	nontarget	2.000000	na
52.579835	0.050156	60.000000	nontarget	3.000000	na
52.629990	0.050263	60.000000	nontarget	4.000000	na
52.680253	0.049845	60.000000	nontarget	5.000000	na
52.730099	0.050128	60.000000	nontarget	6.000000	na
52.780227	0.050204	60.000000	nontarget	7.000000	na
52.830431	0.049701	60.000000	nontarget	8.000000	na
52.880132	0.049997	60.000000	nontarget	9.000000	na
52.930129	0.049843	60.000000	nontarget	10.000000	na
52.979972	0.049823	60.000000	nontarget	11.000000	na
53.029794	0.050242	60.000000	nontarget	12.000000	na
53.080036	0.050160	60.000000	nontarget	13.000000	na
53.130196	0.049649	60.000000	nontarget	14.000000	na
53.179845	0.050188	60.000000	nontarget	15.000000	na
53.230033	0.050084	60.000000	nontarget	16.000000	na
53.280117	0.049823	61.000000	nontarget	1.000000	na
53.329940	0.050384	61.000000	nontarget	2.000000	na
53.380324	0.049579	61.000000	nontarget	3.000000	na
53.429903	0.050292	61.000000	nontarget	4.000000	na
53.480195	0.049812	61.000000	nontarget	5.000000	na
53.530007	0.050096	61.000000	nontarget	6.000000	na
53.580103	0.050005	61.000000	nontarget	7.000000	na
53.630108	0.049039	61.000000	nontarget	8.000000	na
53.679146	0.040608	61.000000	nontarget	9.000000	53.688686
53.719754	0.043480	61.000000	nontarget	10.000000	na
53.763233	0.049799	61.000000	nontarget	11.000000	na
53.813032	0.050545	61.000000	nontarget	12.000000	na
53.863577	0.048894	61.000000	nontarget	13.000000	na
53.912471	0.039947	61.000000	nontarget	14.000000	na
53.952417	0.047754	61.000000	nontarget	15.000000	na
54.000172	0.046343	61.000000	nontarget	16.000000	na
54.046515	0.050241	62.000000	nontarget	1.000000	na
54.096756	0.049377	62.000000	nontarget	2.000000	na
54.146133	0.050679	62.000000	nontarget	3.000000	na
54.196811	0.049869	62.000000	nontarget	4.000000	na
54.246681	0.050065	62.000000	nontarget	5.000000	na
54.296745	0.050079	62.000000	nontarget	6.000000	na
54.346825	0.049180	62.000000	nontarget	7.000000	na
54.396004	0.050719	62.000000	nontarget	8.000000	na
54.446723	0.050289	62.000000	nontarget	9.000000	na
54.497012	0.049793	62.000000	nontarget	10.000000	na
54.546805	0.049615	62.000000	nontarget	11.000000	na
54.596420	0.050624	62.000000	nontarget	12.000000	na
54.647044	0.049451	62.000000	nontarget	13.000000	na
54.696495	0.049929	62.000000	nontarget	14.000000	na
54.746425	0.050419	62.000000	nontarget	15.000000	na
54.796843	0.040106	62.000000	nontarget	16.000000	54.803383
54.836949	0.043157	63.000000	nontarget	1.000000	54.842651
54.880107	0.039423	63.000000	nontarget	2.000000	na
54.919529	0.042847	63.000000	nontarget	3.000000	na
54.962376	0.040703	63.000000	nontarget	4.000000	na
55.003079	0.043374	63.000000	nontarget	5.000000	na
55.046453	0.039905	63.000000	nontarget	6.000000	na
55.086359	0.043543	63.000000	nontarget	7.000000	na
55.129902	0.049935	63.000000	nontarget	8.000000	na
55.179837	0.050271	63.000000	nontarget	9.000000	na
55.230108	0.049725	63.000000	nontarget	10.000000	na
55.279833	0.049744	63.000000	nontarget	11.000000	na
55.329578	0.050516	63.000000	nontarget	12.000000	na
55.380094	0.050062	63.000000	nontarget	13.000000	na
55.430156	0.050190	63.000000	nontarget	14.000000	na
55.480346	0.049587	63.000000	nontarget	15.000000	na
55.529933	0.050286	63.000000	nontarget	16.000000	na
55.580219	0.049696	64.000000	nontarget	1.000000	na
55.629915	0.039081	64.000000	nontarget	2.000000	55.638289
55.668996	0.044481	64.000000	nontarget	3.000000	na
55.713476	0.049778	64.000000	nontarget	4.000000	na
55.763255	0.050407	64.000000	nontarget	5.000000	na
55.813661	0.049862	64.000000	nontarget	6.000000	na
55.863524	0.050124	64.000000	nontarget	7.000000	na
55.913648	0.049840	64.000000	nontarget	8.000000	na
55.963488	0.050353	64.000000	nontarget	9.000000	na
56.013841	0.049421	64.000000	nontarget	10.000000	na
56.063261	0.050183	64.000000	nontarget	11.000000	na
56.113444	0.050133	64.000000	nontarget	12.000000	na
56.163577	0.049923	64.000000	nontarget	13.000000	na
56.213500	0.049275	64.000000	nontarget	14.000000	na
56.262775	0.039751	64.000000	nontarget	15.000000	na
56.302526	0.043555	64.000000	nontarget	16.000000	na
56.346081	0.050874	65.000000	target	1.000000	na
56.396956	0.049865	65.000000	target	2.000000	na
56.446821	0.049967	65.000000	target	3.000000	na
56.496788	0.039490	65.000000	target	4.000000	na
56.536278	0.043545	65.000000	target	5.000000	na
56.579823	0.050284	65.000000	target	6.000000	na
56.630106	0.050074	65.000000	target	7.000000	na
56.680180	0.049917	65.000000	target	8.000000	na
56.730097	0.049784	65.000000	target	9.000000	na
56.779881	0.050464	65.000000	target	10.000000	na
56.830345	0.049457	65.000000	target	11.000000	na
56.879801	0.050314	65.000000	target	12.000000	na
56.930115	0.049461	65.000000	target	13.000000	na
56.979576	0.040305	65.000000	target	14.000000	na
57.019881	0.043506	65.000000	target	15.000000	na
57.063387	0.040024	65.000000	target	16.000000	na
57.103411	0.042970	66.000000	nontarget	1.000000	na
57.146381	0.039292	66.000000	nontarget	2.000000	57.164110
57.185673	0.043607	66.000000	nontarget	3.000000	na
57.229280	0.050506	66.000000	nontarget	4.000000	na
57.279786	0.049732	66.000000	nontarget	5.000000	na
57.329518	0.050285	66.000000	nontarget	6.000000	na
57.379803	0.050184	66.000000	nontarget	7.000000	na
57.429987	0.049994	66.000000	nontarget	8.000000	na
57.479981	0.049814	66.000000	nontarget	9.000000	na
57.529796	0.050201	66.000000	nontarget	10.000000	na
57.579997	0.050335	66.000000	nontarget	11.000000	na
57.630332	0.049809	66.000000	nontarget	12.000000	na
57.680141	0.049971	66.000000	nontarget	13.000000	na
57.730111	0.050014	66.000000	nontarget	14.000000	na
57.780126	0.049413	66.000000	nontarget	15.000000	na
57.829539	0.050420	66.000000	nontarget	16.000000	na
57.879959	0.050169	67.000000	nontarget	1.000000	na
57.930128	0.049887	67.000000	nontarget	2.000000	na
57.980015	0.049812	67.000000	nontarget	3.000000	na
58.029827	0.050429	67.000000	nontarget	4.000000	na
58.080256	0.049839	67.000000	nontarget	5.000000	58.104855
58.130095	0.050273	67.000000	nontarget	6.000000	na
58.180368	0.049788	67.000000	nontarget	7.000000	na
58.230156	0.049813	67.000000	nontarget	8.000000	na
58.279969	0.049766	67.000000	nontarget	9.000000	na
58.329735	0.050300	67.000000	nontarget	10.000000	na
58.380035	0.049966	67.000000	nontarget	11.000000	na
58.430001	0.049640	67.000000	nontarget	12.000000	na
58.479641	0.050303	67.000000	nontarget	13.000000	na
58.529945	0.050287	67.000000	nontarget	14.000000	na
58.580232	0.049510	67.000000	nontarget	15.000000	na
58.629742	0.050351	67.000000	nontarget	16.000000	na
58.680093	0.049849	68.000000	nontarget	1.000000	na
58.729942	0.049691	68.000000	nontarget	2.000000	na
58.779633	0.050547	68.000000	nontarget	3.000000	na
58.830180	0.049931	68.000000	nontarget	4.000000	na
58.880111	0.049501	68.000000	nontarget	5.000000	na
58.929612	0.050510	68.000000	nontarget	6.000000	na
58.980122	0.050063	68.000000	nontarget	7.000000	na
59.030185	0.049972	68.000000	nontarget	8.000000	59.037052
59.080157	0.050011	68.000000	nontarget	9.000000	na
59.130169	0.050017	68.000000	nontarget	10.000000	na
59.180186	0.049985	68.000000	nontarget	11.000000	na
59.230171	0.050090	68.000000	nontarget	12.000000	na
59.280260	0.049504	68.000000	nontarget	13.000000	na
59.329765	0.050209	68.000000	nontarget	14.000000	na
59.379974	0.050250	68.000000	nontarget	15.000000	na
59.430224	0.049484	68.000000	nontarget	16.000000	na
59.479709	0.050236	69.000000	target	1.000000	na
59.529945	0.050008	69.000000	target	2.000000	na
59.579953	0.050137	69.000000	target	3.000000	na
59.630089	0.039987	69.000000	target	4.000000	na
59.670077	0.043644	69.000000	target	5.000000	na
59.713721	0.049743	69.000000	target	6.000000	na
59.763463	0.050056	69.000000	target	7.000000	na
59.813519	0.049502	69.000000	target	8.000000	na
59.863022	0.050541	69.000000	target	9.000000	na
59.913562	0.049696	69.000000	target	10.000000	na
59.963259	0.039617	69.000000	target	11.000000	na
60.002876	0.043769	69.000000	target	12.000000	na
60.046645	0.050171	69.000000	target	13.000000	na
60.096816	0.049866	69.000000	target	14.000000	na
60.146681	0.049825	69.000000	target	15.000000	na
60.196506	0.049642	69.000000	target	16.000000	na
60.246148	0.050297	70.000000	nontarget	1.000000	60.253273
60.296445	0.049499	70.000000	nontarget	2.000000	na
60.345945	0.040507	70.000000	nontarget	3.000000	na
60.386452	0.042809	70.000000	nontarget	4.000000	na
60.429261	0.050857	70.000000	nontarget	5.000000	na
60.480118	0.049612	70.000000	nontarget	6.000000	na
60.529731	0.049430	70.000000	nontarget	7.000000	na
60.579161	0.040143	70.000000	nontarget	8.000000	na
60.619304	0.043243	70.000000	nontarget	9.000000	na
60.662547	0.050548	70.000000	nontarget	10.000000	na
60.713095	0.050386	70.000000	nontarget	11.000000	na
60.763481	0.049577	70.000000	nontarget	12.000000	na
60.813059	0.050499	70.000000	nontarget	13.000000	na
60.863557	0.050127	70.000000	nontarget	14.000000	na
60.913684	0.049390	70.000000	nontarget	15.000000	na
60.963074	0.050442	70.000000	nontarget	16.000000	na
61.013516	0.050054	71.000000	nontarget	1.000000	na
61.063571	0.049983	71.000000	nontarget	2.000000	na
61.113554	0.050098	71.000000	nontarget	3.000000	na
61.163652	0.049971	71.000000	nontarget	4.000000	na
61.213623	0.049812	71.000000	nontarget	5.000000	na
61.263436	0.050074	71.000000	nontarget	6.000000	61.270253
61.313510	0.049976	71.000000	nontarget	7.000000	na
61.363486	0.049944	71.000000	nontarget	8.000000	na
61.413430	0.050002	71.000000	nontarget	9.000000	na
61.463432	0.050047	71.000000	nontarget	10.000000	na
61.513479	0.050090	71.000000	nontarget	11.000000	na
61.563569	0.049885	71.000000	nontarget	12.000000	na
61.613454	0.050012	71.000000	nontarget	13.000000	na
61.663466	0.049980	71.000000	nontarget	14.000000	na
61.713446	0.049612	71.000000	nontarget	15.000000	na
61.763058	0.039722	71.000000	nontarget	16.000000	na
61.802781	0.043965	72.000000	target	1.000000	na
61.846745	0.050058	72.000000	target	2.000000	na
61.896803	0.050008	72.000000	target	3.000000	na
61.946811	0.051966	72.000000	target	4.000000	na
61.998776	0.048066	72.000000	target	5.000000	na
62.046842	0.050004	72.000000	target	6.000000	na
62.096846	0.049919	72.000000	target	7.000000	na
62.146765	0.050039	72.000000	target	8.000000	na
62.196804	0.050114	72.000000	target	9.000000	na
62.246917	0.049401	72.000000	target	10.000000	na
62.296318	0.050484	72.000000	target	11.000000	na
62.346803	0.050136	72.000000	target	12.000000	na
62.396939	0.049732	72.000000	target	13.000000	na
62.446671	0.049569	72.000000	target	14.000000	62.462344
62.496239	0.050609	72.000000	target	15.000000	na
62.546848	0.050171	72.000000	target	16.000000	na
62.597019	0.048858	73.000000	nontarget	1.000000	na
62.645878	0.040113	73.000000	nontarget	2.000000	na
62.685991	0.043809	73.000000	nontarget	3.000000	na
62.729799	0.040360	73.000000	nontarget	4.000000	na
62.770159	0.043379	73.000000	nontarget	5.000000	na
62.813538	0.049921	73.000000	nontarget	6.000000	na
62.863459	0.050006	73.000000	nontarget	7.000000	na
62.913465	0.049893	73.000000	nontarget	8.000000	na
62.963358	0.039905	73.000000	nontarget	9.000000	na
63.003263	0.042948	73.000000	nontarget	10.000000	na
63.046211	0.050805	73.000000	nontarget	11.000000	na
63.097016	0.049795	73.000000	nontarget	12.000000	na
63.146811	0.049950	73.000000	nontarget	13.000000	na
63.196762	0.050001	73.000000	nontarget	14.000000	na
63.246762	0.049680	73.000000	nontarget	15.000000	na
63.296442	0.050422	73.000000	nontarget	16.000000	na
63.346864	0.049932	74.000000	nontarget	1.000000	na
63.396796	0.050038	74.000000	nontarget	2.000000	na
63.446834	0.049862	74.000000	nontarget	3.000000	na
63.496696	0.050147	74.000000	nontarget	4.000000	63.512192
63.546842	0.050007	74.000000	nontarget	5.000000	na
63.596849	0.049899	74.000000	nontarget	6.000000	na
63.646749	0.049564	74.000000	nontarget	7.000000	na
63.696313	0.050481	74.000000	nontarget	8.000000	na
63.746794	0.049097	74.000000	nontarget	9.000000	na
63.795891	0.050912	74.000000	nontarget	10.000000	na
63.846802	0.050079	74.000000	nontarget	11.000000	na
63.896881	0.049255	74.000000	nontarget	12.000000	na
63.946136	0.052964	74.000000	nontarget	13.000000	na
63.999101	0.047750	74.000000	nontarget	14.000000	na
64.046850	0.050188	74.000000	nontarget	15.000000	na
64.097039	0.049431	74.000000	nontarget	16.000000	na
64.146469	0.050355	75.000000	nontarget	1.000000	na
64.196824	0.049501	75.000000	nontarget	2.000000	na
64.246325	0.050485	75.000000	nontarget	3.000000	na
64.296810	0.049375	75.000000	nontarget	4.000000	na
64.346185	0.050593	75.000000	nontarget	5.000000	na
64.396778	0.050121	75.000000	nontarget	6.000000	na
64.446899	0.049939	75.000000	nontarget	7.000000	na
64.496838	0.049761	75.000000	nontarget	8.000000	na
64.546599	0.050387	75.000000	nontarget	9.000000	na
64.596985	0.051617	75.000000	nontarget	10.000000	na
64.648603	0.048092	75.000000	nontarget	11.000000	64.654225
64.696695	0.050147	75.000000	nontarget	12.000000	na
64.746842	0.049506	75.000000	nontarget	13.000000	na
64.796348	0.050613	75.000000	nontarget	14.000000	na
64.846962	0.050002	75.000000	nontarget	15.000000	na
64.896964	0.049876	75.000000	nontarget	16.000000	na
64.946840	0.051931	76.000000	nontarget	1.000000	na
64.998770	0.047164	76.000000	nontarget	2.000000	na
65.045935	0.050914	76.000000	nontarget	3.000000	na
65.096848	0.050003	76.000000	nontarget	4.000000	na
65.146852	0.049419	76.000000	nontarget	5.000000	na
65.196271	0.050198	76.000000	nontarget	6.000000	na
65.246468	0.050410	76.000000	nontarget	7.000000	na
65.296878	0.049399	76.000000	nontarget	8.000000	na
65.346277	0.050715	76.000000	nontarget	9.000000	na
65.396992	0.049681	76.000000	nontarget	10.000000	na
65.446673	0.050113	76.000000	nontarget	11.000000	na
65.496786	0.050030	76.000000	nontarget	12.000000	na
65.546816	0.050187	76.000000	nontarget	13.000000	na
65.597003	0.049467	76.000000	nontarget	14.000000	na
65.646470	0.050220	76.000000	nontarget	15.000000	na
65.696690	0.038871	76.000000	nontarget	16.000000	65.719840
65.735561	0.043908	77.000000	nontarget	1.000000	65.740783
65.779470	0.040012	77.000000	nontarget	2.000000	na
65.819482	0.043785	77.000000	nontarget	3.000000	na
65.863267	0.050156	77.000000	nontarget	4.000000	na
65.913423	0.050067	77.000000	nontarget	5.000000	na
65.963490	0.049015	77.000000	nontarget	6.000000	na
66.012505	0.039833	77.000000	nontarget	7.000000	na
66.052338	0.044590	77.000000	nontarget	8.000000	na
66.096928	0.049901	77.000000	nontarget	9.000000	na
66.146828	0.050008	77.000000	nontarget	10.000000	na
66.196836	0.049976	77.000000	nontarget	11.000000	na
66.246812	0.049821	77.000000	nontarget	12.000000	na
66.296634	0.050138	77.000000	nontarget	13.000000	na
66.346771	0.049230	77.000000	nontarget	14.000000	na
66.396001	0.040073	77.000000	nontarget	15.000000	na
66.436074	0.043875	77.000000	nontarget	16.000000	na
66.479950	0.039592	78.000000	nontarget	1.000000	na
66.519542	0.043315	78.000000	nontarget	2.000000	na
66.562857	0.050107	78.000000	nontarget	3.000000	na
66.612964	0.050499	78.000000	nontarget	4.000000	na
66.663463	0.049782	78.000000	nontarget	5.000000	66.697755
66.713245	0.038942	78.000000	nontarget	6.000000	na
66.752187	0.044708	78.000000	nontarget	7.000000	na
66.796895	0.049882	78.000000	nontarget	8.000000	na
66.846777	0.049464	78.000000	nontarget	9.000000	na
66.896242	0.039269	78.000000	nontarget	10.000000	na
66.935511	0.044821	78.000000	nontarget	11.000000	na
66.980332	0.049041	78.000000	nontarget	12.000000	na
67.029374	0.051002	78.000000	nontarget	13.000000	na
67.080375	0.049604	78.000000	nontarget	14.000000	na
67.129980	0.050142	78.000000	nontarget	15.000000	na
67.180121	0.049558	78.000000	nontarget	16.000000	na
67.229680	0.050153	79.000000	nontarget	1.000000	na
67.279833	0.049998	79.000000	nontarget	2.000000	na
67.329831	0.050218	79.000000	nontarget	3.000000	na
67.380049	0.050208	79.000000	nontarget	4.000000	na
67.430257	0.049246	79.000000	nontarget	5.000000	na
67.479503	0.050636	79.000000	nontarget	6.000000	na
67.530139	0.049941	79.000000	nontarget	7.000000	na
67.580080	0.050031	79.000000	nontarget	8.000000	na
67.630112	0.049459	79.000000	nontarget	9.000000	na
67.679571	0.040546	79.000000	nontarget	10.000000	67.688233
67.720117	0.043524	79.000000	nontarget	11.000000	na
67.763640	0.049857	79.000000	nontarget	12.000000	na
67.813498	0.049933	79.000000	nontarget	13.000000	na
67.863431	0.050055	79.000000	nontarget	14.000000	na
67.913486	0.049998	79.000000	nontarget	15.000000	na
67.963484	0.050038	79.000000	nontarget	16.000000	na
68.013522	0.049469	80.000000	nontarget	1.000000	na
68.062991	0.050742	80.000000	nontarget	2.000000	na
68.113733	0.049214	80.000000	nontarget	3.000000	na
68.162947	0.050519	80.000000	nontarget	4.000000	na
68.213466	0.049482	80.000000	nontarget	5.000000	na
68.262948	0.050310	80.000000	nontarget	6.000000	na
68.313258	0.050120	80.000000	nontarget	7.000000	na
68.363378	0.049582	80.000000	nontarget	8.000000	na
68.412959	0.050471	80.000000	nontarget	9.000000	na
68.463431	0.050004	80.000000	nontarget	10.000000	na
68.513434	0.049670	80.000000	nontarget	11.000000	na
68.563104	0.050378	80.000000	nontarget	12.000000	na
68.613482	0.049966	80.000000	nontarget	13.000000	na
68.663448	0.050082	80.000000	nontarget	14.000000	na
68.713531	0.049578	80.000000	nontarget	15.000000	na
68.763109	0.050218	80.000000	nontarget	16.000000	na
68.813327	0.049606	81.000000	nontarget	1.000000	na
68.862932	0.050392	81.000000	nontarget	2.000000	68.890160
68.913325	0.050179	81.000000	nontarget	3.000000	na
68.963504	0.049997	81.000000	nontarget	4.000000	na
69.013500	0.039793	81.000000	nontarget	5.000000	na
69.053293	0.042640	81.000000	nontarget	6.000000	na
69.095933	0.040228	81.000000	nontarget	7.000000	na
69.136162	0.043762	81.000000	nontarget	8.000000	na
69.179924	0.039598	81.000000	nontarget	9.000000	na
69.219522	0.042919	81.000000	nontarget	10.000000	na
69.262441	0.039818	81.000000	nontarget	11.000000	na
69.302259	0.044495	81.000000	nontarget	12.000000	na
69.346754	0.050191	81.000000	nontarget	13.000000	na
69.396945	0.049311	81.000000	nontarget	14.000000	na
69.446257	0.050026	81.000000	nontarget	15.000000	na
69.496282	0.050436	81.000000	nontarget	16.000000	na
69.546718	0.050086	82.000000	nontarget	1.000000	na
69.596804	0.050003	82.000000	nontarget	2.000000	na
69.646807	0.049939	82.000000	nontarget	3.000000	na
69.696746	0.049655	82.000000	nontarget	4.000000	na
69.746401	0.040041	82.000000	nontarget	5.000000	na
69.786443	0.043622	82.000000	nontarget	6.000000	na
69.830065	0.049845	82.000000	nontarget	7.000000	69.841196
69.879909	0.050116	82.000000	nontarget	8.000000	na
69.930025	0.049821	82.000000	nontarget	9.000000	na
69.979846	0.050325	82.000000	nontarget	10.000000	na
70.030171	0.049834	82.000000	nontarget	11.000000	na
70.080005	0.049940	82.000000	nontarget	12.000000	na
70.129945	0.050187	82.000000	nontarget	13.000000	na
70.180133	0.049792	82.000000	nontarget	14.000000	na
70.229924	0.049590	82.000000	nontarget	15.000000	na
70.279515	0.050379	82.000000	nontarget	16.000000	na
70.329893	0.050101	83.000000	nontarget	1.000000	na
70.379994	0.049546	83.000000	nontarget	2.000000	na
70.429541	0.050446	83.000000	nontarget	3.000000	na
70.479987	0.050128	83.000000	nontarget	4.000000	na
70.530115	0.049312	83.000000	nontarget	5.000000	na
70.579427	0.050615	83.000000	nontarget	6.000000	70.614627
70.630041	0.049509	83.000000	nontarget	7.000000	na
70.679550	0.050611	83.000000	nontarget	8.000000	na
70.730162	0.050137	83.000000	nontarget	9.000000	na
70.780299	0.049807	83.000000	nontarget	10.000000	na
70.830106	0.049424	83.000000	nontarget	11.000000	na
70.879530	0.050801	83.000000	nontarget	12.000000	na
70.930331	0.049738	83.000000	nontarget	13.000000	na
70.980068	0.050276	83.000000	nontarget	14.000000	na
71.030345	0.049840	83.000000	nontarget	15.000000	na
71.080185	0.049982	83.000000	nontarget	16.000000	na
71.130166	0.049924	84.000000	nontarget	1.000000	na
71.180090	0.049431	84.000000	nontarget	2.000000	na
71.229521	0.050589	84.000000	nontarget	3.000000	na
71.280110	0.049866	84.000000	nontarget	4.000000	na
71.329976	0.050065	84.000000	nontarget	5.000000	na
71.380041	0.038542	84.000000	nontarget	6.000000	na
71.418583	0.044448	84.000000	nontarget	7.000000	71.426228
71.463031	0.050482	84.000000	nontarget	8.000000	na
71.513513	0.049415	84.000000	nontarget	9.000000	na
71.562928	0.050029	84.000000	nontarget	10.000000	na
71.612957	0.049858	84.000000	nontarget	11.000000	na
71.662815	0.050698	84.000000	nontarget	12.000000	na
71.713513	0.050010	84.000000	nontarget	13.000000	na
71.763523	0.049952	84.000000	nontarget	14.000000	na
71.813475	0.049904	84.000000	nontarget	15.000000	na
71.863379	0.050095	84.000000	nontarget	16.000000	na
71.913474	0.049629	85.000000	nontarget	1.000000	na
71.963103	0.050724	85.000000	nontarget	2.000000	na
72.013827	0.049708	85.000000	nontarget	3.000000	na
72.063535	0.049961	85.000000	nontarget	4.000000	na
72.113496	0.049965	85.000000	nontarget	5.000000	na
72.163461	0.050073	85.000000	nontarget	6.000000	72.183699
72.213535	0.049973	85.000000	nontarget	7.000000	na
72.263508	0.049640	85.000000	nontarget	8.000000	na
72.313148	0.049763	85.000000	nontarget	9.000000	na
72.362912	0.050425	85.000000	nontarget	10.000000	na
72.413337	0.050123	85.000000	nontarget	11.000000	na
72.463459	0.050016	85.000000	nontarget	12.000000	na
72.513476	0.049789	85.000000	nontarget	13.000000	na
72.563265	0.050137	85.000000	nontarget	14.000000	na
72.613403	0.050061	85.000000	nontarget	15.000000	na
72.663463	0.049822	85.000000	nontarget	16.000000	na
72.713285	0.050000	86.000000	nontarget	1.000000	na
72.763285	0.050193	86.000000	nontarget	2.000000	na
72.813478	0.049231	86.000000	nontarget	3.000000	na
72.862709	0.040037	86.000000	nontarget	4.000000	na
72.902747	0.043023	86.000000	nontarget	5.000000	na
72.945770	0.053074	86.000000	nontarget	6.000000	na
72.998843	0.048104	86.000000	nontarget	7.000000	na
73.046948	0.039034	86.000000	nontarget	8.000000	73.053724
73.085981	0.043346	86.000000	nontarget	9.000000	na
73.129327	0.050849	86.000000	nontarget	10.000000	na
73.180176	0.049697	86.000000	nontarget	11.000000	na
73.229874	0.050238	86.000000	nontarget	12.000000	na
73.280112	0.049394	86.000000	nontarget	13.000000	na
73.329506	0.050067	86.000000	nontarget	14.000000	na
73.379573	0.049907	86.000000	nontarget	15.000000	na
73.429479	0.050709	86.000000	nontarget	16.000000	na
73.480188	0.049533	87.000000	nontarget	1.000000	na
73.529721	0.049854	87.000000	nontarget	2.000000	na
73.579575	0.050548	87.000000	nontarget	3.000000	na
73.630123	0.049998	87.000000	nontarget	4.000000	na
73.680121	0.050250	87.000000	nontarget	5.000000	na
73.730371	0.049707	87.000000	nontarget	6.000000	na
73.780078	0.049826	87.000000	nontarget	7.000000	na
73.829904	0.050302	87.000000	nontarget	8.000000	na
73.880206	0.049835	87.000000	nontarget	9.000000	na
73.930041	0.050134	87.000000	nontarget	10.000000	na
73.980175	0.049400	87.000000	nontarget	11.000000	na
74.029575	0.039507	87.000000	nontarget	12.000000	74.037836
74.069082	0.044436	87.000000	nontarget	13.000000	na
74.113518	0.049243	87.000000	nontarget	14.000000	na
74.162761	0.050586	87.000000	nontarget	15.000000	na
74.213347	0.038736	87.000000	nontarget	16.000000	na
74.252083	0.044459	88.000000	nontarget	1.000000	na
74.296542	0.050141	88.000000	nontarget	2.000000	na
74.346683	0.049518	88.000000	nontarget	3.000000	na
74.396201	0.050141	88.000000	nontarget	4.000000	na
74.446342	0.050496	88.000000	nontarget	5.000000	na
74.496838	0.049973	88.000000	nontarget	6.000000	na
74.546811	0.049793	88.000000	nontarget	7.000000	na
74.596604	0.050220	88.000000	nontarget	8.000000	na
74.646824	0.049912	88.000000	nontarget	9.000000	na
74.696736	0.050105	88.000000	nontarget	10.000000	na
74.746841	0.049302	88.000000	nontarget	11.000000	na
74.796142	0.050676	88.000000	nontarget	12.000000	na
74.846819	0.049998	88.000000	nontarget	13.000000	na
74.896816	0.049536	88.000000	nontarget	14.000000	74.920984
74.946352	0.052310	88.000000	nontarget	15.000000	na
74.998662	0.048043	88.000000	nontarget	16.000000	na
75.046705	0.050054	89.000000	nontarget	1.000000	75.053324
75.096759	0.049143	89.000000	nontarget	2.000000	na
75.145902	0.050961	89.000000	nontarget	3.000000	na
75.196863	0.049870	89.000000	nontarget	4.000000	na
75.246733	0.050290	89.000000	nontarget	5.000000	na
75.297023	0.048880	89.000000	nontarget	6.000000	na
75.345902	0.040028	89.000000	nontarget	7.000000	na
75.385931	0.044131	89.000000	nontarget	8.000000	na
75.430061	0.050177	89.000000	nontarget	9.000000	na
75.480238	0.049282	89.000000	nontarget	10.000000	na
75.529520	0.050580	89.000000	nontarget	11.000000	na
75.580100	0.049356	89.000000	nontarget	12.000000	na
75.629456	0.050599	89.000000	nontarget	13.000000	na
75.680055	0.049823	89.000000	nontarget	14.000000	na
75.729878	0.050003	89.000000	nontarget	15.000000	na
75.779882	0.050304	89.000000	nontarget	16.000000	75.788834
75.830185	0.049293	90.000000	nontarget	1.000000	75.837146
75.879478	0.050471	90.000000	nontarget	2.000000	na
75.929950	0.050000	90.000000	nontarget	3.000000	na
75.979950	0.050223	90.000000	nontarget	4.000000	na
76.030173	0.050280	90.000000	nontarget	5.000000	na
76.080453	0.049481	90.000000	nontarget	6.000000	na
76.129934	0.049250	90.000000	nontarget	7.000000	na
76.179184	0.050942	90.000000	nontarget	8.000000	na
76.230126	0.049034	90.000000	nontarget	9.000000	na
76.279160	0.050898	90.000000	nontarget	10.000000	na
76.330058	0.050086	90.000000	nontarget	11.000000	na
76.380144	0.049364	90.000000	nontarget	12.000000	na
76.429508	0.049859	90.000000	nontarget	13.000000	na
76.479367	0.050125	90.000000	nontarget	14.000000	na
76.529492	0.050499	90.000000	nontarget	15.000000	na
76.579990	0.050076	90.000000	nontarget	16.000000	na
76.630066	0.050054	91.000000	nontarget	1.000000	na
76.680120	0.049819	91.000000	nontarget	2.000000	na
76.729939	0.049925	91.000000	nontarget	3.000000	na
76.779864	0.050198	91.000000	nontarget	4.000000	na
76.830062	0.049205	91.000000	nontarget	5.000000	76.837125
76.879267	0.050657	91.000000	nontarget	6.000000	na
76.929924	0.049793	91.000000	nontarget	7.000000	na
76.979717	0.049848	91.000000	nontarget	8.000000	na
77.029565	0.049942	91.000000	nontarget	9.000000	na
77.079507	0.050706	91.000000	nontarget	10.000000	na
77.130213	0.049258	91.000000	nontarget	11.000000	na
77.179471	0.050649	91.000000	nontarget	12.000000	na
77.230120	0.050182	91.000000	nontarget	13.000000	na
77.280302	0.049530	91.000000	nontarget	14.000000	na
77.329832	0.049756	91.000000	nontarget	15.000000	na
77.379588	0.050526	91.000000	nontarget	16.000000	na
77.430114	0.049933	92.000000	nontarget	1.000000	na
77.480047	0.050070	92.000000	nontarget	2.000000	na
77.530117	0.049720	92.000000	nontarget	3.000000	na
77.579837	0.050355	92.000000	nontarget	4.000000	na
77.630192	0.049972	92.000000	nontarget	5.000000	na
77.680163	0.049776	92.000000	nontarget	6.000000	na
77.729940	0.043026	92.000000	nontarget	7.000000	77.757325
77.772966	0.046974	92.000000	nontarget	8.000000	na
77.819939	0.043733	92.000000	nontarget	9.000000	na
77.863673	0.049497	92.000000	nontarget	10.000000	na
77.913170	0.050489	92.000000	nontarget	11.000000	na
77.963658	0.050199	92.000000	nontarget	12.000000	na
78.013857	0.049645	92.000000	nontarget	13.000000	na
78.063502	0.050032	92.000000	nontarget	14.000000	na
78.113534	0.049228	92.000000	nontarget	15.000000	na
78.162762	0.039802	92.000000	nontarget	16.000000	na
78.202563	0.043527	93.000000	nontarget	1.000000	na
78.246091	0.050724	93.000000	nontarget	2.000000	na
78.296814	0.049091	93.000000	nontarget	3.000000	na
78.345905	0.050869	93.000000	nontarget	4.000000	na
78.396773	0.049333	93.000000	nontarget	5.000000	na
78.446107	0.050477	93.000000	nontarget	6.000000	na
78.496584	0.049319	93.000000	nontarget	7.000000	na
78.545903	0.039972	93.000000	nontarget	8.000000	na
78.585874	0.044293	93.000000	nontarget	9.000000	na
78.630168	0.050142	93.000000	nontarget	10.000000	na
78.680310	0.049800	93.000000	nontarget	11.000000	78.687033
78.730109	0.050035	93.000000	nontarget	12.000000	na
78.780144	0.049987	93.000000	nontarget	13.000000	na
78.830131	0.049979	93.000000	nontarget	14.000000	na
78.880109	0.049824	93.000000	nontarget	15.000000	na
78.929934	0.049970	93.000000	nontarget	16.000000	na
78.979903	0.049664	94.000000	target	1.000000	na
79.029567	0.050617	94.000000	target	2.000000	na
79.080184	0.049809	94.000000	target	3.000000	na
79.129993	0.050200	94.000000	target	4.000000	na
79.180192	0.049930	94.000000	target	5.000000	na
79.230122	0.049996	94.000000	target	6.000000	na
79.280118	0.049816	94.000000	target	7.000000	na
79.329934	0.050187	94.000000	target	8.000000	na
79.380121	0.050005	94.000000	target	9.000000	na
79.430126	0.049324	94.000000	target	10.000000	na
79.479450	0.050676	94.000000	target	11.000000	na
79.530126	0.049678	94.000000	target	12.000000	na
79.579804	0.050148	94.000000	target	13.000000	na
79.629952	0.050182	94.000000	target	14.000000	na
79.680134	0.049754	94.000000	target	15.000000	na
79.729888	0.050206	94.000000	target	16.000000	na
79.780095	0.049423	95.000000	nontarget	1.000000	79.812100
79.829517	0.050817	95.000000	nontarget	2.000000	na
79.880334	0.049113	95.000000	nontarget	3.000000	na
79.929447	0.049954	95.000000	nontarget	4.000000	na
79.979402	0.039905	95.000000	nontarget	5.000000	na
80.019307	0.043887	95.000000	nontarget	6.000000	na
80.063194	0.050408	95.000000	nontarget	7.000000	na
80.113602	0.049933	95.000000	nontarget	8.000000	na
80.163535	0.049173	95.000000	nontarget	9.000000	na
80.212708	0.039906	95.000000	nontarget	10.000000	na
80.252614	0.043645	95.000000	nontarget	11.000000	na
80.296259	0.050180	95.000000	nontarget	12.000000	na
80.346439	0.050367	95.000000	nontarget	13.000000	na
80.396806	0.050050	95.000000	nontarget	14.000000	na
80.446856	0.049201	95.000000	nontarget	15.000000	na
80.496057	0.049812	95.000000	nontarget	16.000000	na
80.545869	0.050242	96.000000	nontarget	1.000000	na
80.596112	0.050121	96.000000	nontarget	2.000000	na
80.646232	0.049887	96.000000	nontarget	3.000000	na
80.696119	0.050612	96.000000	nontarget	4.000000	na
80.746732	0.049974	96.000000	nontarget	5.000000	na
80.796706	0.049628	96.000000	nontarget	6.000000	na
80.846334	0.050520	96.000000	nontarget	7.000000	na
80.896855	0.049859	96.000000	nontarget	8.000000	na
80.946714	0.053882	96.000000	nontarget	9.000000	80.958056
81.000596	0.046251	96.000000	nontarget	10.000000	na
81.046847	0.050076	96.000000	nontarget	11.000000	na
81.096923	0.049667	96.000000	nontarget	12.000000	na
81.146590	0.049482	96.000000	nontarget	13.000000	na
81.196072	0.050376	96.000000	nontarget	14.000000	na
81.246448	0.050282	96.000000	nontarget	15.000000	na
81.296730	0.049513	96.000000	nontarget	16.000000	na
81.346243	0.050011	97.000000	nontarget	1.000000	na
81.396254	0.049793	97.000000	nontarget	2.000000	na
81.446047	0.050212	97.000000	nontarget	3.000000	na
81.496259	0.049656	97.000000	nontarget	4.000000	na
81.545916	0.050525	97.000000	nontarget	5.000000	na
81.596441	0.050005	97.000000	nontarget	6.000000	na
81.646445	0.050292	97.000000	nontarget	7.000000	na
81.696737	0.050062	97.000000	nontarget	8.000000	na
81.746799	0.049346	97.000000	nontarget	9.000000	na
81.796145	0.049966	97.000000	nontarget	10.000000	na
81.846111	0.049925	97.000000	nontarget	11.000000	81.853505
81.896036	0.050773	97.000000	nontarget	12.000000	na
81.946809	0.051853	97.000000	nontarget	13.000000	na
81.998662	0.048078	97.000000	nontarget	14.000000	na
82.046740	0.049146	97.000000	nontarget	15.000000	na
82.095886	0.039994	97.000000	nontarget	16.000000	na
82.135880	0.044190	98.000000	nontarget	1.000000	na
82.180071	0.049744	98.000000	nontarget	2.000000	na
82.229814	0.050104	98.000000	nontarget	3.000000	na
82.279918	0.050198	98.000000	nontarget	4.000000	na
82.330116	0.050003	98.000000	nontarget	5.000000	na
82.380119	0.049248	98.000000	nontarget	6.000000	na
82.429368	0.050777	98.000000	nontarget	7.000000	na
82.480145	0.049971	98.000000	nontarget	8.000000	na
82.530116	0.049248	98.000000	nontarget	9.000000	na
82.579363	0.050763	98.000000	nontarget	10.000000	na
82.630127	0.049240	98.000000	nontarget	11.000000	na
82.679367	0.050771	98.000000	nontarget	12.000000	na
82.730138	0.049962	98.000000	nontarget	13.000000	na
82.780100	0.049295	98.000000	nontarget	14.000000	na
82.829395	0.050867	98.000000	nontarget	15.000000	na
82.880261	0.049770	98.000000	nontarget	16.000000	82.912359
82.930031	0.049237	99.000000	nontarget	1.000000	82.936726
82.979268	0.050787	99.000000	nontarget	2.000000	na
83.030055	0.049181	99.000000	nontarget	3.000000	na
83.079237	0.050725	99.000000	nontarget	4.000000	na
83.129962	0.050215	99.000000	nontarget	5.000000	na
83.180176	0.049952	99.000000	nontarget	6.000000	na
83.230129	0.049251	99.000000	nontarget	7.000000	na
83.279380	0.050409	99.000000	nontarget	8.000000	na
83.329789	0.050254	99.000000	nontarget	9.000000	na
83.380042	0.050218	99.000000	nontarget	10.000000	na
83.430260	0.049626	99.000000	nontarget	11.000000	na
83.479886	0.050122	99.000000	nontarget	12.000000	na
83.530008	0.050115	99.000000	nontarget	13.000000	na
83.580124	0.050014	99.000000	nontarget	14.000000	na
83.630138	0.050124	99.000000	nontarget	15.000000	na
83.680261	0.049862	99.000000	nontarget	16.000000	na
83.730123	0.049985	100.000000	target	1.000000	na
83.780108	0.049361	100.000000	target	2.000000	na
83.829469	0.050600	100.000000	target	3.000000	na
83.880069	0.050049	100.000000	target	4.000000	na
83.930117	0.049983	100.000000	target	5.000000	na
83.980100	0.050231	100.000000	target	6.000000	na
84.030331	0.049705	100.000000	target	7.000000	na
84.080036	0.049933	100.000000	target	8.000000	na
84.129969	0.049737	100.000000	target	9.000000	na
84.179706	0.050500	100.000000	target	10.000000	na
84.230206	0.050054	100.000000	target	11.000000	na
84.280260	0.049620	100.000000	target	12.000000	na
84.329880	0.049097	100.000000	target	13.000000	na
84.378977	0.040292	100.000000	target	14.000000	84.387762
84.419270	0.044138	100.000000	target	15.000000	na
84.463408	0.050144	100.000000	target	16.000000	na
84.513552	0.049928	101.000000	nontarget	1.000000	84.520172
84.563481	0.049012	101.000000	nontarget	2.000000	na
84.612493	0.050074	101.000000	nontarget	3.000000	na
84.662567	0.039984	101.000000	nontarget	4.000000	na
84.702551	0.043224	101.000000	nontarget	5.000000	na
84.745775	0.051024	101.000000	nontarget	6.000000	na
84.796799	0.049457	101.000000	nontarget	7.000000	na
84.846257	0.050673	101.000000	nontarget	8.000000	na
84.896930	0.049163	101.000000	nontarget	9.000000	na
84.946093	0.052755	101.000000	nontarget	10.000000	na
84.998848	0.048140	101.000000	nontarget	11.000000	na
85.046988	0.049208	101.000000	nontarget	12.000000	na
85.096196	0.050618	101.000000	nontarget	13.000000	na
85.146815	0.049983	101.000000	nontarget	14.000000	na
85.196797	0.049252	101.000000	nontarget	15.000000	na
85.246050	0.051016	101.000000	nontarget	16.000000	na
85.297066	0.049781	102.000000	nontarget	1.000000	85.303265
85.346847	0.049957	102.000000	nontarget	2.000000	na
85.396804	0.049738	102.000000	nontarget	3.000000	na
85.446542	0.050003	102.000000	nontarget	4.000000	na
85.496545	0.050476	102.000000	nontarget	5.000000	na
85.547022	0.049485	102.000000	nontarget	6.000000	na
85.596507	0.050371	102.000000	nontarget	7.000000	na
85.646878	0.049930	102.000000	nontarget	8.000000	na
85.696808	0.049100	102.000000	nontarget	9.000000	na
85.745908	0.050727	102.000000	nontarget	10.000000	na
85.796635	0.049828	102.000000	nontarget	11.000000	na
85.846463	0.050283	102.000000	nontarget	12.000000	na
85.896746	0.050310	102.000000	nontarget	13.000000	na
85.947056	0.051873	102.000000	nontarget	14.000000	na
85.998929	0.047645	102.000000	nontarget	15.000000	na
86.046574	0.050043	102.000000	nontarget	16.000000	na
86.096617	0.050450	103.000000	nontarget	1.000000	86.116528
86.147067	0.049791	103.000000	nontarget	2.000000	na
86.196858	0.049608	103.000000	nontarget	3.000000	na
86.246466	0.050000	103.000000	nontarget	4.000000	na
86.296466	0.049895	103.000000	nontarget	5.000000	na
86.346361	0.050479	103.000000	nontarget	6.000000	na
86.396841	0.049989	103.000000	nontarget	7.000000	na
86.446830	0.049318	103.000000	nontarget	8.000000	na
86.496148	0.050677	103.000000	nontarget	9.000000	na
86.546825	0.049974	103.000000	nontarget	10.000000	na
86.596799	0.050011	103.000000	nontarget	11.000000	na
86.646810	0.050217	103.000000	nontarget	12.000000	na
86.697027	0.049783	103.000000	nontarget	13.000000	na
86.746809	0.050206	103.000000	nontarget	14.000000	na
86.797016	0.049986	103.000000	nontarget	15.000000	na
86.847002	0.049799	103.000000	nontarget	16.000000	na
86.896800	0.049986	104.000000	nontarget	1.000000	na
86.946786	0.051948	104.000000	nontarget	2.000000	86.974184
86.998734	0.047373	104.000000	nontarget	3.000000	na
87.046107	0.050740	104.000000	nontarget	4.000000	na
87.096847	0.049978	104.000000	nontarget	5.000000	na
87.146825	0.049989	104.000000	nontarget	6.000000	na
87.196813	0.049501	104.000000	nontarget	7.000000	na
87.246314	0.050157	104.000000	nontarget	8.000000	na
87.296471	0.050328	104.000000	nontarget	9.000000	na
87.346799	0.049346	104.000000	nontarget	10.000000	na
87.396145	0.050336	104.000000	nontarget	11.000000	na
87.446481	0.050324	104.000000	nontarget	12.000000	na
87.496805	0.049284	104.000000	nontarget	13.000000	na
87.546090	0.050895	104.000000	nontarget	14.000000	na
87.596984	0.049826	104.000000	nontarget	15.000000	na
87.646811	0.050006	104.000000	nontarget	16.000000	na
87.696816	0.050205	105.000000	nontarget	1.000000	na
87.747021	0.048902	105.000000	nontarget	2.000000	na
87.795923	0.050884	105.000000	nontarget	3.000000	na
87.846807	0.049991	105.000000	nontarget	4.000000	na
87.896798	0.049072	105.000000	nontarget	5.000000	na
87.945871	0.039896	105.000000	nontarget	6.000000	na
87.985766	0.044308	105.000000	nontarget	7.000000	na
88.030074	0.049698	105.000000	nontarget	8.000000	88.061164
88.079772	0.050411	105.000000	nontarget	9.000000	na
88.130183	0.049192	105.000000	nontarget	10.000000	na
88.179375	0.050372	105.000000	nontarget	11.000000	na
88.229747	0.050547	105.000000	nontarget	12.000000	na
88.280294	0.048925	105.000000	nontarget	13.000000	na
88.329219	0.051020	105.000000	nontarget	14.000000	na
88.380239	0.049872	105.000000	nontarget	15.000000	na
88.430111	0.049790	105.000000	nontarget	16.000000	na
88.479901	0.049245	106.000000	nontarget	1.000000	na
88.529146	0.050975	106.000000	nontarget	2.000000	na
88.580121	0.049994	106.000000	nontarget	3.000000	na
88.630115	0.049271	106.000000	nontarget	4.000000	na
88.679386	0.050251	106.000000	nontarget	5.000000	na
88.729637	0.050369	106.000000	nontarget	6.000000	na
88.780005	0.049228	106.000000	nontarget	7.000000	na
88.829233	0.050898	106.000000	nontarget	8.000000	na
88.880131	0.049862	106.000000	nontarget	9.000000	na
88.929993	0.050263	106.000000	nontarget	10.000000	88.961864
88.980256	0.038819	106.000000	nontarget	11.000000	na
89.019075	0.043790	106.000000	nontarget	12.000000	na
89.062865	0.050614	106.000000	nontarget	13.000000	na
89.113479	0.050103	106.000000	nontarget	14.000000	na
89.163582	0.049886	106.000000	nontarget	15.000000	na
89.213469	0.050111	106.000000	nontarget	16.000000	na
89.263580	0.049887	107.000000	nontarget	1.000000	na
89.313467	0.050184	107.000000	nontarget	2.000000	na
89.363651	0.049305	107.000000	nontarget	3.000000	na
89.412956	0.050515	107.000000	nontarget	4.000000	na
89.463471	0.050257	107.000000	nontarget	5.000000	na
89.513728	0.049897	107.000000	nontarget	6.000000	na
89.563625	0.049458	107.000000	nontarget	7.000000	na
89.613083	0.049773	107.000000	nontarget	8.000000	na
89.662856	0.050014	107.000000	nontarget	9.000000	na
89.712870	0.050374	107.000000	nontarget	10.000000	na
89.763244	0.050211	107.000000	nontarget	11.000000	na
89.813455	0.049998	107.000000	nontarget	12.000000	na
89.863452	0.049323	107.000000	nontarget	13.000000	na
89.912775	0.050090	107.000000	nontarget	14.000000	na
89.962866	0.050587	107.000000	nontarget	15.000000	na
90.013453	0.049429	107.000000	nontarget	16.000000	na
90.062882	0.049916	108.000000	nontarget	1.000000	90.090601
90.112798	0.050349	108.000000	nontarget	2.000000	na
90.163146	0.050301	108.000000	nontarget	3.000000	na
90.213447	0.050045	108.000000	nontarget	4.000000	na
90.263492	0.050090	108.000000	nontarget	5.000000	na
90.313582	0.049260	108.000000	nontarget	6.000000	na
90.362842	0.050624	108.000000	nontarget	7.000000	na
90.413466	0.049345	108.000000	nontarget	8.000000	na
90.462811	0.050642	108.000000	nontarget	9.000000	na
90.513454	0.050006	108.000000	nontarget	10.000000	na
90.563459	0.049494	108.000000	nontarget	11.000000	na
90.612953	0.050518	108.000000	nontarget	12.000000	na
90.663472	0.050026	108.000000	nontarget	13.000000	na
90.713497	0.049771	108.000000	nontarget	14.000000	na
90.763269	0.050314	108.000000	nontarget	15.000000	na
90.813583	0.050108	108.000000	nontarget	16.000000	90.825225
90.863691	0.050044	109.000000	nontarget	1.000000	90.870294
90.913735	0.049916	109.000000	nontarget	2.000000	na
90.963651	0.049864	109.000000	nontarget	3.000000	na
91.013515	0.049436	109.000000	nontarget	4.000000	na
91.062951	0.050736	109.000000	nontarget	5.000000	na
91.113687	0.049889	109.000000	nontarget	6.000000	na
91.163576	0.049577	109.000000	nontarget	7.000000	na
91.213153	0.050326	109.000000	nontarget	8.000000	na
91.263479	0.049371	109.000000	nontarget	9.000000	na
91.312851	0.049990	109.000000	nontarget	10.000000	na
91.362841	0.050869	109.000000	nontarget	11.000000	na
91.413710	0.049754	109.000000	nontarget	12.000000	na
91.463464	0.050117	109.000000	nontarget	13.000000	na
91.513581	0.050094	109.000000	nontarget	14.000000	na
91.563675	0.049768	109.000000	nontarget	15.000000	na
91.613443	0.049643	109.000000	nontarget	16.000000	na
91.663086	0.050370	110.000000	target	1.000000	na
91.713456	0.049802	110.000000	target	2.000000	na
91.763258	0.050350	110.000000	target	3.000000	na
91.813608	0.050089	110.000000	target	4.000000	na
91.863697	0.049825	110.000000	target	5.000000	na
91.913521	0.049217	110.000000	target	6.000000	na
91.962738	0.051144	110.000000	target	7.000000	na
92.013882	0.049877	110.000000	target	8.000000	na
92.063758	0.049108	110.000000	target	9.000000	na
92.112866	0.050039	110.000000	target	10.000000	na
92.162905	0.050314	110.000000	target	11.000000	na
92.213220	0.050049	110.000000	target	12.000000	na
92.263269	0.050286	110.000000	target	13.000000	na
92.313555	0.050045	110.000000	target	14.000000	na
92.363600	0.049866	110.000000	target	15.000000	na
92.413465	0.050080	110.000000	target	16.000000	na
92.463545	0.049950	111.000000	nontarget	1.000000	na
92.513495	0.049968	111.000000	nontarget	2.000000	92.520432
92.563463	0.049744	111.000000	nontarget	3.000000	na
92.613207	0.050302	111.000000	nontarget	4.000000	na
92.663508	0.050171	111.000000	nontarget	5.000000	na
92.713680	0.049586	111.000000	nontarget	6.000000	na
92.763265	0.049499	111.000000	nontarget	7.000000	na
92.812765	0.050807	111.000000	nontarget	8.000000	na
92.863571	0.049659	111.000000	nontarget	9.000000	na
92.913230	0.050161	111.000000	nontarget	10.000000	na
92.963392	0.049113	111.000000	nontarget	11.000000	na
93.012505	0.051030	111.000000	nontarget	12.000000	na
93.063535	0.050006	111.000000	nontarget	13.000000	na
93.113540	0.050176	111.000000	nontarget	14.000000	na
93.163716	0.049068	111.000000	nontarget	15.000000	na
93.212784	0.050697	111.000000	nontarget	16.000000	na
93.263481	0.050061	112.000000	nontarget	1.000000	na
93.313542	0.049106	112.000000	nontarget	2.000000	93.324842
93.362648	0.050862	112.000000	nontarget	3.000000	na
93.413510	0.049459	112.000000	nontarget	4.000000	na
93.462969	0.049761	112.000000	nontarget	5.000000	na
93.512730	0.050741	112.000000	nontarget	6.000000	na
93.563471	0.049498	112.000000	nontarget	7.000000	na
93.612969	0.050606	112.000000	nontarget	8.000000	na
93.663576	0.049517	112.000000	nontarget	9.000000	na
93.713093	0.050413	112.000000	nontarget	10.000000	na
93.763506	0.049951	112.000000	nontarget	11.000000	na
93.813457	0.050092	112.000000	nontarget	12.000000	na
93.863549	0.050003	112.000000	nontarget	13.000000	na
93.913552	0.049818	112.000000	nontarget	14.000000	na
93.963370	0.050487	112.000000	nontarget	15.000000	na
94.013857	0.048818	112.000000	nontarget	16.000000	na
94.062674	0.050204	113.000000	nontarget	1.000000	na
94.112878	0.049969	113.000000	nontarget	2.000000	na
94.162847	0.050097	113.000000	nontarget	3.000000	94.186126
94.212943	0.050412	113.000000	nontarget	4.000000	na
94.263356	0.050327	113.000000	nontarget	5.000000	na
94.313683	0.049562	113.000000	nontarget	6.000000	na
94.363245	0.050168	113.000000	nontarget	7.000000	na
94.413413	0.049953	113.000000	nontarget	8.000000	na
94.463366	0.049757	113.000000	nontarget	9.000000	na
94.513123	0.050334	113.000000	nontarget	10.000000	na
94.563457	0.050116	113.000000	nontarget	11.000000	na
94.613573	0.049892	113.000000	nontarget	12.000000	na
94.663466	0.050090	113.000000	nontarget	13.000000	na
94.713555	0.050024	113.000000	nontarget	14.000000	na
94.763580	0.049873	113.000000	nontarget	15.000000	na
94.813453	0.049999	113.000000	nontarget	16.000000	na
94.863452	0.050098	114.000000	nontarget	1.000000	na
94.913550	0.049969	114.000000	nontarget	2.000000	na
94.963519	0.050127	114.000000	nontarget	3.000000	na
95.013646	0.049857	114.000000	nontarget	4.000000	na
95.063503	0.050103	114.000000	nontarget	5.000000	na
95.113606	0.049715	114.000000	nontarget	6.000000	na
95.163321	0.050117	114.000000	nontarget	7.000000	na
95.213438	0.050138	114.000000	nontarget	8.000000	95.220198
95.263576	0.049986	114.000000	nontarget	9.000000	na
95.313562	0.049995	114.000000	nontarget	10.000000	na
95.363557	0.049909	114.000000	nontarget	11.000000	na
95.413466	0.049918	114.000000	nontarget	12.000000	na
95.463384	0.050208	114.000000	nontarget	13.000000	na
95.513592	0.050001	114.000000	nontarget	14.000000	na
95.563594	0.049873	114.000000	nontarget	15.000000	na
95.613467	0.050170	114.000000	nontarget	16.000000	na
95.663636	0.049905	115.000000	nontarget	1.000000	na
95.713541	0.049983	115.000000	nontarget	2.000000	na
95.763524	0.050000	115.000000	nontarget	3.000000	na
95.813524	0.049970	115.000000	nontarget	4.000000	na
95.863494	0.050032	115.000000	nontarget	5.000000	na
95.913527	0.049731	115.000000	nontarget	6.000000	na
95.963257	0.039118	115.000000	nontarget	7.000000	na
96.002375	0.044257	115.000000	nontarget	8.000000	na
96.046632	0.050210	115.000000	nontarget	9.000000	na
96.096842	0.049977	115.000000	nontarget	10.000000	96.132724
96.146819	0.050133	115.000000	nontarget	11.000000	na
96.196952	0.049965	115.000000	nontarget	12.000000	na
96.246917	0.049898	115.000000	nontarget	13.000000	na
96.296815	0.049013	115.000000	nontarget	14.000000	na
96.345828	0.039975	115.000000	nontarget	15.000000	na
96.385804	0.044253	115.000000	nontarget	16.000000	na
96.430057	0.050087	116.000000	nontarget	1.000000	na
96.480144	0.050193	116.000000	nontarget	2.000000	na
96.530337	0.049922	116.000000	nontarget	3.000000	na
96.580259	0.049871	116.000000	nontarget	4.000000	na
96.630130	0.050049	116.000000	nontarget	5.000000	na
96.680179	0.049767	116.000000	nontarget	6.000000	na
96.729946	0.050114	116.000000	nontarget	7.000000	na
96.780061	0.050149	116.000000	nontarget	8.000000	na
96.830210	0.050048	116.000000	nontarget	9.000000	na
96.880258	0.049683	116.000000	nontarget	10.000000	na
96.929941	0.050315	116.000000	nontarget	11.000000	na
96.980256	0.049917	116.000000	nontarget	12.000000	na
97.030173	0.049991	116.000000	nontarget	13.000000	na
97.080164	0.050091	116.000000	nontarget	14.000000	97.099499
97.130255	0.049910	116.000000	nontarget	15.000000	na
97.180165	0.050040	116.000000	nontarget	16.000000	na
97.230205	0.049699	117.000000	target	1.000000	na
97.279903	0.050220	117.000000	target	2.000000	na
97.330123	0.050063	117.000000	target	3.000000	na
97.380185	0.049273	117.000000	target	4.000000	na
97.429458	0.050341	117.000000	target	5.000000	na
97.479799	0.050334	117.000000	target	6.000000	na
97.530133	0.049984	117.000000	target	7.000000	na
97.580117	0.049458	117.000000	target	8.000000	na
97.629575	0.050670	117.000000	target	9.000000	na
97.680244	0.049481	117.000000	target	10.000000	na
97.729726	0.050419	117.000000	target	11.000000	na
97.780145	0.049750	117.000000	target	12.000000	na
97.829895	0.050328	117.000000	target	13.000000	na
97.880222	0.049722	117.000000	target	14.000000	na
97.929944	0.050032	117.000000	target	15.000000	na
97.979976	0.054040	117.000000	target	16.000000	na
98.034016	0.045845	118.000000	nontarget	1.000000	98.038995
98.079861	0.050292	118.000000	nontarget	2.000000	na
98.130154	0.049070	118.000000	nontarget	3.000000	na
98.179223	0.050762	118.000000	nontarget	4.000000	na
98.229985	0.049603	118.000000	nontarget	5.000000	na
98.279588	0.050223	118.000000	nontarget	6.000000	na
98.329812	0.050353	118.000000	nontarget	7.000000	na
98.380164	0.049805	118.000000	nontarget	8.000000	na
98.429969	0.050035	118.000000	nontarget	9.000000	na
98.480004	0.050219	118.000000	nontarget	10.000000	na
98.530223	0.049898	118.000000	nontarget	11.000000	na
98.580121	0.049573	118.000000	nontarget	12.000000	na
98.629694	0.049988	118.000000	nontarget	13.000000	na
98.679683	0.049823	118.000000	nontarget	14.000000	na
98.729505	0.050644	118.000000	nontarget	15.000000	na
98.780149	0.049261	118.000000	nontarget	16.000000	na
98.829410	0.045655	119.000000	nontarget	1.000000	98.861039
98.875065	0.043834	119.000000	nontarget	2.000000	na
98.918898	0.044340	119.000000	nontarget	3.000000	na
98.963239	0.050327	119.000000	nontarget	4.000000	na
99.013565	0.049954	119.000000	nontarget	5.000000	na
99.063519	0.050010	119.000000	nontarget	6.000000	na
99.113528	0.049833	119.000000	nontarget	7.000000	na
99.163361	0.050135	119.000000	nontarget	8.000000	na
99.213496	0.049975	119.000000	nontarget	9.000000	na
99.263471	0.049572	119.000000	nontarget	10.000000	na
99.313043	0.050359	119.000000	nontarget	11.000000	na
99.363402	0.050304	119.000000	nontarget	12.000000	na
99.413706	0.049857	119.000000	nontarget	13.000000	na
99.463563	0.049943	119.000000	nontarget	14.000000	na
99.513506	0.049880	119.000000	nontarget	15.000000	na
99.563386	0.049888	119.000000	nontarget	16.000000	na
99.613274	0.038965	120.000000	nontarget	1.000000	na
99.652239	0.044505	120.000000	nontarget	2.000000	na
99.696744	0.049164	120.000000	nontarget	3.000000	na
99.745908	0.050406	120.000000	nontarget	4.000000	na
99.796314	0.050378	120.000000	nontarget	5.000000	na
99.846692	0.050421	120.000000	nontarget	6.000000	99.853361
99.897113	0.049274	120.000000	nontarget	7.000000	na
99.946387	0.052100	120.000000	nontarget	8.000000	na
99.998488	0.048247	120.000000	nontarget	9.000000	na
100.046734	0.049525	120.000000	nontarget	10.000000	na
100.096259	0.049900	120.000000	nontarget	11.000000	na
100.146159	0.050693	120.000000	nontarget	12.000000	na
100.196853	0.049957	120.000000	nontarget	13.000000	na
100.246810	0.049648	120.000000	nontarget	14.000000	na
100.296458	0.050514	120.000000	nontarget	15.000000	na
100.346972	0.049826	120.000000	nontarget	16.000000	na
100.396798	0.049807	121.000000	nontarget	1.000000	na
100.446605	0.050256	121.000000	nontarget	2.000000	na
100.496861	0.049985	121.000000	nontarget	3.000000	na
100.546846	0.050086	121.000000	nontarget	4.000000	na
100.596932	0.049280	121.000000	nontarget	5.000000	na
100.646212	0.050508	121.000000	nontarget	6.000000	na
100.696719	0.049177	121.000000	nontarget	7.000000	na
100.745897	0.051092	121.000000	nontarget	8.000000	na
100.796989	0.049893	121.000000	nontarget	9.000000	na
100.846881	0.050013	121.000000	nontarget	10.000000	100.853532
