onset	duration	trial_number	trial_type	frame_number	time_of_response
8.066685	0.049786	1.000000	nontarget	1.000000	na
8.116471	0.050207	1.000000	nontarget	2.000000	na
8.166678	0.049824	1.000000	nontarget	3.000000	na
8.216502	0.050203	1.000000	nontarget	4.000000	na
8.266705	0.050219	1.000000	nontarget	5.000000	na
8.316924	0.049759	1.000000	nontarget	6.000000	na
8.366682	0.050074	1.000000	nontarget	7.000000	na
8.416756	0.049677	1.000000	nontarget	8.000000	na
8.466433	0.050364	1.000000	nontarget	9.000000	na
8.516797	0.050029	1.000000	nontarget	10.000000	na
8.566827	0.049858	1.000000	nontarget	11.000000	na
8.616685	0.050083	1.000000	nontarget	12.000000	na
8.666768	0.050064	1.000000	nontarget	13.000000	na
8.716832	0.049523	1.000000	nontarget	14.000000	na
8.766355	0.050231	1.000000	nontarget	15.000000	na
8.816586	0.049600	1.000000	nontarget	16.000000	na
8.866186	0.050633	2.000000	nontarget	1.000000	na
8.916819	0.049833	2.000000	nontarget	2.000000	na
8.966651	0.049498	2.000000	nontarget	3.000000	na
9.016149	0.050098	2.000000	nontarget	4.000000	na
9.066246	0.050422	2.000000	nontarget	5.000000	na
9.116668	0.050016	2.000000	nontarget	6.000000	na
9.166684	0.050162	2.000000	nontarget	7.000000	na
9.216846	0.049832	2.000000	nontarget	8.000000	na
9.266678	0.049996	2.000000	nontarget	9.000000	na
9.316674	0.050239	2.000000	nontarget	10.000000	na
9.366913	0.049652	2.000000	nontarget	11.000000	na
9.416566	0.050104	2.000000	nontarget	12.000000	na
9.466670	0.049585	2.000000	nontarget	13.000000	na
9.516255	0.050477	2.000000	nontarget	14.000000	na
9.566732	0.049936	2.000000	nontarget	15.000000	na
9.616668	0.050139	2.000000	nontarget	16.000000	na
9.666807	0.049100	3.000000	target	1.000000	na
9.715906	0.050762	3.000000	target	2.000000	9.722418
9.766669	0.050000	3.000000	target	3.000000	na
9.816669	0.050154	3.000000	target	4.000000	na
9.866822	0.049851	3.000000	target	5.000000	na
9.916673	0.049711	3.000000	target	6.000000	na
9.966384	0.050310	3.000000	target	7.000000	na
10.016694	0.049306	3.000000	target	8.000000	10.023325
10.066000	0.049997	3.000000	target	9.000000	na
10.115997	0.049960	3.000000	target	10.000000	na
10.165957	0.050462	3.000000	target	11.000000	na
10.216419	0.049635	3.000000	target	12.000000	na
10.266054	0.050444	3.000000	target	13.000000	na
10.316498	0.049739	3.000000	target	14.000000	na
10.366237	0.050584	3.000000	target	15.000000	na
10.416821	0.049934	3.000000	target	16.000000	na
10.466755	0.049910	4.000000	nontarget	1.000000	10.478351
10.516665	0.049107	4.000000	nontarget	2.000000	na
10.565771	0.051027	4.000000	nontarget	3.000000	na
10.616798	0.049876	4.000000	nontarget	4.000000	na
10.666673	0.049993	4.000000	nontarget	5.000000	na
10.716667	0.049992	4.000000	nontarget	6.000000	na
10.766659	0.050129	4.000000	nontarget	7.000000	na
10.816789	0.049644	4.000000	nontarget	8.000000	na
10.866432	0.050227	4.000000	nontarget	9.000000	na
10.916660	0.049563	4.000000	nontarget	10.000000	na
10.966222	0.049977	4.000000	nontarget	11.000000	na
11.016200	0.050341	4.000000	nontarget	12.000000	na
11.066541	0.049509	4.000000	nontarget	13.000000	na
11.116049	0.050366	4.000000	nontarget	14.000000	na
11.166415	0.050233	4.000000	nontarget	15.000000	11.173107
11.216648	0.049885	4.000000	nontarget	16.000000	na
11.266534	0.049502	5.000000	nontarget	1.000000	11.273704
11.316035	0.050211	5.000000	nontarget	2.000000	na
11.366247	0.050205	5.000000	nontarget	3.000000	na
11.416451	0.050295	5.000000	nontarget	4.000000	na
11.466746	0.049229	5.000000	nontarget	5.000000	na
11.515975	0.050767	5.000000	nontarget	6.000000	na
11.566742	0.049823	5.000000	nontarget	7.000000	na
11.616565	0.049913	5.000000	nontarget	8.000000	na
11.666478	0.049843	5.000000	nontarget	9.000000	na
11.716321	0.050382	5.000000	nontarget	10.000000	na
11.766704	0.049969	5.000000	nontarget	11.000000	na
11.816672	0.049725	5.000000	nontarget	12.000000	na
11.866397	0.049309	5.000000	nontarget	13.000000	na
11.915706	0.050908	5.000000	nontarget	14.000000	11.936085
11.966614	0.049923	5.000000	nontarget	15.000000	na
12.016537	0.050111	5.000000	nontarget	16.000000	na
12.066648	0.049518	6.000000	nontarget	1.000000	12.073311
12.116166	0.050454	6.000000	nontarget	2.000000	na
12.166620	0.049558	6.000000	nontarget	3.000000	na
12.216177	0.050209	6.000000	nontarget	4.000000	na
12.266386	0.050260	6.000000	nontarget	5.000000	na
12.316646	0.050176	6.000000	nontarget	6.000000	na
12.366822	0.049975	6.000000	nontarget	7.000000	na
12.416797	0.049875	6.000000	nontarget	8.000000	na
12.466671	0.049906	6.000000	nontarget	9.000000	na
12.516577	0.050066	6.000000	nontarget	10.000000	na
12.566643	0.049598	6.000000	nontarget	11.000000	na
12.616241	0.050417	6.000000	nontarget	12.000000	na
12.666658	0.050161	6.000000	nontarget	13.000000	na
12.716819	0.049920	6.000000	nontarget	14.000000	na
12.766740	0.049553	6.000000	nontarget	15.000000	na
12.816292	0.050371	6.000000	nontarget	16.000000	na
12.866663	0.049388	7.000000	target	1.000000	na
12.916051	0.050573	7.000000	target	2.000000	na
12.966624	0.049357	7.000000	target	3.000000	na
13.015981	0.050714	7.000000	target	4.000000	na
13.066696	0.049934	7.000000	target	5.000000	na
13.116630	0.049992	7.000000	target	6.000000	na
13.166622	0.049700	7.000000	target	7.000000	na
13.216322	0.050305	7.000000	target	8.000000	na
13.266627	0.049765	7.000000	target	9.000000	na
13.316392	0.050029	7.000000	target	10.000000	na
13.366421	0.050389	7.000000	target	11.000000	na
13.416810	0.049808	7.000000	target	12.000000	na
13.466618	0.049994	7.000000	target	13.000000	na
13.516612	0.049999	7.000000	target	14.000000	na
13.566611	0.049543	7.000000	target	15.000000	13.583021
13.616154	0.050634	7.000000	target	16.000000	na
13.666788	0.050036	8.000000	nontarget	1.000000	13.673389
13.716824	0.049459	8.000000	nontarget	2.000000	na
13.766284	0.050205	8.000000	nontarget	3.000000	na
13.816489	0.049367	8.000000	nontarget	4.000000	na
13.865855	0.050747	8.000000	nontarget	5.000000	na
13.916603	0.049948	8.000000	nontarget	6.000000	na
13.966550	0.049490	8.000000	nontarget	7.000000	na
14.016041	0.050612	8.000000	nontarget	8.000000	na
14.066652	0.049164	8.000000	nontarget	9.000000	na
14.115816	0.050797	8.000000	nontarget	10.000000	na
14.166613	0.049421	8.000000	nontarget	11.000000	na
14.216033	0.050552	8.000000	nontarget	12.000000	na
14.266585	0.049592	8.000000	nontarget	13.000000	na
14.316177	0.049903	8.000000	nontarget	14.000000	na
14.366080	0.050031	8.000000	nontarget	15.000000	na
14.416110	0.050711	8.000000	nontarget	16.000000	na
14.466822	0.049425	9.000000	nontarget	1.000000	na
14.516246	0.050375	9.000000	nontarget	2.000000	14.522948
14.566621	0.049945	9.000000	nontarget	3.000000	na
14.616566	0.050262	9.000000	nontarget	4.000000	na
14.666828	0.049884	9.000000	nontarget	5.000000	na
14.716711	0.049838	9.000000	nontarget	6.000000	na
14.766550	0.050043	9.000000	nontarget	7.000000	na
14.816593	0.049623	9.000000	nontarget	8.000000	na
14.866216	0.050608	9.000000	nontarget	9.000000	na
14.916824	0.049985	9.000000	nontarget	10.000000	na
14.966808	0.049423	9.000000	nontarget	11.000000	na
15.016231	0.050442	9.000000	nontarget	12.000000	na
15.066673	0.049814	9.000000	nontarget	13.000000	na
15.116487	0.050310	9.000000	nontarget	14.000000	na
15.166796	0.049702	9.000000	nontarget	15.000000	15.172655
15.216498	0.049460	9.000000	nontarget	16.000000	na
15.265958	0.050642	10.000000	nontarget	1.000000	15.272572
15.316600	0.049890	10.000000	nontarget	2.000000	na
15.366490	0.050248	10.000000	nontarget	3.000000	na
15.416738	0.049853	10.000000	nontarget	4.000000	na
15.466591	0.049782	10.000000	nontarget	5.000000	na
15.516372	0.049886	10.000000	nontarget	6.000000	na
15.566259	0.050322	10.000000	nontarget	7.000000	na
15.616580	0.050004	10.000000	nontarget	8.000000	na
15.666584	0.050064	10.000000	nontarget	9.000000	na
15.716648	0.050025	10.000000	nontarget	10.000000	na
15.766673	0.049325	10.000000	nontarget	11.000000	na
15.815998	0.050608	10.000000	nontarget	12.000000	na
15.866606	0.049982	10.000000	nontarget	13.000000	na
15.916588	0.050111	10.000000	nontarget	14.000000	15.923297
15.966699	0.049887	10.000000	nontarget	15.000000	na
16.016586	0.050061	10.000000	nontarget	16.000000	na
16.066647	0.049925	11.000000	nontarget	1.000000	16.073318
16.116572	0.050221	11.000000	nontarget	2.000000	na
16.166793	0.049772	11.000000	nontarget	3.000000	na
16.216565	0.050108	11.000000	nontarget	4.000000	na
16.266674	0.049610	11.000000	nontarget	5.000000	na
16.316283	0.050392	11.000000	nontarget	6.000000	na
16.366676	0.049897	11.000000	nontarget	7.000000	na
16.416573	0.049620	11.000000	nontarget	8.000000	na
16.466193	0.050124	11.000000	nontarget	9.000000	na
16.516317	0.050254	11.000000	nontarget	10.000000	na
16.566570	0.050020	11.000000	nontarget	11.000000	na
16.616590	0.049869	11.000000	nontarget	12.000000	na
16.666459	0.050118	11.000000	nontarget	13.000000	16.673145
16.716576	0.050006	11.000000	nontarget	14.000000	na
16.766583	0.050183	11.000000	nontarget	15.000000	na
16.816765	0.050057	11.000000	nontarget	16.000000	na
16.866822	0.050000	12.000000	nontarget	1.000000	na
16.916822	0.049595	12.000000	nontarget	2.000000	na
16.966417	0.049555	12.000000	nontarget	3.000000	na
17.015972	0.050559	12.000000	nontarget	4.000000	na
17.066531	0.050039	12.000000	nontarget	5.000000	na
17.116570	0.050103	12.000000	nontarget	6.000000	na
17.166673	0.050004	12.000000	nontarget	7.000000	na
17.216677	0.049948	12.000000	nontarget	8.000000	na
17.266625	0.049965	12.000000	nontarget	9.000000	na
17.316590	0.049601	12.000000	nontarget	10.000000	na
17.366191	0.050411	12.000000	nontarget	11.000000	na
17.416602	0.049980	12.000000	nontarget	12.000000	na
17.466581	0.049985	12.000000	nontarget	13.000000	na
17.516567	0.050176	12.000000	nontarget	14.000000	na
17.566743	0.049769	12.000000	nontarget	15.000000	17.578016
17.616512	0.049940	12.000000	nontarget	16.000000	na
17.666452	0.050283	13.000000	nontarget	1.000000	17.673078
17.716735	0.049964	13.000000	nontarget	2.000000	na
17.766699	0.049442	13.000000	nontarget	3.000000	na
17.816142	0.050360	13.000000	nontarget	4.000000	na
17.866502	0.049983	13.000000	nontarget	5.000000	na
17.916485	0.050066	13.000000	nontarget	6.000000	na
17.966551	0.050016	13.000000	nontarget	7.000000	na
18.016566	0.050171	13.000000	nontarget	8.000000	na
18.066737	0.049626	13.000000	nontarget	9.000000	na
18.116363	0.049986	13.000000	nontarget	10.000000	na
18.166349	0.049626	13.000000	nontarget	11.000000	na
18.215975	0.050595	13.000000	nontarget	12.000000	na
18.266570	0.050109	13.000000	nontarget	13.000000	na
18.316679	0.050063	13.000000	nontarget	14.000000	na
18.366742	0.050030	13.000000	nontarget	15.000000	18.401489
18.416773	0.049993	13.000000	nontarget	16.000000	na
18.466765	0.049896	14.000000	nontarget	1.000000	18.473474
18.516661	0.049856	14.000000	nontarget	2.000000	na
18.566518	0.049915	14.000000	nontarget	3.000000	na
18.616432	0.049493	14.000000	nontarget	4.000000	na
18.665925	0.050520	14.000000	nontarget	5.000000	na
18.716445	0.049695	14.000000	nontarget	6.000000	na
18.766140	0.050262	14.000000	nontarget	7.000000	na
18.816402	0.050078	14.000000	nontarget	8.000000	na
18.866481	0.050121	14.000000	nontarget	9.000000	na
18.916601	0.049878	14.000000	nontarget	10.000000	na
18.966480	0.050055	14.000000	nontarget	11.000000	na
19.016534	0.050290	14.000000	nontarget	12.000000	na
19.066824	0.049702	14.000000	nontarget	13.000000	na
19.116527	0.050152	14.000000	nontarget	14.000000	na
19.166678	0.049863	14.000000	nontarget	15.000000	na
19.216541	0.049806	14.000000	nontarget	16.000000	19.228069
19.266347	0.050170	15.000000	nontarget	1.000000	19.273027
19.316517	0.050022	15.000000	nontarget	2.000000	na
19.366539	0.049503	15.000000	nontarget	3.000000	na
19.416042	0.050583	15.000000	nontarget	4.000000	na
19.466624	0.049995	15.000000	nontarget	5.000000	na
19.516619	0.049592	15.000000	nontarget	6.000000	na
19.566211	0.050325	15.000000	nontarget	7.000000	na
19.616537	0.049962	15.000000	nontarget	8.000000	na
19.666499	0.050025	15.000000	nontarget	9.000000	na
19.716524	0.050148	15.000000	nontarget	10.000000	na
19.766672	0.049642	15.000000	nontarget	11.000000	na
19.816314	0.050216	15.000000	nontarget	12.000000	na
19.866530	0.050006	15.000000	nontarget	13.000000	na
19.916536	0.049248	15.000000	nontarget	14.000000	na
19.965785	0.050749	15.000000	nontarget	15.000000	na
20.016533	0.049992	15.000000	nontarget	16.000000	na
20.066526	0.050041	16.000000	nontarget	1.000000	20.079782
20.116567	0.049982	16.000000	nontarget	2.000000	na
20.166549	0.050110	16.000000	nontarget	3.000000	na
20.216659	0.050031	16.000000	nontarget	4.000000	na
20.266689	0.050032	16.000000	nontarget	5.000000	na
20.316722	0.049791	16.000000	nontarget	6.000000	na
20.366513	0.049999	16.000000	nontarget	7.000000	na
20.416512	0.050182	16.000000	nontarget	8.000000	na
20.466694	0.049832	16.000000	nontarget	9.000000	na
20.516526	0.049935	16.000000	nontarget	10.000000	na
20.566461	0.050065	16.000000	nontarget	11.000000	na
20.616526	0.049657	16.000000	nontarget	12.000000	na
20.666183	0.050085	16.000000	nontarget	13.000000	na
20.716268	0.050292	16.000000	nontarget	14.000000	na
20.766561	0.049911	16.000000	nontarget	15.000000	20.777998
20.816472	0.049955	16.000000	nontarget	16.000000	na
20.866427	0.049522	17.000000	nontarget	1.000000	20.873085
20.915950	0.050626	17.000000	nontarget	2.000000	na
20.966575	0.049959	17.000000	nontarget	3.000000	na
21.016534	0.049849	17.000000	nontarget	4.000000	na
21.066383	0.050138	17.000000	nontarget	5.000000	na
21.116521	0.050149	17.000000	nontarget	6.000000	na
21.166671	0.049860	17.000000	nontarget	7.000000	na
21.216530	0.050109	17.000000	nontarget	8.000000	na
21.266640	0.049863	17.000000	nontarget	9.000000	na
21.316503	0.049995	17.000000	nontarget	10.000000	na
21.366498	0.049994	17.000000	nontarget	11.000000	na
21.416492	0.049221	17.000000	nontarget	12.000000	na
21.465713	0.050829	17.000000	nontarget	13.000000	na
21.516542	0.050057	17.000000	nontarget	14.000000	na
21.566599	0.049904	17.000000	nontarget	15.000000	na
21.616502	0.049323	17.000000	nontarget	16.000000	na
21.665825	0.050690	18.000000	nontarget	1.000000	na
21.716515	0.049554	18.000000	nontarget	2.000000	21.725723
21.766069	0.050472	18.000000	nontarget	3.000000	na
21.816541	0.049950	18.000000	nontarget	4.000000	na
21.866491	0.049291	18.000000	nontarget	5.000000	na
21.915783	0.050707	18.000000	nontarget	6.000000	na
21.966490	0.049760	18.000000	nontarget	7.000000	na
22.016250	0.050004	18.000000	nontarget	8.000000	na
22.066254	0.050246	18.000000	nontarget	9.000000	na
22.116500	0.049987	18.000000	nontarget	10.000000	na
22.166487	0.050018	18.000000	nontarget	11.000000	na
22.216504	0.050197	18.000000	nontarget	12.000000	na
22.266702	0.048860	18.000000	nontarget	13.000000	na
22.315561	0.050502	18.000000	nontarget	14.000000	na
22.366063	0.050450	18.000000	nontarget	15.000000	na
22.416513	0.049952	18.000000	nontarget	16.000000	na
22.466465	0.049777	19.000000	nontarget	1.000000	na
22.516243	0.049492	19.000000	nontarget	2.000000	na
22.565735	0.050951	19.000000	nontarget	3.000000	22.585153
22.616686	0.048740	19.000000	nontarget	4.000000	na
22.665426	0.051068	19.000000	nontarget	5.000000	na
22.716494	0.049987	19.000000	nontarget	6.000000	na
22.766481	0.049376	19.000000	nontarget	7.000000	na
22.815858	0.050562	19.000000	nontarget	8.000000	na
22.866420	0.050086	19.000000	nontarget	9.000000	na
22.916506	0.049490	19.000000	nontarget	10.000000	na
22.965995	0.050013	19.000000	nontarget	11.000000	na
23.016008	0.050388	19.000000	nontarget	12.000000	na
23.066396	0.050074	19.000000	nontarget	13.000000	na
23.116470	0.049808	19.000000	nontarget	14.000000	na
23.166278	0.050203	19.000000	nontarget	15.000000	na
23.216480	0.049471	19.000000	nontarget	16.000000	na
23.265952	0.050449	20.000000	nontarget	1.000000	na
23.316400	0.049969	20.000000	nontarget	2.000000	23.343642
23.366370	0.049976	20.000000	nontarget	3.000000	na
23.416346	0.050119	20.000000	nontarget	4.000000	na
23.466464	0.050002	20.000000	nontarget	5.000000	na
23.516466	0.049889	20.000000	nontarget	6.000000	na
23.566355	0.050034	20.000000	nontarget	7.000000	na
23.616389	0.049799	20.000000	nontarget	8.000000	na
23.666189	0.049765	20.000000	nontarget	9.000000	na
23.715953	0.050481	20.000000	nontarget	10.000000	na
23.766434	0.050212	20.000000	nontarget	11.000000	na
23.816646	0.049595	20.000000	nontarget	12.000000	na
23.866241	0.050367	20.000000	nontarget	13.000000	na
23.916608	0.049868	20.000000	nontarget	14.000000	na
23.966476	0.050001	20.000000	nontarget	15.000000	na
24.016476	0.050067	20.000000	nontarget	16.000000	na
24.066544	0.049910	21.000000	nontarget	1.000000	na
24.116453	0.050009	21.000000	nontarget	2.000000	na
24.166462	0.049331	21.000000	nontarget	3.000000	na
24.215793	0.050672	21.000000	nontarget	4.000000	24.231443
24.266465	0.049717	21.000000	nontarget	5.000000	na
24.316182	0.050366	21.000000	nontarget	6.000000	na
24.366548	0.049287	21.000000	nontarget	7.000000	na
24.415835	0.050271	21.000000	nontarget	8.000000	na
24.466106	0.050247	21.000000	nontarget	9.000000	na
24.516353	0.050026	21.000000	nontarget	10.000000	na
24.566379	0.049637	21.000000	nontarget	11.000000	na
24.616016	0.050653	21.000000	nontarget	12.000000	na
24.666669	0.049103	21.000000	nontarget	13.000000	na
24.715772	0.050789	21.000000	nontarget	14.000000	na
24.766561	0.049874	21.000000	nontarget	15.000000	na
24.816435	0.050001	21.000000	nontarget	16.000000	na
24.866436	0.049716	22.000000	nontarget	1.000000	na
24.916152	0.049919	22.000000	nontarget	2.000000	na
24.966072	0.050078	22.000000	nontarget	3.000000	na
25.016149	0.049930	22.000000	nontarget	4.000000	na
25.066079	0.050376	22.000000	nontarget	5.000000	na
25.116455	0.049980	22.000000	nontarget	6.000000	na
25.166435	0.049286	22.000000	nontarget	7.000000	25.201628
25.215721	0.050937	22.000000	nontarget	8.000000	na
25.266658	0.049782	22.000000	nontarget	9.000000	na
25.316440	0.049298	22.000000	nontarget	10.000000	na
25.365738	0.049919	22.000000	nontarget	11.000000	na
25.415657	0.050754	22.000000	nontarget	12.000000	na
25.466411	0.049319	22.000000	nontarget	13.000000	na
25.515729	0.049975	22.000000	nontarget	14.000000	na
25.565704	0.050792	22.000000	nontarget	15.000000	na
25.616496	0.049860	22.000000	nontarget	16.000000	na
25.666356	0.049449	23.000000	nontarget	1.000000	na
25.715805	0.050816	23.000000	nontarget	2.000000	na
25.766620	0.049819	23.000000	nontarget	3.000000	na
25.816439	0.049989	23.000000	nontarget	4.000000	na
25.866428	0.049448	23.000000	nontarget	5.000000	na
25.915877	0.050518	23.000000	nontarget	6.000000	na
25.966395	0.049709	23.000000	nontarget	7.000000	na
26.016104	0.050339	23.000000	nontarget	8.000000	na
26.066443	0.049742	23.000000	nontarget	9.000000	na
26.116184	0.050169	23.000000	nontarget	10.000000	na
26.166353	0.049680	23.000000	nontarget	11.000000	na
26.216033	0.049754	23.000000	nontarget	12.000000	na
26.265787	0.050401	23.000000	nontarget	13.000000	na
26.316188	0.049962	23.000000	nontarget	14.000000	26.347086
26.366150	0.050291	23.000000	nontarget	15.000000	na
26.416441	0.049985	23.000000	nontarget	16.000000	na
26.466426	0.050025	24.000000	nontarget	1.000000	26.473042
26.516451	0.050170	24.000000	nontarget	2.000000	na
26.566622	0.050050	24.000000	nontarget	3.000000	na
26.616671	0.048715	24.000000	nontarget	4.000000	na
26.665386	0.050605	24.000000	nontarget	5.000000	na
26.715991	0.050648	24.000000	nontarget	6.000000	na
26.766639	0.049776	24.000000	nontarget	7.000000	na
26.816415	0.049721	24.000000	nontarget	8.000000	na
26.866136	0.050127	24.000000	nontarget	9.000000	na
26.916263	0.049816	24.000000	nontarget	10.000000	na
26.966079	0.050127	24.000000	nontarget	11.000000	na
27.016207	0.050137	24.000000	nontarget	12.000000	na
27.066344	0.049828	24.000000	nontarget	13.000000	na
27.116172	0.050251	24.000000	nontarget	14.000000	na
27.166423	0.049902	24.000000	nontarget	15.000000	na
27.216325	0.050095	24.000000	nontarget	16.000000	na
27.266420	0.050000	25.000000	nontarget	1.000000	na
27.316420	0.049983	25.000000	nontarget	2.000000	27.350920
27.366404	0.049603	25.000000	nontarget	3.000000	na
27.416007	0.050437	25.000000	nontarget	4.000000	na
27.466444	0.050047	25.000000	nontarget	5.000000	na
27.516490	0.050009	25.000000	nontarget	6.000000	na
27.566499	0.049944	25.000000	nontarget	7.000000	na
27.616444	0.049966	25.000000	nontarget	8.000000	na
27.666410	0.050004	25.000000	nontarget	9.000000	na
27.716414	0.049982	25.000000	nontarget	10.000000	na
27.766396	0.050004	25.000000	nontarget	11.000000	na
27.816400	0.049092	25.000000	nontarget	12.000000	na
27.865492	0.050910	25.000000	nontarget	13.000000	na
27.916401	0.050032	25.000000	nontarget	14.000000	na
27.966433	0.049732	25.000000	nontarget	15.000000	na
28.016165	0.050246	25.000000	nontarget	16.000000	na
28.066411	0.050151	26.000000	nontarget	1.000000	na
28.116562	0.049437	26.000000	nontarget	2.000000	na
28.165999	0.050411	26.000000	nontarget	3.000000	na
28.216410	0.049196	26.000000	nontarget	4.000000	na
28.265606	0.050573	26.000000	nontarget	5.000000	na
28.316179	0.050168	26.000000	nontarget	6.000000	na
28.366346	0.050118	26.000000	nontarget	7.000000	na
28.416465	0.049915	26.000000	nontarget	8.000000	28.423251
28.466380	0.049992	26.000000	nontarget	9.000000	na
28.516372	0.050165	26.000000	nontarget	10.000000	na
28.566536	0.049673	26.000000	nontarget	11.000000	na
28.616209	0.049941	26.000000	nontarget	12.000000	na
28.666150	0.050336	26.000000	nontarget	13.000000	na
28.716487	0.049323	26.000000	nontarget	14.000000	na
28.765810	0.050562	26.000000	nontarget	15.000000	na
28.816372	0.048994	26.000000	nontarget	16.000000	na
28.865367	0.050890	27.000000	nontarget	1.000000	na
28.916257	0.050324	27.000000	nontarget	2.000000	na
28.966581	0.049529	27.000000	nontarget	3.000000	na
29.016110	0.049773	27.000000	nontarget	4.000000	na
29.065883	0.050516	27.000000	nontarget	5.000000	na
29.116399	0.049676	27.000000	nontarget	6.000000	na
29.166075	0.050336	27.000000	nontarget	7.000000	na
29.216411	0.050006	27.000000	nontarget	8.000000	na
29.266416	0.049995	27.000000	nontarget	9.000000	na
29.316411	0.049893	27.000000	nontarget	10.000000	na
29.366305	0.050078	27.000000	nontarget	11.000000	na
29.416383	0.049848	27.000000	nontarget	12.000000	na
29.466231	0.049429	27.000000	nontarget	13.000000	29.473109
29.515660	0.050731	27.000000	nontarget	14.000000	na
29.566391	0.050032	27.000000	nontarget	15.000000	na
29.616423	0.049932	27.000000	nontarget	16.000000	na
29.666355	0.050235	28.000000	nontarget	1.000000	na
29.716590	0.049950	28.000000	nontarget	2.000000	na
29.766540	0.049838	28.000000	nontarget	3.000000	na
29.816378	0.050389	28.000000	nontarget	4.000000	na
29.866768	0.049607	28.000000	nontarget	5.000000	na
29.916375	0.049999	28.000000	nontarget	6.000000	na
29.966374	0.049509	28.000000	nontarget	7.000000	na
30.015883	0.050591	28.000000	nontarget	8.000000	na
30.066474	0.049862	28.000000	nontarget	9.000000	na
30.116336	0.049934	28.000000	nontarget	10.000000	na
30.166270	0.049686	28.000000	nontarget	11.000000	na
30.215956	0.050292	28.000000	nontarget	12.000000	na
30.266248	0.050222	28.000000	nontarget	13.000000	na
30.316470	0.050203	28.000000	nontarget	14.000000	na
30.366673	0.049786	28.000000	nontarget	15.000000	na
30.416460	0.049584	28.000000	nontarget	16.000000	na
30.466044	0.049873	29.000000	nontarget	1.000000	30.500754
30.515917	0.050202	29.000000	nontarget	2.000000	na
30.566119	0.050289	29.000000	nontarget	3.000000	na
30.616408	0.050147	29.000000	nontarget	4.000000	na
30.666555	0.049747	29.000000	nontarget	5.000000	na
30.716301	0.050398	29.000000	nontarget	6.000000	na
30.766700	0.049990	29.000000	nontarget	7.000000	na
30.816690	0.049332	29.000000	nontarget	8.000000	na
30.866022	0.050442	29.000000	nontarget	9.000000	na
30.916464	0.049884	29.000000	nontarget	10.000000	na
30.966348	0.049854	29.000000	nontarget	11.000000	na
31.016202	0.049752	29.000000	nontarget	12.000000	na
31.065953	0.050254	29.000000	nontarget	13.000000	na
31.116207	0.050237	29.000000	nontarget	14.000000	na
31.166444	0.049703	29.000000	nontarget	15.000000	na
31.216147	0.050536	29.000000	nontarget	16.000000	na
31.266684	0.049644	30.000000	nontarget	1.000000	na
31.316327	0.049541	30.000000	nontarget	2.000000	na
31.365868	0.050399	30.000000	nontarget	3.000000	na
31.416267	0.049658	30.000000	nontarget	4.000000	na
31.465925	0.050454	30.000000	nontarget	5.000000	na
31.516378	0.049927	30.000000	nontarget	6.000000	na
31.566305	0.049535	30.000000	nontarget	7.000000	na
31.615841	0.050385	30.000000	nontarget	8.000000	31.651013
31.666226	0.050406	30.000000	nontarget	9.000000	na
31.716632	0.049741	30.000000	nontarget	10.000000	na
31.766373	0.049675	30.000000	nontarget	11.000000	na
31.816048	0.050279	30.000000	nontarget	12.000000	na
31.866327	0.049959	30.000000	nontarget	13.000000	na
31.916286	0.049533	30.000000	nontarget	14.000000	na
31.965819	0.050325	30.000000	nontarget	15.000000	na
32.016144	0.049420	30.000000	nontarget	16.000000	na
32.065564	0.050490	31.000000	target	1.000000	na
32.116054	0.050545	31.000000	target	2.000000	na
32.166599	0.049746	31.000000	target	3.000000	na
32.216345	0.049751	31.000000	target	4.000000	na
32.266096	0.050423	31.000000	target	5.000000	na
32.316519	0.049814	31.000000	target	6.000000	na
32.366333	0.050019	31.000000	target	7.000000	na
32.416353	0.049681	31.000000	target	8.000000	na
32.466034	0.050415	31.000000	target	9.000000	na
32.516449	0.049887	31.000000	target	10.000000	na
32.566336	0.049441	31.000000	target	11.000000	na
32.615778	0.050742	31.000000	target	12.000000	na
32.666520	0.049811	31.000000	target	13.000000	na
32.716331	0.050006	31.000000	target	14.000000	na
32.766337	0.050282	31.000000	target	15.000000	na
32.816619	0.049116	31.000000	target	16.000000	na
32.865734	0.050124	32.000000	nontarget	1.000000	na
32.915859	0.049953	32.000000	nontarget	2.000000	32.939048
32.965812	0.050410	32.000000	nontarget	3.000000	na
33.016222	0.050504	32.000000	nontarget	4.000000	na
33.066726	0.049580	32.000000	nontarget	5.000000	na
33.116306	0.050008	32.000000	nontarget	6.000000	na
33.166313	0.050055	32.000000	nontarget	7.000000	na
33.216369	0.049211	32.000000	nontarget	8.000000	na
33.265580	0.050763	32.000000	nontarget	9.000000	na
33.316343	0.049956	32.000000	nontarget	10.000000	na
33.366298	0.050049	32.000000	nontarget	11.000000	na
33.416347	0.050089	32.000000	nontarget	12.000000	na
33.466436	0.050073	32.000000	nontarget	13.000000	na
33.516509	0.049747	32.000000	nontarget	14.000000	na
33.566255	0.050158	32.000000	nontarget	15.000000	na
33.616413	0.050123	32.000000	nontarget	16.000000	na
33.666537	0.049808	33.000000	nontarget	1.000000	na
33.716345	0.050001	33.000000	nontarget	2.000000	na
33.766346	0.049995	33.000000	nontarget	3.000000	na
33.816341	0.050078	33.000000	nontarget	4.000000	na
33.866418	0.049673	33.000000	nontarget	5.000000	na
33.916092	0.050085	33.000000	nontarget	6.000000	na
33.966177	0.050262	33.000000	nontarget	7.000000	na
34.016438	0.050031	33.000000	nontarget	8.000000	34.023089
34.066469	0.049880	33.000000	nontarget	9.000000	na
34.116349	0.049992	33.000000	nontarget	10.000000	na
34.166341	0.050130	33.000000	nontarget	11.000000	na
34.216471	0.049102	33.000000	nontarget	12.000000	na
34.265573	0.050766	33.000000	nontarget	13.000000	na
34.316339	0.049940	33.000000	nontarget	14.000000	na
34.366279	0.050371	33.000000	nontarget	15.000000	na
34.416649	0.049986	33.000000	nontarget	16.000000	na
34.466635	0.049741	34.000000	nontarget	1.000000	na
34.516377	0.049923	34.000000	nontarget	2.000000	na
34.566299	0.049839	34.000000	nontarget	3.000000	na
34.616138	0.050064	34.000000	nontarget	4.000000	na
34.666203	0.049568	34.000000	nontarget	5.000000	na
34.715771	0.050769	34.000000	nontarget	6.000000	na
34.766540	0.049799	34.000000	nontarget	7.000000	na
34.816339	0.050107	34.000000	nontarget	8.000000	na
34.866445	0.049679	34.000000	nontarget	9.000000	na
34.916124	0.049779	34.000000	nontarget	10.000000	na
34.965903	0.049947	34.000000	nontarget	11.000000	na
35.015850	0.050418	34.000000	nontarget	12.000000	na
35.066268	0.049678	34.000000	nontarget	13.000000	na
35.115946	0.050395	34.000000	nontarget	14.000000	na
35.166341	0.049192	34.000000	nontarget	15.000000	35.182964
35.215534	0.049943	34.000000	nontarget	16.000000	na
35.265477	0.050520	35.000000	nontarget	1.000000	35.272199
35.315997	0.050280	35.000000	nontarget	2.000000	na
35.366277	0.050063	35.000000	nontarget	3.000000	na
35.416340	0.050086	35.000000	nontarget	4.000000	na
35.466426	0.049476	35.000000	nontarget	5.000000	na
35.515902	0.050395	35.000000	nontarget	6.000000	na
35.566298	0.049622	35.000000	nontarget	7.000000	na
35.615920	0.050562	35.000000	nontarget	8.000000	na
35.666482	0.049865	35.000000	nontarget	9.000000	na
35.716346	0.050080	35.000000	nontarget	10.000000	na
35.766427	0.049912	35.000000	nontarget	11.000000	na
35.816338	0.050012	35.000000	nontarget	12.000000	na
35.866350	0.049424	35.000000	nontarget	13.000000	na
35.915775	0.050396	35.000000	nontarget	14.000000	na
35.966171	0.050064	35.000000	nontarget	15.000000	na
36.016235	0.050045	35.000000	nontarget	16.000000	na
36.066280	0.049365	36.000000	nontarget	1.000000	na
36.115646	0.050574	36.000000	nontarget	2.000000	36.150672
36.166220	0.049901	36.000000	nontarget	3.000000	na
36.216121	0.050198	36.000000	nontarget	4.000000	na
36.266319	0.049987	36.000000	nontarget	5.000000	na
36.316305	0.049612	36.000000	nontarget	6.000000	na
36.365918	0.050102	36.000000	nontarget	7.000000	na
36.416020	0.049831	36.000000	nontarget	8.000000	na
36.465851	0.050328	36.000000	nontarget	9.000000	na
36.516179	0.049897	36.000000	nontarget	10.000000	na
36.566076	0.050241	36.000000	nontarget	11.000000	na
36.616317	0.050017	36.000000	nontarget	12.000000	na
36.666334	0.049204	36.000000	nontarget	13.000000	na
36.715538	0.050955	36.000000	nontarget	14.000000	na
36.766493	0.049097	36.000000	nontarget	15.000000	na
36.815590	0.050731	36.000000	nontarget	16.000000	na
36.866321	0.049987	37.000000	nontarget	1.000000	na
36.916308	0.050005	37.000000	nontarget	2.000000	na
36.966313	0.049843	37.000000	nontarget	3.000000	36.972960
37.016156	0.049264	37.000000	nontarget	4.000000	na
37.065419	0.050723	37.000000	nontarget	5.000000	na
37.116142	0.050135	37.000000	nontarget	6.000000	na
37.166277	0.049462	37.000000	nontarget	7.000000	na
37.215739	0.050647	37.000000	nontarget	8.000000	na
37.266386	0.049914	37.000000	nontarget	9.000000	na
37.316300	0.049880	37.000000	nontarget	10.000000	na
37.366180	0.050127	37.000000	nontarget	11.000000	na
37.416307	0.049987	37.000000	nontarget	12.000000	na
37.466294	0.050090	37.000000	nontarget	13.000000	na
37.516384	0.049833	37.000000	nontarget	14.000000	na
37.566217	0.049968	37.000000	nontarget	15.000000	na
37.616185	0.050224	37.000000	nontarget	16.000000	na
37.666409	0.049406	38.000000	nontarget	1.000000	na
37.715815	0.050621	38.000000	nontarget	2.000000	na
37.766437	0.049867	38.000000	nontarget	3.000000	na
37.816303	0.049664	38.000000	nontarget	4.000000	na
37.865967	0.050201	38.000000	nontarget	5.000000	na
37.916168	0.050122	38.000000	nontarget	6.000000	na
37.966290	0.049834	38.000000	nontarget	7.000000	na
38.016124	0.049896	38.000000	nontarget	8.000000	38.023295
38.066020	0.050281	38.000000	nontarget	9.000000	na
38.116301	0.049510	38.000000	nontarget	10.000000	na
38.165811	0.050614	38.000000	nontarget	11.000000	na
38.216425	0.049870	38.000000	nontarget	12.000000	na
38.266295	0.049977	38.000000	nontarget	13.000000	na
38.316272	0.049959	38.000000	nontarget	14.000000	na
38.366231	0.050053	38.000000	nontarget	15.000000	na
38.416284	0.049979	38.000000	nontarget	16.000000	na
38.466263	0.050013	39.000000	nontarget	1.000000	na
38.516276	0.049863	39.000000	nontarget	2.000000	na
38.566140	0.049455	39.000000	nontarget	3.000000	na
38.615595	0.050800	39.000000	nontarget	4.000000	na
38.666395	0.049854	39.000000	nontarget	5.000000	na
38.716249	0.049996	39.000000	nontarget	6.000000	na
38.766244	0.050043	39.000000	nontarget	7.000000	na
38.816287	0.049747	39.000000	nontarget	8.000000	na
38.866034	0.050259	39.000000	nontarget	9.000000	na
38.916293	0.049995	39.000000	nontarget	10.000000	na
38.966288	0.050117	39.000000	nontarget	11.000000	na
39.016406	0.049641	39.000000	nontarget	12.000000	na
39.066046	0.050232	39.000000	nontarget	13.000000	na
39.116279	0.049673	39.000000	nontarget	14.000000	na
39.165952	0.049579	39.000000	nontarget	15.000000	na
39.215531	0.050738	39.000000	nontarget	16.000000	na
39.266269	0.049724	40.000000	target	1.000000	na
39.315994	0.050283	40.000000	target	2.000000	na
39.366276	0.049472	40.000000	target	3.000000	na
39.415748	0.049702	40.000000	target	4.000000	na
39.465451	0.050481	40.000000	target	5.000000	na
39.515932	0.050347	40.000000	target	6.000000	na
39.566279	0.049930	40.000000	target	7.000000	na
39.616209	0.050049	40.000000	target	8.000000	na
39.666257	0.050017	40.000000	target	9.000000	na
39.716275	0.049797	40.000000	target	10.000000	na
39.766072	0.050476	40.000000	target	11.000000	na
39.816547	0.049455	40.000000	target	12.000000	na
39.866002	0.050255	40.000000	target	13.000000	na
39.916258	0.049997	40.000000	target	14.000000	na
39.966255	0.049955	40.000000	target	15.000000	na
40.016210	0.050053	40.000000	target	16.000000	na
40.066263	0.050031	41.000000	nontarget	1.000000	40.073205
40.116294	0.049996	41.000000	nontarget	2.000000	na
40.166290	0.050049	41.000000	nontarget	3.000000	na
40.216339	0.049704	41.000000	nontarget	4.000000	na
40.266043	0.050235	41.000000	nontarget	5.000000	na
40.316278	0.049999	41.000000	nontarget	6.000000	na
40.366277	0.049911	41.000000	nontarget	7.000000	na
40.416188	0.050075	41.000000	nontarget	8.000000	na
40.466263	0.049956	41.000000	nontarget	9.000000	na
40.516219	0.050043	41.000000	nontarget	10.000000	na
40.566262	0.050039	41.000000	nontarget	11.000000	na
40.616301	0.049166	41.000000	nontarget	12.000000	na
40.665467	0.050190	41.000000	nontarget	13.000000	na
40.715657	0.050890	41.000000	nontarget	14.000000	na
40.766547	0.049663	41.000000	nontarget	15.000000	na
40.816210	0.050035	41.000000	nontarget	16.000000	na
40.866245	0.050213	42.000000	nontarget	1.000000	na
40.916458	0.049610	42.000000	nontarget	2.000000	na
40.966067	0.050183	42.000000	nontarget	3.000000	40.972817
41.016251	0.050113	42.000000	nontarget	4.000000	na
41.066364	0.049881	42.000000	nontarget	5.000000	na
41.116245	0.049973	42.000000	nontarget	6.000000	na
41.166217	0.050017	42.000000	nontarget	7.000000	na
41.216234	0.050053	42.000000	nontarget	8.000000	na
41.266287	0.049366	42.000000	nontarget	9.000000	na
41.315653	0.050347	42.000000	nontarget	10.000000	na
41.366000	0.049329	42.000000	nontarget	11.000000	na
41.415329	0.050122	42.000000	nontarget	12.000000	na
41.465451	0.050487	42.000000	nontarget	13.000000	na
41.515938	0.050266	42.000000	nontarget	14.000000	na
41.566205	0.049778	42.000000	nontarget	15.000000	na
41.615983	0.049472	42.000000	nontarget	16.000000	na
41.665455	0.050501	43.000000	nontarget	1.000000	na
41.715956	0.049381	43.000000	nontarget	2.000000	na
41.765337	0.050863	43.000000	nontarget	3.000000	na
41.816199	0.049375	43.000000	nontarget	4.000000	na
41.865574	0.050656	43.000000	nontarget	5.000000	na
41.916230	0.050160	43.000000	nontarget	6.000000	na
41.966390	0.049098	43.000000	nontarget	7.000000	41.990853
42.015488	0.050493	43.000000	nontarget	8.000000	na
42.065982	0.049770	43.000000	nontarget	9.000000	na
42.115752	0.050642	43.000000	nontarget	10.000000	na
42.166394	0.049240	43.000000	nontarget	11.000000	na
42.215634	0.050661	43.000000	nontarget	12.000000	na
42.266295	0.049935	43.000000	nontarget	13.000000	na
42.316230	0.050169	43.000000	nontarget	14.000000	na
42.366399	0.049865	43.000000	nontarget	15.000000	na
42.416264	0.049982	43.000000	nontarget	16.000000	na
42.466246	0.049324	44.000000	nontarget	1.000000	na
42.515570	0.050535	44.000000	nontarget	2.000000	na
42.566105	0.049966	44.000000	nontarget	3.000000	na
42.616071	0.050166	44.000000	nontarget	4.000000	na
42.666237	0.050176	44.000000	nontarget	5.000000	na
42.716413	0.049769	44.000000	nontarget	6.000000	na
42.766183	0.050041	44.000000	nontarget	7.000000	na
42.816224	0.050002	44.000000	nontarget	8.000000	na
42.866225	0.049994	44.000000	nontarget	9.000000	na
42.916220	0.050036	44.000000	nontarget	10.000000	na
42.966256	0.049901	44.000000	nontarget	11.000000	na
43.016157	0.050058	44.000000	nontarget	12.000000	na
43.066215	0.050005	44.000000	nontarget	13.000000	na
43.116219	0.049205	44.000000	nontarget	14.000000	43.151360
43.165424	0.050776	44.000000	nontarget	15.000000	na
43.216200	0.050023	44.000000	nontarget	16.000000	na
43.266224	0.050025	45.000000	nontarget	1.000000	43.272878
43.316249	0.049408	45.000000	nontarget	2.000000	na
43.365658	0.049877	45.000000	nontarget	3.000000	na
43.415534	0.050625	45.000000	nontarget	4.000000	na
43.466159	0.049879	45.000000	nontarget	5.000000	na
43.516038	0.050183	45.000000	nontarget	6.000000	na
43.566221	0.049262	45.000000	nontarget	7.000000	na
43.615484	0.050739	45.000000	nontarget	8.000000	na
43.666222	0.049977	45.000000	nontarget	9.000000	na
43.716199	0.050024	45.000000	nontarget	10.000000	na
43.766223	0.049261	45.000000	nontarget	11.000000	na
43.815484	0.049971	45.000000	nontarget	12.000000	na
43.865455	0.050672	45.000000	nontarget	13.000000	na
43.916127	0.049538	45.000000	nontarget	14.000000	na
43.965664	0.049736	45.000000	nontarget	15.000000	43.993986
44.015400	0.050900	45.000000	nontarget	16.000000	na
44.066300	0.049239	46.000000	nontarget	1.000000	44.073042
44.115539	0.049809	46.000000	nontarget	2.000000	na
44.165347	0.050453	46.000000	nontarget	3.000000	na
44.215800	0.050359	46.000000	nontarget	4.000000	na
44.266159	0.050019	46.000000	nontarget	5.000000	na
44.316178	0.049941	46.000000	nontarget	6.000000	na
44.366120	0.050089	46.000000	nontarget	7.000000	na
44.416209	0.050016	46.000000	nontarget	8.000000	na
44.466225	0.049633	46.000000	nontarget	9.000000	na
44.515858	0.050349	46.000000	nontarget	10.000000	na
44.566207	0.049678	46.000000	nontarget	11.000000	na
44.615885	0.050102	46.000000	nontarget	12.000000	na
44.665987	0.049622	46.000000	nontarget	13.000000	na
44.715609	0.050669	46.000000	nontarget	14.000000	na
44.766277	0.049932	46.000000	nontarget	15.000000	na
44.816210	0.049701	46.000000	nontarget	16.000000	na
44.865911	0.049715	47.000000	nontarget	1.000000	na
44.915626	0.050735	47.000000	nontarget	2.000000	na
44.966362	0.049526	47.000000	nontarget	3.000000	na
45.015888	0.049798	47.000000	nontarget	4.000000	na
45.065686	0.050353	47.000000	nontarget	5.000000	na
45.116038	0.050149	47.000000	nontarget	6.000000	45.139544
45.166187	0.050003	47.000000	nontarget	7.000000	na
45.216190	0.049998	47.000000	nontarget	8.000000	na
45.266188	0.050093	47.000000	nontarget	9.000000	na
45.316281	0.049816	47.000000	nontarget	10.000000	na
45.366097	0.050111	47.000000	nontarget	11.000000	na
45.416208	0.050295	47.000000	nontarget	12.000000	na
45.466503	0.050024	47.000000	nontarget	13.000000	na
45.516528	0.049054	47.000000	nontarget	14.000000	na
45.565582	0.050211	47.000000	nontarget	15.000000	na
45.615792	0.050488	47.000000	nontarget	16.000000	na
45.666280	0.049887	48.000000	nontarget	1.000000	na
45.716167	0.049483	48.000000	nontarget	2.000000	na
45.765650	0.050007	48.000000	nontarget	3.000000	na
45.815658	0.049688	48.000000	nontarget	4.000000	na
45.865346	0.050816	48.000000	nontarget	5.000000	na
45.916162	0.049917	48.000000	nontarget	6.000000	na
45.966079	0.050051	48.000000	nontarget	7.000000	na
46.016130	0.049323	48.000000	nontarget	8.000000	46.023136
46.065453	0.050724	48.000000	nontarget	9.000000	na
46.116177	0.049913	48.000000	nontarget	10.000000	na
46.166090	0.049551	48.000000	nontarget	11.000000	na
46.215640	0.050543	48.000000	nontarget	12.000000	na
46.266184	0.049997	48.000000	nontarget	13.000000	na
46.316181	0.049697	48.000000	nontarget	14.000000	na
46.365878	0.050441	48.000000	nontarget	15.000000	na
46.416319	0.050073	48.000000	nontarget	16.000000	na
46.466392	0.049615	49.000000	nontarget	1.000000	na
46.516007	0.050158	49.000000	nontarget	2.000000	na
46.566165	0.049293	49.000000	nontarget	3.000000	na
46.615457	0.050736	49.000000	nontarget	4.000000	na
46.666194	0.050255	49.000000	nontarget	5.000000	na
46.716449	0.049120	49.000000	nontarget	6.000000	na
46.765569	0.050857	49.000000	nontarget	7.000000	na
46.816426	0.049542	49.000000	nontarget	8.000000	na
46.865968	0.050588	49.000000	nontarget	9.000000	na
46.916556	0.049996	49.000000	nontarget	10.000000	na
46.966553	0.049612	49.000000	nontarget	11.000000	na
47.016165	0.050298	49.000000	nontarget	12.000000	47.022716
47.066463	0.050084	49.000000	nontarget	13.000000	na
47.116547	0.049779	49.000000	nontarget	14.000000	na
47.166327	0.049316	49.000000	nontarget	15.000000	na
47.215643	0.050277	49.000000	nontarget	16.000000	na
47.265920	0.050449	50.000000	nontarget	1.000000	na
47.316370	0.049778	50.000000	nontarget	2.000000	na
47.366148	0.050329	50.000000	nontarget	3.000000	na
47.416477	0.049886	50.000000	nontarget	4.000000	na
47.466363	0.049888	50.000000	nontarget	5.000000	na
47.516250	0.049910	50.000000	nontarget	6.000000	na
47.566160	0.050198	50.000000	nontarget	7.000000	na
47.616358	0.050082	50.000000	nontarget	8.000000	na
47.666439	0.049497	50.000000	nontarget	9.000000	na
47.715937	0.050216	50.000000	nontarget	10.000000	na
47.766153	0.050213	50.000000	nontarget	11.000000	na
47.816366	0.049627	50.000000	nontarget	12.000000	na
47.865993	0.050152	50.000000	nontarget	13.000000	na
47.916145	0.049996	50.000000	nontarget	14.000000	na
47.966141	0.049906	50.000000	nontarget	15.000000	na
48.016047	0.049400	50.000000	nontarget	16.000000	na
48.065447	0.050683	51.000000	nontarget	1.000000	48.076776
48.116130	0.049487	51.000000	nontarget	2.000000	na
48.165616	0.050913	51.000000	nontarget	3.000000	na
48.216529	0.049972	51.000000	nontarget	4.000000	na
48.266501	0.049159	51.000000	nontarget	5.000000	na
48.315660	0.050927	51.000000	nontarget	6.000000	na
48.366588	0.049755	51.000000	nontarget	7.000000	na
48.416343	0.049779	51.000000	nontarget	8.000000	na
48.466122	0.050013	51.000000	nontarget	9.000000	na
48.516134	0.050244	51.000000	nontarget	10.000000	na
48.566378	0.049806	51.000000	nontarget	11.000000	na
48.616184	0.049970	51.000000	nontarget	12.000000	na
48.666154	0.050262	51.000000	nontarget	13.000000	na
48.716416	0.050058	51.000000	nontarget	14.000000	na
48.766474	0.049666	51.000000	nontarget	15.000000	na
48.816140	0.049426	51.000000	nontarget	16.000000	na
48.865565	0.049760	52.000000	nontarget	1.000000	na
48.915325	0.050816	52.000000	nontarget	2.000000	48.921489
48.966141	0.049684	52.000000	nontarget	3.000000	na
49.015825	0.049673	52.000000	nontarget	4.000000	na
49.065498	0.038897	52.000000	nontarget	5.000000	na
49.104395	0.045072	52.000000	nontarget	6.000000	na
49.149468	0.050275	52.000000	nontarget	7.000000	na
49.199743	0.049972	52.000000	nontarget	8.000000	na
49.249715	0.049503	52.000000	nontarget	9.000000	na
49.299218	0.050499	52.000000	nontarget	10.000000	na
49.349717	0.049736	52.000000	nontarget	11.000000	na
49.399453	0.049314	52.000000	nontarget	12.000000	na
49.448767	0.050387	52.000000	nontarget	13.000000	na
49.499154	0.049713	52.000000	nontarget	14.000000	na
49.548867	0.050553	52.000000	nontarget	15.000000	na
49.599420	0.049979	52.000000	nontarget	16.000000	na
49.649399	0.050290	53.000000	nontarget	1.000000	na
49.699689	0.049915	53.000000	nontarget	2.000000	na
49.749604	0.049632	53.000000	nontarget	3.000000	na
49.799236	0.050352	53.000000	nontarget	4.000000	na
49.849588	0.049074	53.000000	nontarget	5.000000	na
49.898662	0.050363	53.000000	nontarget	6.000000	49.934038
49.949025	0.050644	53.000000	nontarget	7.000000	na
49.999669	0.049820	53.000000	nontarget	8.000000	na
50.049490	0.049538	53.000000	nontarget	9.000000	na
50.099028	0.050505	53.000000	nontarget	10.000000	na
50.149533	0.049888	53.000000	nontarget	11.000000	na
50.199420	0.050191	53.000000	nontarget	12.000000	na
50.249611	0.049798	53.000000	nontarget	13.000000	na
50.299410	0.049983	53.000000	nontarget	14.000000	na
50.349393	0.050055	53.000000	nontarget	15.000000	na
50.399449	0.049930	53.000000	nontarget	16.000000	na
50.449378	0.049316	54.000000	nontarget	1.000000	na
50.498694	0.050570	54.000000	nontarget	2.000000	na
50.549265	0.050286	54.000000	nontarget	3.000000	na
50.599550	0.049905	54.000000	nontarget	4.000000	na
50.649455	0.049446	54.000000	nontarget	5.000000	na
50.698901	0.050643	54.000000	nontarget	6.000000	na
50.749544	0.049568	54.000000	nontarget	7.000000	na
50.799111	0.050180	54.000000	nontarget	8.000000	na
50.849291	0.050244	54.000000	nontarget	9.000000	na
50.899535	0.049749	54.000000	nontarget	10.000000	na
50.949285	0.049991	54.000000	nontarget	11.000000	na
50.999276	0.050361	54.000000	nontarget	12.000000	na
51.049636	0.049288	54.000000	nontarget	13.000000	na
51.098925	0.050487	54.000000	nontarget	14.000000	na
51.149412	0.050230	54.000000	nontarget	15.000000	na
51.199642	0.049710	54.000000	nontarget	16.000000	na
51.249352	0.050293	55.000000	nontarget	1.000000	51.256061
51.299646	0.049192	55.000000	nontarget	2.000000	na
51.348837	0.050192	55.000000	nontarget	3.000000	na
51.399029	0.049777	55.000000	nontarget	4.000000	na
51.448807	0.050562	55.000000	nontarget	5.000000	na
51.499369	0.050023	55.000000	nontarget	6.000000	na
51.549392	0.049945	55.000000	nontarget	7.000000	na
51.599336	0.050107	55.000000	nontarget	8.000000	na
51.649443	0.049774	55.000000	nontarget	9.000000	na
51.699217	0.049551	55.000000	nontarget	10.000000	na
51.748768	0.050560	55.000000	nontarget	11.000000	na
51.799328	0.049878	55.000000	nontarget	12.000000	na
51.849207	0.050182	55.000000	nontarget	13.000000	na
51.899388	0.049904	55.000000	nontarget	14.000000	na
51.949292	0.050088	55.000000	nontarget	15.000000	na
51.999380	0.049405	55.000000	nontarget	16.000000	na
52.048784	0.050616	56.000000	target	1.000000	na
52.099401	0.049982	56.000000	target	2.000000	na
52.149382	0.049983	56.000000	target	3.000000	na
52.199365	0.049293	56.000000	target	4.000000	na
52.248658	0.050528	56.000000	target	5.000000	na
52.299186	0.049498	56.000000	target	6.000000	na
52.348684	0.050257	56.000000	target	7.000000	na
52.398941	0.050483	56.000000	target	8.000000	na
52.449423	0.049679	56.000000	target	9.000000	na
52.499103	0.050379	56.000000	target	10.000000	na
52.549481	0.049792	56.000000	target	11.000000	na
52.599273	0.050019	56.000000	target	12.000000	na
52.649292	0.049956	56.000000	target	13.000000	na
52.699248	0.050125	56.000000	target	14.000000	na
52.749373	0.049989	56.000000	target	15.000000	na
52.799362	0.050073	56.000000	target	16.000000	na
52.849435	0.050105	57.000000	nontarget	1.000000	52.856283
52.899540	0.049837	57.000000	nontarget	2.000000	na
52.949377	0.050059	57.000000	nontarget	3.000000	na
52.999436	0.049500	57.000000	nontarget	4.000000	na
53.048936	0.038807	57.000000	nontarget	5.000000	na
53.087742	0.044874	57.000000	nontarget	6.000000	na
53.132616	0.049453	57.000000	nontarget	7.000000	na
53.182069	0.049873	57.000000	nontarget	8.000000	na
53.231942	0.050763	57.000000	nontarget	9.000000	na
53.282705	0.050021	57.000000	nontarget	10.000000	na
53.332726	0.050056	57.000000	nontarget	11.000000	na
53.382783	0.050035	57.000000	nontarget	12.000000	na
53.432818	0.049353	57.000000	nontarget	13.000000	na
53.482171	0.050388	57.000000	nontarget	14.000000	na
53.532560	0.049557	57.000000	nontarget	15.000000	na
53.582117	0.050322	57.000000	nontarget	16.000000	na
53.632439	0.050107	58.000000	nontarget	1.000000	na
53.682546	0.049936	58.000000	nontarget	2.000000	na
53.732482	0.049773	58.000000	nontarget	3.000000	na
53.782255	0.050313	58.000000	nontarget	4.000000	na
53.832568	0.038591	58.000000	nontarget	5.000000	53.839285
53.871159	0.044971	58.000000	nontarget	6.000000	na
53.916130	0.049915	58.000000	nontarget	7.000000	na
53.966045	0.049996	58.000000	nontarget	8.000000	na
54.016041	0.050160	58.000000	nontarget	9.000000	na
54.066200	0.050074	58.000000	nontarget	10.000000	na
54.116275	0.049735	58.000000	nontarget	11.000000	na
54.166010	0.049717	58.000000	nontarget	12.000000	na
54.215727	0.050348	58.000000	nontarget	13.000000	na
54.266075	0.048967	58.000000	nontarget	14.000000	na
54.315042	0.039198	58.000000	nontarget	15.000000	na
54.354240	0.045033	58.000000	nontarget	16.000000	na
54.399273	0.050077	59.000000	nontarget	1.000000	na
54.449349	0.049996	59.000000	nontarget	2.000000	na
54.499346	0.050008	59.000000	nontarget	3.000000	na
54.549354	0.050012	59.000000	nontarget	4.000000	na
54.599366	0.049579	59.000000	nontarget	5.000000	na
54.648945	0.050422	59.000000	nontarget	6.000000	na
54.699367	0.050166	59.000000	nontarget	7.000000	na
54.749532	0.049892	59.000000	nontarget	8.000000	na
54.799424	0.049961	59.000000	nontarget	9.000000	54.815043
54.849384	0.049457	59.000000	nontarget	10.000000	na
54.898841	0.050206	59.000000	nontarget	11.000000	na
54.949047	0.050193	59.000000	nontarget	12.000000	na
54.999240	0.050177	59.000000	nontarget	13.000000	na
55.049416	0.049877	59.000000	nontarget	14.000000	na
55.099293	0.049569	59.000000	nontarget	15.000000	na
55.148863	0.050759	59.000000	nontarget	16.000000	na
55.199621	0.049721	60.000000	nontarget	1.000000	na
55.249343	0.050316	60.000000	nontarget	2.000000	na
55.299659	0.049696	60.000000	nontarget	3.000000	na
55.349355	0.050183	60.000000	nontarget	4.000000	na
55.399538	0.049577	60.000000	nontarget	5.000000	na
55.449115	0.050484	60.000000	nontarget	6.000000	na
55.499600	0.049333	60.000000	nontarget	7.000000	na
55.548932	0.050718	60.000000	nontarget	8.000000	na
55.599650	0.049976	60.000000	nontarget	9.000000	na
55.649626	0.049870	60.000000	nontarget	10.000000	na
55.699497	0.049854	60.000000	nontarget	11.000000	na
55.749351	0.049871	60.000000	nontarget	12.000000	na
55.799222	0.050269	60.000000	nontarget	13.000000	na
55.849491	0.050005	60.000000	nontarget	14.000000	na
55.899496	0.050126	60.000000	nontarget	15.000000	na
55.949622	0.049797	60.000000	nontarget	16.000000	na
55.999419	0.049973	61.000000	nontarget	1.000000	56.005892
56.049392	0.050219	61.000000	nontarget	2.000000	na
56.099611	0.049368	61.000000	nontarget	3.000000	na
56.148978	0.050654	61.000000	nontarget	4.000000	na
56.199632	0.049814	61.000000	nontarget	5.000000	na
56.249447	0.049738	61.000000	nontarget	6.000000	na
56.299185	0.049644	61.000000	nontarget	7.000000	na
56.348829	0.050585	61.000000	nontarget	8.000000	na
56.399414	0.050160	61.000000	nontarget	9.000000	na
56.449573	0.049925	61.000000	nontarget	10.000000	na
56.499498	0.049331	61.000000	nontarget	11.000000	na
56.548829	0.050401	61.000000	nontarget	12.000000	na
56.599230	0.050143	61.000000	nontarget	13.000000	na
56.649373	0.049950	61.000000	nontarget	14.000000	na
56.699323	0.049947	61.000000	nontarget	15.000000	na
56.749270	0.049649	61.000000	nontarget	16.000000	na
56.798919	0.050581	62.000000	nontarget	1.000000	na
56.849500	0.050159	62.000000	nontarget	2.000000	na
56.899660	0.049362	62.000000	nontarget	3.000000	56.931200
56.949021	0.050603	62.000000	nontarget	4.000000	na
56.999625	0.049575	62.000000	nontarget	5.000000	na
57.049199	0.050128	62.000000	nontarget	6.000000	na
57.099327	0.049309	62.000000	nontarget	7.000000	na
57.148636	0.050700	62.000000	nontarget	8.000000	na
57.199336	0.049486	62.000000	nontarget	9.000000	na
57.248823	0.050526	62.000000	nontarget	10.000000	na
57.299349	0.050030	62.000000	nontarget	11.000000	na
57.349379	0.049211	62.000000	nontarget	12.000000	na
57.398589	0.050377	62.000000	nontarget	13.000000	na
57.448966	0.050694	62.000000	nontarget	14.000000	na
57.499660	0.049668	62.000000	nontarget	15.000000	na
57.549328	0.049943	62.000000	nontarget	16.000000	na
57.599271	0.049946	63.000000	nontarget	1.000000	na
57.649217	0.049508	63.000000	nontarget	2.000000	na
57.698725	0.050614	63.000000	nontarget	3.000000	na
57.749339	0.050068	63.000000	nontarget	4.000000	na
57.799407	0.049422	63.000000	nontarget	5.000000	na
57.848829	0.050347	63.000000	nontarget	6.000000	57.880904
57.899176	0.050174	63.000000	nontarget	7.000000	na
57.949350	0.049934	63.000000	nontarget	8.000000	na
57.999285	0.049217	63.000000	nontarget	9.000000	na
58.048502	0.051078	63.000000	nontarget	10.000000	na
58.099580	0.048627	63.000000	nontarget	11.000000	na
58.148208	0.038785	63.000000	nontarget	12.000000	na
58.186992	0.045377	63.000000	nontarget	13.000000	na
58.232370	0.050281	63.000000	nontarget	14.000000	na
58.282650	0.049687	63.000000	nontarget	15.000000	na
58.332337	0.050107	63.000000	nontarget	16.000000	na
58.382445	0.049556	64.000000	nontarget	1.000000	na
58.432000	0.050324	64.000000	nontarget	2.000000	na
58.482324	0.050309	64.000000	nontarget	3.000000	na
58.532633	0.049973	64.000000	nontarget	4.000000	na
58.582607	0.049466	64.000000	nontarget	5.000000	na
58.632073	0.050542	64.000000	nontarget	6.000000	na
58.682615	0.049642	64.000000	nontarget	7.000000	na
58.732257	0.050524	64.000000	nontarget	8.000000	na
58.782781	0.049801	64.000000	nontarget	9.000000	na
58.832582	0.050307	64.000000	nontarget	10.000000	na
58.882890	0.048935	64.000000	nontarget	11.000000	na
58.931824	0.051021	64.000000	nontarget	12.000000	na
58.982845	0.049039	64.000000	nontarget	13.000000	na
59.031884	0.051050	64.000000	nontarget	14.000000	na
59.082934	0.049857	64.000000	nontarget	15.000000	na
59.132792	0.049381	64.000000	nontarget	16.000000	na
59.182172	0.050641	65.000000	target	1.000000	na
59.232813	0.050115	65.000000	target	2.000000	na
59.282928	0.049548	65.000000	target	3.000000	na
59.332476	0.050163	65.000000	target	4.000000	na
59.382639	0.049842	65.000000	target	5.000000	na
59.432481	0.049977	65.000000	target	6.000000	na
59.482457	0.050402	65.000000	target	7.000000	na
59.532860	0.049735	65.000000	target	8.000000	na
59.582594	0.049701	65.000000	target	9.000000	na
59.632295	0.050334	65.000000	target	10.000000	na
59.682630	0.049725	65.000000	target	11.000000	na
59.732355	0.050070	65.000000	target	12.000000	na
59.782425	0.049905	65.000000	target	13.000000	na
59.832330	0.050303	65.000000	target	14.000000	na
59.882633	0.049851	65.000000	target	15.000000	na
59.932484	0.050115	65.000000	target	16.000000	na
59.982599	0.050027	66.000000	nontarget	1.000000	na
60.032627	0.050032	66.000000	nontarget	2.000000	na
60.082658	0.049534	66.000000	nontarget	3.000000	na
60.132193	0.050404	66.000000	nontarget	4.000000	na
60.182597	0.050198	66.000000	nontarget	5.000000	na
60.232795	0.049670	66.000000	nontarget	6.000000	60.265014
60.282465	0.050191	66.000000	nontarget	7.000000	na
60.332656	0.049386	66.000000	nontarget	8.000000	na
60.382042	0.050746	66.000000	nontarget	9.000000	na
60.432787	0.049886	66.000000	nontarget	10.000000	na
60.482673	0.050017	66.000000	nontarget	11.000000	na
60.532690	0.049847	66.000000	nontarget	12.000000	na
60.582537	0.050122	66.000000	nontarget	13.000000	na
60.632659	0.049833	66.000000	nontarget	14.000000	na
60.682493	0.049771	66.000000	nontarget	15.000000	na
60.732264	0.050494	66.000000	nontarget	16.000000	na
60.782759	0.049865	67.000000	nontarget	1.000000	na
60.832623	0.049717	67.000000	nontarget	2.000000	na
60.882341	0.050264	67.000000	nontarget	3.000000	na
60.932605	0.049986	67.000000	nontarget	4.000000	na
60.982591	0.049951	67.000000	nontarget	5.000000	na
61.032541	0.050122	67.000000	nontarget	6.000000	na
61.082664	0.049021	67.000000	nontarget	7.000000	na
61.131685	0.050295	67.000000	nontarget	8.000000	61.138333
61.181980	0.050473	67.000000	nontarget	9.000000	na
61.232453	0.050149	67.000000	nontarget	10.000000	na
61.282602	0.049221	67.000000	nontarget	11.000000	na
61.331823	0.050928	67.000000	nontarget	12.000000	na
61.382751	0.049767	67.000000	nontarget	13.000000	na
61.432517	0.050150	67.000000	nontarget	14.000000	na
61.482668	0.049924	67.000000	nontarget	15.000000	na
61.532592	0.049978	67.000000	nontarget	16.000000	na
61.582570	0.049935	68.000000	nontarget	1.000000	na
61.632505	0.050084	68.000000	nontarget	2.000000	na
61.682589	0.050046	68.000000	nontarget	3.000000	na
61.732635	0.049611	68.000000	nontarget	4.000000	na
61.782246	0.050465	68.000000	nontarget	5.000000	na
61.832712	0.049887	68.000000	nontarget	6.000000	na
61.882598	0.049228	68.000000	nontarget	7.000000	na
61.931826	0.050790	68.000000	nontarget	8.000000	na
61.982616	0.049040	68.000000	nontarget	9.000000	na
62.031656	0.050948	68.000000	nontarget	10.000000	na
62.082604	0.050008	68.000000	nontarget	11.000000	na
62.132612	0.049962	68.000000	nontarget	12.000000	na
62.182574	0.050131	68.000000	nontarget	13.000000	62.198077
62.232705	0.049877	68.000000	nontarget	14.000000	na
62.282581	0.049963	68.000000	nontarget	15.000000	na
62.332544	0.050117	68.000000	nontarget	16.000000	na
62.382662	0.049921	69.000000	nontarget	1.000000	na
62.432582	0.049878	69.000000	nontarget	2.000000	na
62.482460	0.049354	69.000000	nontarget	3.000000	na
62.531814	0.050070	69.000000	nontarget	4.000000	na
62.581885	0.049922	69.000000	nontarget	5.000000	na
62.631806	0.050819	69.000000	nontarget	6.000000	na
62.682626	0.049894	69.000000	nontarget	7.000000	na
62.732520	0.050034	69.000000	nontarget	8.000000	na
62.782553	0.049239	69.000000	nontarget	9.000000	na
62.831792	0.049804	69.000000	nontarget	10.000000	na
62.881596	0.050971	69.000000	nontarget	11.000000	na
62.932568	0.049881	69.000000	nontarget	12.000000	na
62.982449	0.050302	69.000000	nontarget	13.000000	na
63.032752	0.049617	69.000000	nontarget	14.000000	na
63.082369	0.050188	69.000000	nontarget	15.000000	63.089041
63.132557	0.049997	69.000000	nontarget	16.000000	na
63.182554	0.049302	70.000000	nontarget	1.000000	63.189220
63.231856	0.050723	70.000000	nontarget	2.000000	na
63.282579	0.049986	70.000000	nontarget	3.000000	na
63.332565	0.050002	70.000000	nontarget	4.000000	na
63.382567	0.049099	70.000000	nontarget	5.000000	na
63.431667	0.051027	70.000000	nontarget	6.000000	na
63.482694	0.049861	70.000000	nontarget	7.000000	na
63.532555	0.049723	70.000000	nontarget	8.000000	na
63.582278	0.050419	70.000000	nontarget	9.000000	na
63.632696	0.049990	70.000000	nontarget	10.000000	na
63.682686	0.049601	70.000000	nontarget	11.000000	na
63.732287	0.050249	70.000000	nontarget	12.000000	na
63.782537	0.050015	70.000000	nontarget	13.000000	na
63.832551	0.049422	70.000000	nontarget	14.000000	na
63.881974	0.049787	70.000000	nontarget	15.000000	na
63.931761	0.050895	70.000000	nontarget	16.000000	63.947180
63.982656	0.049724	71.000000	nontarget	1.000000	63.989406
64.032381	0.049907	71.000000	nontarget	2.000000	na
64.082288	0.050447	71.000000	nontarget	3.000000	na
64.132735	0.049064	71.000000	nontarget	4.000000	na
64.181798	0.050519	71.000000	nontarget	5.000000	na
64.232318	0.049454	71.000000	nontarget	6.000000	na
64.281772	0.050769	71.000000	nontarget	7.000000	na
64.332541	0.049994	71.000000	nontarget	8.000000	na
64.382535	0.049947	71.000000	nontarget	9.000000	na
64.432482	0.050091	71.000000	nontarget	10.000000	na
64.482573	0.049039	71.000000	nontarget	11.000000	na
64.531612	0.050826	71.000000	nontarget	12.000000	na
64.582437	0.049281	71.000000	nontarget	13.000000	na
64.631718	0.051050	71.000000	nontarget	14.000000	na
64.682768	0.049934	71.000000	nontarget	15.000000	na
64.732701	0.049827	71.000000	nontarget	16.000000	na
64.782528	0.050001	72.000000	nontarget	1.000000	na
64.832529	0.049623	72.000000	nontarget	2.000000	na
64.882152	0.050283	72.000000	nontarget	3.000000	na
64.932435	0.050392	72.000000	nontarget	4.000000	64.960072
64.982827	0.049926	72.000000	nontarget	5.000000	na
65.032754	0.050001	72.000000	nontarget	6.000000	na
65.082755	0.049373	72.000000	nontarget	7.000000	na
65.132128	0.050279	72.000000	nontarget	8.000000	na
65.182408	0.050116	72.000000	nontarget	9.000000	na
65.232524	0.049457	72.000000	nontarget	10.000000	na
65.281981	0.050570	72.000000	nontarget	11.000000	na
65.332550	0.049969	72.000000	nontarget	12.000000	na
65.382519	0.050025	72.000000	nontarget	13.000000	na
65.432544	0.050135	72.000000	nontarget	14.000000	na
65.482679	0.049654	72.000000	nontarget	15.000000	na
65.532333	0.050533	72.000000	nontarget	16.000000	na
65.582867	0.049575	73.000000	nontarget	1.000000	na
65.632442	0.050272	73.000000	nontarget	2.000000	na
65.682714	0.049480	73.000000	nontarget	3.000000	na
65.732194	0.050314	73.000000	nontarget	4.000000	na
65.782509	0.049439	73.000000	nontarget	5.000000	na
65.831947	0.050832	73.000000	nontarget	6.000000	65.838290
65.882780	0.049548	73.000000	nontarget	7.000000	na
65.932328	0.050161	73.000000	nontarget	8.000000	na
65.982489	0.049362	73.000000	nontarget	9.000000	na
66.031851	0.050930	73.000000	nontarget	10.000000	na
66.082781	0.049759	73.000000	nontarget	11.000000	na
66.132540	0.049377	73.000000	nontarget	12.000000	na
66.181917	0.050462	73.000000	nontarget	13.000000	na
66.232379	0.050146	73.000000	nontarget	14.000000	na
66.282525	0.049955	73.000000	nontarget	15.000000	na
66.332480	0.050181	73.000000	nontarget	16.000000	na
66.382661	0.049862	74.000000	target	1.000000	na
66.432523	0.049651	74.000000	target	2.000000	na
66.482174	0.050355	74.000000	target	3.000000	na
66.532529	0.049940	74.000000	target	4.000000	na
66.582468	0.050220	74.000000	target	5.000000	na
66.632689	0.050143	74.000000	target	6.000000	na
66.682832	0.049683	74.000000	target	7.000000	na
66.732515	0.049993	74.000000	target	8.000000	na
66.782507	0.049409	74.000000	target	9.000000	na
66.831916	0.050620	74.000000	target	10.000000	na
66.882536	0.049679	74.000000	target	11.000000	na
66.932215	0.050531	74.000000	target	12.000000	na
66.982746	0.049293	74.000000	target	13.000000	na
67.032039	0.050733	74.000000	target	14.000000	na
67.082772	0.049730	74.000000	target	15.000000	na
67.132502	0.049887	74.000000	target	16.000000	na
67.182389	0.050035	75.000000	nontarget	1.000000	na
67.232424	0.050143	75.000000	nontarget	2.000000	na
67.282567	0.049677	75.000000	nontarget	3.000000	67.288601
67.332243	0.050516	75.000000	nontarget	4.000000	na
67.382760	0.049766	75.000000	nontarget	5.000000	na
67.432525	0.049230	75.000000	nontarget	6.000000	na
67.481756	0.050756	75.000000	nontarget	7.000000	na
67.532512	0.049827	75.000000	nontarget	8.000000	na
67.582339	0.049473	75.000000	nontarget	9.000000	na
67.631812	0.050682	75.000000	nontarget	10.000000	na
67.682494	0.049427	75.000000	nontarget	11.000000	na
67.731921	0.050582	75.000000	nontarget	12.000000	na
67.782503	0.049988	75.000000	nontarget	13.000000	na
67.832491	0.050003	75.000000	nontarget	14.000000	na
67.882494	0.050011	75.000000	nontarget	15.000000	na
67.932504	0.050254	75.000000	nontarget	16.000000	na
67.982758	0.050061	76.000000	nontarget	1.000000	na
68.032819	0.049683	76.000000	nontarget	2.000000	na
68.082503	0.049491	76.000000	nontarget	3.000000	na
68.131994	0.050454	76.000000	nontarget	4.000000	na
68.182449	0.050181	76.000000	nontarget	5.000000	na
68.232629	0.049920	76.000000	nontarget	6.000000	na
68.282549	0.049903	76.000000	nontarget	7.000000	68.314189
68.332453	0.049964	76.000000	nontarget	8.000000	na
68.382416	0.050284	76.000000	nontarget	9.000000	na
68.432700	0.049237	76.000000	nontarget	10.000000	na
68.481937	0.050680	76.000000	nontarget	11.000000	na
68.532618	0.049544	76.000000	nontarget	12.000000	na
68.582161	0.049921	76.000000	nontarget	13.000000	na
68.632083	0.049939	76.000000	nontarget	14.000000	na
68.682022	0.049984	76.000000	nontarget	15.000000	na
68.732006	0.050667	76.000000	nontarget	16.000000	na
68.782673	0.049176	77.000000	nontarget	1.000000	na
68.831849	0.050637	77.000000	nontarget	2.000000	na
68.882487	0.049987	77.000000	nontarget	3.000000	na
68.932474	0.050209	77.000000	nontarget	4.000000	na
68.982683	0.049036	77.000000	nontarget	5.000000	na
69.031719	0.050738	77.000000	nontarget	6.000000	na
69.082458	0.050028	77.000000	nontarget	7.000000	na
69.132486	0.049493	77.000000	nontarget	8.000000	69.161136
69.181979	0.050460	77.000000	nontarget	9.000000	na
69.232439	0.049653	77.000000	nontarget	10.000000	na
69.282092	0.050279	77.000000	nontarget	11.000000	na
69.332371	0.050090	77.000000	nontarget	12.000000	na
69.382462	0.050025	77.000000	nontarget	13.000000	na
69.432486	0.050144	77.000000	nontarget	14.000000	na
69.482630	0.049805	77.000000	nontarget	15.000000	na
69.532435	0.049940	77.000000	nontarget	16.000000	na
69.582375	0.049854	78.000000	nontarget	1.000000	na
69.632228	0.050400	78.000000	nontarget	2.000000	na
69.682628	0.049767	78.000000	nontarget	3.000000	na
69.732395	0.049482	78.000000	nontarget	4.000000	na
69.781877	0.050602	78.000000	nontarget	5.000000	na
69.832479	0.049956	78.000000	nontarget	6.000000	na
69.882435	0.049822	78.000000	nontarget	7.000000	na
69.932257	0.050029	78.000000	nontarget	8.000000	na
69.982286	0.050032	78.000000	nontarget	9.000000	na
70.032318	0.049598	78.000000	nontarget	10.000000	na
70.081916	0.050319	78.000000	nontarget	11.000000	na
70.132235	0.050362	78.000000	nontarget	12.000000	70.138858
70.182597	0.049772	78.000000	nontarget	13.000000	na
70.232370	0.050096	78.000000	nontarget	14.000000	na
70.282465	0.050019	78.000000	nontarget	15.000000	na
70.332484	0.049213	78.000000	nontarget	16.000000	na
70.381698	0.050788	79.000000	nontarget	1.000000	na
70.432486	0.049979	79.000000	nontarget	2.000000	na
70.482464	0.050071	79.000000	nontarget	3.000000	na
70.532535	0.049124	79.000000	nontarget	4.000000	na
70.581659	0.050253	79.000000	nontarget	5.000000	na
70.631912	0.049938	79.000000	nontarget	6.000000	na
70.681850	0.050609	79.000000	nontarget	7.000000	na
70.732458	0.049527	79.000000	nontarget	8.000000	na
70.781985	0.050219	79.000000	nontarget	9.000000	na
70.832204	0.050256	79.000000	nontarget	10.000000	na
70.882459	0.049971	79.000000	nontarget	11.000000	na
70.932431	0.049437	79.000000	nontarget	12.000000	na
70.981868	0.050502	79.000000	nontarget	13.000000	na
71.032371	0.049067	79.000000	nontarget	14.000000	na
71.081438	0.051186	79.000000	nontarget	15.000000	na
71.132624	0.049482	79.000000	nontarget	16.000000	na
71.182107	0.049726	80.000000	nontarget	1.000000	71.188725
71.231832	0.050616	80.000000	nontarget	2.000000	na
71.282448	0.049383	80.000000	nontarget	3.000000	na
71.331832	0.050140	80.000000	nontarget	4.000000	na
71.381972	0.050469	80.000000	nontarget	5.000000	na
71.432441	0.049914	80.000000	nontarget	6.000000	na
71.482355	0.050268	80.000000	nontarget	7.000000	na
71.532623	0.049574	80.000000	nontarget	8.000000	na
71.582197	0.050329	80.000000	nontarget	9.000000	na
71.632526	0.049992	80.000000	nontarget	10.000000	na
71.682517	0.049811	80.000000	nontarget	11.000000	na
71.732329	0.050323	80.000000	nontarget	12.000000	na
71.782652	0.049225	80.000000	nontarget	13.000000	na
71.831877	0.050624	80.000000	nontarget	14.000000	na
71.882501	0.049066	80.000000	nontarget	15.000000	na
71.931567	0.050823	80.000000	nontarget	16.000000	na
71.982390	0.050027	81.000000	nontarget	1.000000	na
72.032417	0.049647	81.000000	nontarget	2.000000	na
72.082064	0.038663	81.000000	nontarget	3.000000	72.088719
72.120727	0.044418	81.000000	nontarget	4.000000	na
72.165145	0.038793	81.000000	nontarget	5.000000	na
72.203938	0.045189	81.000000	nontarget	6.000000	na
72.249127	0.050077	81.000000	nontarget	7.000000	na
72.299204	0.049084	81.000000	nontarget	8.000000	na
72.348288	0.050823	81.000000	nontarget	9.000000	na
72.399111	0.049673	81.000000	nontarget	10.000000	na
72.448784	0.050474	81.000000	nontarget	11.000000	na
72.499258	0.049975	81.000000	nontarget	12.000000	na
72.549233	0.049921	81.000000	nontarget	13.000000	na
72.599154	0.049997	81.000000	nontarget	14.000000	na
72.649151	0.049684	81.000000	nontarget	15.000000	na
72.698835	0.050281	81.000000	nontarget	16.000000	na
72.749117	0.050042	82.000000	nontarget	1.000000	na
72.799159	0.049409	82.000000	nontarget	2.000000	na
72.848567	0.050570	82.000000	nontarget	3.000000	na
72.899138	0.049495	82.000000	nontarget	4.000000	na
72.948632	0.050487	82.000000	nontarget	5.000000	na
72.999119	0.050180	82.000000	nontarget	6.000000	na
73.049299	0.049259	82.000000	nontarget	7.000000	73.077443
73.098558	0.050579	82.000000	nontarget	8.000000	na
73.149137	0.049835	82.000000	nontarget	9.000000	na
73.198972	0.050040	82.000000	nontarget	10.000000	na
73.249012	0.049935	82.000000	nontarget	11.000000	na
73.298947	0.049433	82.000000	nontarget	12.000000	na
73.348380	0.050590	82.000000	nontarget	13.000000	na
73.398970	0.050101	82.000000	nontarget	14.000000	na
73.449071	0.050041	82.000000	nontarget	15.000000	na
73.499112	0.049854	82.000000	nontarget	16.000000	na
73.548966	0.049882	83.000000	nontarget	1.000000	na
73.598848	0.050460	83.000000	nontarget	2.000000	na
73.649308	0.049323	83.000000	nontarget	3.000000	na
73.698632	0.050499	83.000000	nontarget	4.000000	na
73.749130	0.050138	83.000000	nontarget	5.000000	na
73.799269	0.048985	83.000000	nontarget	6.000000	na
73.848253	0.051003	83.000000	nontarget	7.000000	na
73.899256	0.049881	83.000000	nontarget	8.000000	na
73.949137	0.049789	83.000000	nontarget	9.000000	na
73.998926	0.050280	83.000000	nontarget	10.000000	na
74.049207	0.050134	83.000000	nontarget	11.000000	74.055956
74.099341	0.049906	83.000000	nontarget	12.000000	na
74.149247	0.048934	83.000000	nontarget	13.000000	na
74.198180	0.050932	83.000000	nontarget	14.000000	na
74.249113	0.049916	83.000000	nontarget	15.000000	na
74.299029	0.050065	83.000000	nontarget	16.000000	na
74.349094	0.050016	84.000000	nontarget	1.000000	na
74.399110	0.049659	84.000000	nontarget	2.000000	na
74.448769	0.050067	84.000000	nontarget	3.000000	na
74.498836	0.050193	84.000000	nontarget	4.000000	na
74.549029	0.050073	84.000000	nontarget	5.000000	na
74.599102	0.050033	84.000000	nontarget	6.000000	na
74.649135	0.049962	84.000000	nontarget	7.000000	na
74.699097	0.050040	84.000000	nontarget	8.000000	na
74.749137	0.049945	84.000000	nontarget	9.000000	na
74.799081	0.050054	84.000000	nontarget	10.000000	na
74.849135	0.049637	84.000000	nontarget	11.000000	na
74.898772	0.050263	84.000000	nontarget	12.000000	na
74.949035	0.050271	84.000000	nontarget	13.000000	na
74.999306	0.049314	84.000000	nontarget	14.000000	na
75.048620	0.049937	84.000000	nontarget	15.000000	na
75.098557	0.050723	84.000000	nontarget	16.000000	na
75.149280	0.049702	85.000000	nontarget	1.000000	75.181870
75.198982	0.050112	85.000000	nontarget	2.000000	na
75.249094	0.049422	85.000000	nontarget	3.000000	na
75.298516	0.049830	85.000000	nontarget	4.000000	na
75.348346	0.050860	85.000000	nontarget	5.000000	na
75.399206	0.049863	85.000000	nontarget	6.000000	na
75.449069	0.049993	85.000000	nontarget	7.000000	na
75.499063	0.049915	85.000000	nontarget	8.000000	na
75.548978	0.049640	85.000000	nontarget	9.000000	na
75.598617	0.050446	85.000000	nontarget	10.000000	na
75.649064	0.049348	85.000000	nontarget	11.000000	na
75.698412	0.050671	85.000000	nontarget	12.000000	na
75.749083	0.049954	85.000000	nontarget	13.000000	na
75.799037	0.049833	85.000000	nontarget	14.000000	na
75.848870	0.049913	85.000000	nontarget	15.000000	na
75.898783	0.050030	85.000000	nontarget	16.000000	na
75.948812	0.050409	86.000000	nontarget	1.000000	na
75.999221	0.049127	86.000000	nontarget	2.000000	na
76.048348	0.050579	86.000000	nontarget	3.000000	76.064128
76.098927	0.049409	86.000000	nontarget	4.000000	na
76.148336	0.050595	86.000000	nontarget	5.000000	na
76.198931	0.049492	86.000000	nontarget	6.000000	na
76.248423	0.050237	86.000000	nontarget	7.000000	na
76.298659	0.049954	86.000000	nontarget	8.000000	na
76.348613	0.049596	86.000000	nontarget	9.000000	na
76.398209	0.050844	86.000000	nontarget	10.000000	na
76.449053	0.050063	86.000000	nontarget	11.000000	na
76.499117	0.049964	86.000000	nontarget	12.000000	na
76.549080	0.049714	86.000000	nontarget	13.000000	na
76.598794	0.050283	86.000000	nontarget	14.000000	na
76.649078	0.049971	86.000000	nontarget	15.000000	na
76.699049	0.050079	86.000000	nontarget	16.000000	na
76.749127	0.049928	87.000000	nontarget	1.000000	na
76.799056	0.049459	87.000000	nontarget	2.000000	na
76.848514	0.049925	87.000000	nontarget	3.000000	na
76.898440	0.050093	87.000000	nontarget	4.000000	na
76.948533	0.050517	87.000000	nontarget	5.000000	na
76.999049	0.049870	87.000000	nontarget	6.000000	na
77.048919	0.049541	87.000000	nontarget	7.000000	na
77.098460	0.050691	87.000000	nontarget	8.000000	na
77.149151	0.049862	87.000000	nontarget	9.000000	77.160465
77.199013	0.050150	87.000000	nontarget	10.000000	na
77.249163	0.049852	87.000000	nontarget	11.000000	na
77.299015	0.049549	87.000000	nontarget	12.000000	na
77.348564	0.050060	87.000000	nontarget	13.000000	na
77.398624	0.049917	87.000000	nontarget	14.000000	na
77.448542	0.049843	87.000000	nontarget	15.000000	na
77.498384	0.050812	87.000000	nontarget	16.000000	na
77.549196	0.049238	88.000000	nontarget	1.000000	na
77.598434	0.049808	88.000000	nontarget	2.000000	na
77.648242	0.050066	88.000000	nontarget	3.000000	na
77.698308	0.050084	88.000000	nontarget	4.000000	na
77.748392	0.050701	88.000000	nontarget	5.000000	na
77.799093	0.049800	88.000000	nontarget	6.000000	na
77.848892	0.050108	88.000000	nontarget	7.000000	na
77.899001	0.049799	88.000000	nontarget	8.000000	na
77.948800	0.049908	88.000000	nontarget	9.000000	na
77.998707	0.038961	88.000000	nontarget	10.000000	na
78.037668	0.044840	88.000000	nontarget	11.000000	na
78.082508	0.049264	88.000000	nontarget	12.000000	na
78.131772	0.050533	88.000000	nontarget	13.000000	na
78.182305	0.050101	88.000000	nontarget	14.000000	na
78.232406	0.049945	88.000000	nontarget	15.000000	na
78.282351	0.049202	88.000000	nontarget	16.000000	78.291134
78.331553	0.050886	89.000000	nontarget	1.000000	78.338237
78.382439	0.049899	89.000000	nontarget	2.000000	na
78.432339	0.049698	89.000000	nontarget	3.000000	na
78.482037	0.049849	89.000000	nontarget	4.000000	na
78.531886	0.050313	89.000000	nontarget	5.000000	na
78.582199	0.050215	89.000000	nontarget	6.000000	na
78.632414	0.049736	89.000000	nontarget	7.000000	na
78.682150	0.049765	89.000000	nontarget	8.000000	na
78.731915	0.050387	89.000000	nontarget	9.000000	na
78.782302	0.038668	89.000000	nontarget	10.000000	na
78.820970	0.044506	89.000000	nontarget	11.000000	na
78.865476	0.050343	89.000000	nontarget	12.000000	na
78.915819	0.049841	89.000000	nontarget	13.000000	na
78.965660	0.049374	89.000000	nontarget	14.000000	na
79.015034	0.050458	89.000000	nontarget	15.000000	na
79.065492	0.050169	89.000000	nontarget	16.000000	na
79.115661	0.049371	90.000000	nontarget	1.000000	na
79.165033	0.050833	90.000000	nontarget	2.000000	79.171784
79.215865	0.049966	90.000000	nontarget	3.000000	na
79.265832	0.048985	90.000000	nontarget	4.000000	na
79.314816	0.050842	90.000000	nontarget	5.000000	na
79.365658	0.049479	90.000000	nontarget	6.000000	na
79.415137	0.050545	90.000000	nontarget	7.000000	na
79.465681	0.049978	90.000000	nontarget	8.000000	na
79.515659	0.049746	90.000000	nontarget	9.000000	na
79.565405	0.050411	90.000000	nontarget	10.000000	na
79.615817	0.049844	90.000000	nontarget	11.000000	na
79.665661	0.050026	90.000000	nontarget	12.000000	na
79.715687	0.049987	90.000000	nontarget	13.000000	na
79.765674	0.049948	90.000000	nontarget	14.000000	na
79.815622	0.049844	90.000000	nontarget	15.000000	na
79.865466	0.050208	90.000000	nontarget	16.000000	na
79.915674	0.049928	91.000000	target	1.000000	na
79.965602	0.049375	91.000000	target	2.000000	na
80.014978	0.050468	91.000000	target	3.000000	na
80.065446	0.050213	91.000000	target	4.000000	na
80.115659	0.049522	91.000000	target	5.000000	na
80.165181	0.050482	91.000000	target	6.000000	na
80.215663	0.049976	91.000000	target	7.000000	na
80.265639	0.049278	91.000000	target	8.000000	na
80.314917	0.050737	91.000000	target	9.000000	na
80.365654	0.049895	91.000000	target	10.000000	na
80.415550	0.050097	91.000000	target	11.000000	na
80.465646	0.049187	91.000000	target	12.000000	na
80.514834	0.050697	91.000000	target	13.000000	na
80.565531	0.050123	91.000000	target	14.000000	na
80.615653	0.049088	91.000000	target	15.000000	na
80.664742	0.050919	91.000000	target	16.000000	na
80.715661	0.049927	92.000000	nontarget	1.000000	na
80.765588	0.050068	92.000000	nontarget	2.000000	na
80.815656	0.049231	92.000000	nontarget	3.000000	na
80.864887	0.050607	92.000000	nontarget	4.000000	na
80.915494	0.049773	92.000000	nontarget	5.000000	80.926857
80.965266	0.049856	92.000000	nontarget	6.000000	na
81.015122	0.050378	92.000000	nontarget	7.000000	na
81.065501	0.050068	92.000000	nontarget	8.000000	na
81.115568	0.049244	92.000000	nontarget	9.000000	na
81.164812	0.038847	92.000000	nontarget	10.000000	na
81.203659	0.044656	92.000000	nontarget	11.000000	na
81.248315	0.050548	92.000000	nontarget	12.000000	na
81.298862	0.050115	92.000000	nontarget	13.000000	na
81.348978	0.049984	92.000000	nontarget	14.000000	na
81.398962	0.049505	92.000000	nontarget	15.000000	na
81.448467	0.050642	92.000000	nontarget	16.000000	na
81.499109	0.049720	93.000000	nontarget	1.000000	na
81.548829	0.049689	93.000000	nontarget	2.000000	na
81.598518	0.050483	93.000000	nontarget	3.000000	na
81.649001	0.049970	93.000000	nontarget	4.000000	na
81.698971	0.049926	93.000000	nontarget	5.000000	na
81.748896	0.050098	93.000000	nontarget	6.000000	na
81.798994	0.049836	93.000000	nontarget	7.000000	na
81.848830	0.050147	93.000000	nontarget	8.000000	na
81.898976	0.049662	93.000000	nontarget	9.000000	na
81.948638	0.050323	93.000000	nontarget	10.000000	na
81.998961	0.049987	93.000000	nontarget	11.000000	82.005760
82.048949	0.050012	93.000000	nontarget	12.000000	na
82.098961	0.050007	93.000000	nontarget	13.000000	na
82.148968	0.049461	93.000000	nontarget	14.000000	na
82.198429	0.050540	93.000000	nontarget	15.000000	na
82.248968	0.049787	93.000000	nontarget	16.000000	na
82.298755	0.050207	94.000000	nontarget	1.000000	82.305388
82.348962	0.038649	94.000000	nontarget	2.000000	na
82.387611	0.044715	94.000000	nontarget	3.000000	na
82.432326	0.050012	94.000000	nontarget	4.000000	na
82.482337	0.049957	94.000000	nontarget	5.000000	na
82.532295	0.050039	94.000000	nontarget	6.000000	na
82.582334	0.050004	94.000000	nontarget	7.000000	na
82.632338	0.049753	94.000000	nontarget	8.000000	na
82.682091	0.050205	94.000000	nontarget	9.000000	na
82.732296	0.049974	94.000000	nontarget	10.000000	na
82.782270	0.050247	94.000000	nontarget	11.000000	na
82.832517	0.049848	94.000000	nontarget	12.000000	na
82.882366	0.049352	94.000000	nontarget	13.000000	82.902079
82.931717	0.050637	94.000000	nontarget	14.000000	na
82.982355	0.049984	94.000000	nontarget	15.000000	na
83.032338	0.048990	94.000000	nontarget	16.000000	na
83.081328	0.050644	95.000000	nontarget	1.000000	na
83.131972	0.050336	95.000000	nontarget	2.000000	na
83.182309	0.050051	95.000000	nontarget	3.000000	na
83.232360	0.049694	95.000000	nontarget	4.000000	na
83.282054	0.050257	95.000000	nontarget	5.000000	na
83.332311	0.049841	95.000000	nontarget	6.000000	na
83.382151	0.049447	95.000000	nontarget	7.000000	na
83.431598	0.050409	95.000000	nontarget	8.000000	na
83.482007	0.049839	95.000000	nontarget	9.000000	na
83.531846	0.050544	95.000000	nontarget	10.000000	na
83.582390	0.049925	95.000000	nontarget	11.000000	na
83.632315	0.049131	95.000000	nontarget	12.000000	na
83.681447	0.050901	95.000000	nontarget	13.000000	na
83.732348	0.050078	95.000000	nontarget	14.000000	na
83.782426	0.049504	95.000000	nontarget	15.000000	na
83.831930	0.049554	95.000000	nontarget	16.000000	83.838863
83.881484	0.050432	96.000000	nontarget	1.000000	83.888190
83.931916	0.049697	96.000000	nontarget	2.000000	na
83.981613	0.050620	96.000000	nontarget	3.000000	na
84.032233	0.049585	96.000000	nontarget	4.000000	na
84.081819	0.050446	96.000000	nontarget	5.000000	na
84.132265	0.049900	96.000000	nontarget	6.000000	na
84.182165	0.050168	96.000000	nontarget	7.000000	na
84.232333	0.049573	96.000000	nontarget	8.000000	na
84.281906	0.049971	96.000000	nontarget	9.000000	na
84.331877	0.049664	96.000000	nontarget	10.000000	na
84.381541	0.050754	96.000000	nontarget	11.000000	na
84.432295	0.050012	96.000000	nontarget	12.000000	na
84.482306	0.049994	96.000000	nontarget	13.000000	na
84.532300	0.049949	96.000000	nontarget	14.000000	na
84.582249	0.050133	96.000000	nontarget	15.000000	na
84.632382	0.049955	96.000000	nontarget	16.000000	na
84.682337	0.049937	97.000000	nontarget	1.000000	na
84.732273	0.049996	97.000000	nontarget	2.000000	na
84.782269	0.050156	97.000000	nontarget	3.000000	na
84.832425	0.049435	97.000000	nontarget	4.000000	84.839090
84.881860	0.050434	97.000000	nontarget	5.000000	na
84.932294	0.049795	97.000000	nontarget	6.000000	na
84.982089	0.050194	97.000000	nontarget	7.000000	na
85.032283	0.049732	97.000000	nontarget	8.000000	na
85.082016	0.050163	97.000000	nontarget	9.000000	na
85.132178	0.049938	97.000000	nontarget	10.000000	na
85.182116	0.049544	97.000000	nontarget	11.000000	na
85.231660	0.050621	97.000000	nontarget	12.000000	na
85.282281	0.050008	97.000000	nontarget	13.000000	na
85.332289	0.049440	97.000000	nontarget	14.000000	na
85.381729	0.050405	97.000000	nontarget	15.000000	na
85.432133	0.049782	97.000000	nontarget	16.000000	na
85.481915	0.050357	98.000000	nontarget	1.000000	na
85.532273	0.049298	98.000000	nontarget	2.000000	na
85.581571	0.050521	98.000000	nontarget	3.000000	na
85.632091	0.050329	98.000000	nontarget	4.000000	na
85.682420	0.050074	98.000000	nontarget	5.000000	na
85.732494	0.049358	98.000000	nontarget	6.000000	na
85.781851	0.050374	98.000000	nontarget	7.000000	85.787673
85.832225	0.049222	98.000000	nontarget	8.000000	na
85.881447	0.050101	98.000000	nontarget	9.000000	na
85.931548	0.050819	98.000000	nontarget	10.000000	na
85.982367	0.050033	98.000000	nontarget	11.000000	na
86.032400	0.049079	98.000000	nontarget	12.000000	na
86.081479	0.050756	98.000000	nontarget	13.000000	na
86.132236	0.049634	98.000000	nontarget	14.000000	na
86.181870	0.050273	98.000000	nontarget	15.000000	na
86.232143	0.050327	98.000000	nontarget	16.000000	na
86.282470	0.049795	99.000000	nontarget	1.000000	na
86.332264	0.050063	99.000000	nontarget	2.000000	na
86.382328	0.049940	99.000000	nontarget	3.000000	na
86.432268	0.049667	99.000000	nontarget	4.000000	na
86.481934	0.050328	99.000000	nontarget	5.000000	na
86.532262	0.049738	99.000000	nontarget	6.000000	na
86.582001	0.050181	99.000000	nontarget	7.000000	na
86.632181	0.049959	99.000000	nontarget	8.000000	na
86.682141	0.050119	99.000000	nontarget	9.000000	na
86.732260	0.049951	99.000000	nontarget	10.000000	86.739025
86.782211	0.050071	99.000000	nontarget	11.000000	na
86.832282	0.049195	99.000000	nontarget	12.000000	na
86.881477	0.050086	99.000000	nontarget	13.000000	na
86.931563	0.050534	99.000000	nontarget	14.000000	na
86.982098	0.038907	99.000000	nontarget	15.000000	na
87.021004	0.043585	99.000000	nontarget	16.000000	na
87.064589	0.050230	100.000000	nontarget	1.000000	na
87.114820	0.050518	100.000000	nontarget	2.000000	na
87.165338	0.050254	100.000000	nontarget	3.000000	na
87.215591	0.049829	100.000000	nontarget	4.000000	na
87.265420	0.050104	100.000000	nontarget	5.000000	na
87.315525	0.050014	100.000000	nontarget	6.000000	na
87.365539	0.049828	100.000000	nontarget	7.000000	na
87.415367	0.050045	100.000000	nontarget	8.000000	na
87.465413	0.050136	100.000000	nontarget	9.000000	na
87.515549	0.049988	100.000000	nontarget	10.000000	na
87.565537	0.049989	100.000000	nontarget	11.000000	na
87.615526	0.049722	100.000000	nontarget	12.000000	na
87.665248	0.050382	100.000000	nontarget	13.000000	na
87.715630	0.049899	100.000000	nontarget	14.000000	na
87.765529	0.049720	100.000000	nontarget	15.000000	na
87.815249	0.049716	100.000000	nontarget	16.000000	na
87.864965	0.050565	101.000000	target	1.000000	na
87.915529	0.050035	101.000000	target	2.000000	na
87.965564	0.049446	101.000000	target	3.000000	na
88.015010	0.049821	101.000000	target	4.000000	na
88.064831	0.050717	101.000000	target	5.000000	na
88.115548	0.049101	101.000000	target	6.000000	na
88.164649	0.050907	101.000000	target	7.000000	na
88.215556	0.050149	101.000000	target	8.000000	na
88.265706	0.049750	101.000000	target	9.000000	na
88.315455	0.050120	101.000000	target	10.000000	na
88.365575	0.050019	101.000000	target	11.000000	na
88.415594	0.049875	101.000000	target	12.000000	na
88.465469	0.049341	101.000000	target	13.000000	na
88.514809	0.050733	101.000000	target	14.000000	na
88.565543	0.050033	101.000000	target	15.000000	88.572289
88.615575	0.050027	101.000000	target	16.000000	na
88.665602	0.049305	102.000000	nontarget	1.000000	88.672250
88.714908	0.050090	102.000000	nontarget	2.000000	na
88.764998	0.050534	102.000000	nontarget	3.000000	na
88.815532	0.038760	102.000000	nontarget	4.000000	na
88.854292	0.044553	102.000000	nontarget	5.000000	na
88.898845	0.050211	102.000000	nontarget	6.000000	na
88.949056	0.049809	102.000000	nontarget	7.000000	na
88.998865	0.050004	102.000000	nontarget	8.000000	na
89.048869	0.050006	102.000000	nontarget	9.000000	na
89.098875	0.049985	102.000000	nontarget	10.000000	na
89.148860	0.049583	102.000000	nontarget	11.000000	na
89.198443	0.050514	102.000000	nontarget	12.000000	na
89.248957	0.049912	102.000000	nontarget	13.000000	na
89.298869	0.049300	102.000000	nontarget	14.000000	na
89.348169	0.050705	102.000000	nontarget	15.000000	na
89.398874	0.049093	102.000000	nontarget	16.000000	89.430010
89.447967	0.050861	103.000000	nontarget	1.000000	89.454616
89.498827	0.050027	103.000000	nontarget	2.000000	na
89.548854	0.049566	103.000000	nontarget	3.000000	na
89.598420	0.050279	103.000000	nontarget	4.000000	na
89.648699	0.050047	103.000000	nontarget	5.000000	na
89.698747	0.050113	103.000000	nontarget	6.000000	na
89.748860	0.050090	103.000000	nontarget	7.000000	na
89.798950	0.049937	103.000000	nontarget	8.000000	na
89.848887	0.049865	103.000000	nontarget	9.000000	na
89.898752	0.050117	103.000000	nontarget	10.000000	na
89.948869	0.049851	103.000000	nontarget	11.000000	na
89.998720	0.049571	103.000000	nontarget	12.000000	na
90.048290	0.050555	103.000000	nontarget	13.000000	na
90.098845	0.050093	103.000000	nontarget	14.000000	na
90.148938	0.049918	103.000000	nontarget	15.000000	na
90.198855	0.049761	103.000000	nontarget	16.000000	na
90.248617	0.050009	104.000000	nontarget	1.000000	na
90.298626	0.050140	104.000000	nontarget	2.000000	na
90.348766	0.038859	104.000000	nontarget	3.000000	90.360368
90.387625	0.043941	104.000000	nontarget	4.000000	na
90.431566	0.039391	104.000000	nontarget	5.000000	na
90.470957	0.043719	104.000000	nontarget	6.000000	na
90.514676	0.039092	104.000000	nontarget	7.000000	na
90.553768	0.044733	104.000000	nontarget	8.000000	na
90.598501	0.050363	104.000000	nontarget	9.000000	na
90.648864	0.050232	104.000000	nontarget	10.000000	na
90.699096	0.049947	104.000000	nontarget	11.000000	na
90.749043	0.049896	104.000000	nontarget	12.000000	na
90.798939	0.049930	104.000000	nontarget	13.000000	na
90.848869	0.049591	104.000000	nontarget	14.000000	na
90.898460	0.050202	104.000000	nontarget	15.000000	na
90.948662	0.050026	104.000000	nontarget	16.000000	na
90.998687	0.049467	105.000000	nontarget	1.000000	na
91.048154	0.050702	105.000000	nontarget	2.000000	na
91.098856	0.038946	105.000000	nontarget	3.000000	na
91.137803	0.043777	105.000000	nontarget	4.000000	na
91.181579	0.050107	105.000000	nontarget	5.000000	na
91.231687	0.049802	105.000000	nontarget	6.000000	91.254851
91.281489	0.050677	105.000000	nontarget	7.000000	na
91.332166	0.049272	105.000000	nontarget	8.000000	na
91.381438	0.050458	105.000000	nontarget	9.000000	na
91.431896	0.050275	105.000000	nontarget	10.000000	na
91.482171	0.049571	105.000000	nontarget	11.000000	na
91.531742	0.050275	105.000000	nontarget	12.000000	na
91.582017	0.049525	105.000000	nontarget	13.000000	na
91.631542	0.050077	105.000000	nontarget	14.000000	na
91.681619	0.050762	105.000000	nontarget	15.000000	na
91.732381	0.049810	105.000000	nontarget	16.000000	na
91.782192	0.049984	106.000000	nontarget	1.000000	na
91.832175	0.050006	106.000000	nontarget	2.000000	na
91.882182	0.049769	106.000000	nontarget	3.000000	na
91.931951	0.050255	106.000000	nontarget	4.000000	na
91.982206	0.049311	106.000000	nontarget	5.000000	na
92.031517	0.050561	106.000000	nontarget	6.000000	na
92.082078	0.038947	106.000000	nontarget	7.000000	92.113988
92.121025	0.043554	106.000000	nontarget	8.000000	na
92.164579	0.050455	106.000000	nontarget	9.000000	na
92.215033	0.050478	106.000000	nontarget	10.000000	na
92.265511	0.049184	106.000000	nontarget	11.000000	na
92.314695	0.050423	106.000000	nontarget	12.000000	na
92.365119	0.050365	106.000000	nontarget	13.000000	na
92.415484	0.050007	106.000000	nontarget	14.000000	na
92.465491	0.049925	106.000000	nontarget	15.000000	na
92.515416	0.050069	106.000000	nontarget	16.000000	na
92.565485	0.049930	107.000000	target	1.000000	na
92.615416	0.050047	107.000000	target	2.000000	na
92.665463	0.049337	107.000000	target	3.000000	na
92.714800	0.050721	107.000000	target	4.000000	na
92.765521	0.049366	107.000000	target	5.000000	na
92.814887	0.050504	107.000000	target	6.000000	na
92.865391	0.050111	107.000000	target	7.000000	na
92.915502	0.049986	107.000000	target	8.000000	na
92.965488	0.049646	107.000000	target	9.000000	na
93.015135	0.050336	107.000000	target	10.000000	na
93.065471	0.049982	107.000000	target	11.000000	na
93.115453	0.050205	107.000000	target	12.000000	na
93.165657	0.049693	107.000000	target	13.000000	na
93.215351	0.050123	107.000000	target	14.000000	na
93.265474	0.049958	107.000000	target	15.000000	na
93.315431	0.049769	107.000000	target	16.000000	na
93.365201	0.049979	108.000000	target	1.000000	na
93.415180	0.049743	108.000000	target	2.000000	93.431346
93.464923	0.050509	108.000000	target	3.000000	na
93.515432	0.049903	108.000000	target	4.000000	na
93.565336	0.050139	108.000000	target	5.000000	na
93.615475	0.049959	108.000000	target	6.000000	na
93.665434	0.049495	108.000000	target	7.000000	na
93.714929	0.050674	108.000000	target	8.000000	na
93.765603	0.049036	108.000000	target	9.000000	na
93.814639	0.050857	108.000000	target	10.000000	na
93.865496	0.049456	108.000000	target	11.000000	na
93.914951	0.049997	108.000000	target	12.000000	na
93.964948	0.050077	108.000000	target	13.000000	na
94.015025	0.050722	108.000000	target	14.000000	na
94.065747	0.049447	108.000000	target	15.000000	na
94.115194	0.050136	108.000000	target	16.000000	na
94.165330	0.049562	109.000000	nontarget	1.000000	na
94.214892	0.050247	109.000000	nontarget	2.000000	na
94.265139	0.050123	109.000000	nontarget	3.000000	na
94.315263	0.050323	109.000000	nontarget	4.000000	na
94.365586	0.050046	109.000000	nontarget	5.000000	na
94.415632	0.049814	109.000000	nontarget	6.000000	na
94.465446	0.050011	109.000000	nontarget	7.000000	na
94.515457	0.049985	109.000000	nontarget	8.000000	na
94.565442	0.050014	109.000000	nontarget	9.000000	na
94.615456	0.049329	109.000000	nontarget	10.000000	na
94.664785	0.050090	109.000000	nontarget	11.000000	94.688174
94.714875	0.050615	109.000000	nontarget	12.000000	na
94.765490	0.049962	109.000000	nontarget	13.000000	na
94.815452	0.049930	109.000000	nontarget	14.000000	na
94.865382	0.050061	109.000000	nontarget	15.000000	na
94.915442	0.049791	109.000000	nontarget	16.000000	na
94.965233	0.038828	110.000000	nontarget	1.000000	na
95.004061	0.044595	110.000000	nontarget	2.000000	na
95.048656	0.049818	110.000000	nontarget	3.000000	na
95.098475	0.049568	110.000000	nontarget	4.000000	na
95.148042	0.050715	110.000000	nontarget	5.000000	na
95.198758	0.050039	110.000000	nontarget	6.000000	na
95.248796	0.050049	110.000000	nontarget	7.000000	na
95.298845	0.049835	110.000000	nontarget	8.000000	na
95.348679	0.049957	110.000000	nontarget	9.000000	na
95.398636	0.050176	110.000000	nontarget	10.000000	na
95.448812	0.049978	110.000000	nontarget	11.000000	na
95.498790	0.049750	110.000000	nontarget	12.000000	na
95.548540	0.050239	110.000000	nontarget	13.000000	na
95.598779	0.049583	110.000000	nontarget	14.000000	na
95.648361	0.050403	110.000000	nontarget	15.000000	na
95.698764	0.049810	110.000000	nontarget	16.000000	95.714831
95.748574	0.050281	111.000000	nontarget	1.000000	95.755250
95.798856	0.049369	111.000000	nontarget	2.000000	na
95.848225	0.039097	111.000000	nontarget	3.000000	na
95.887322	0.044815	111.000000	nontarget	4.000000	na
95.932137	0.049215	111.000000	nontarget	5.000000	na
95.981352	0.040156	111.000000	nontarget	6.000000	na
96.021508	0.043622	111.000000	nontarget	7.000000	na
96.065130	0.050262	111.000000	nontarget	8.000000	na
96.115391	0.050143	111.000000	nontarget	9.000000	na
96.165534	0.049886	111.000000	nontarget	10.000000	na
96.215420	0.049986	111.000000	nontarget	11.000000	na
96.265406	0.050019	111.000000	nontarget	12.000000	na
96.315425	0.049518	111.000000	nontarget	13.000000	na
96.364943	0.050478	111.000000	nontarget	14.000000	na
96.415421	0.049088	111.000000	nontarget	15.000000	na
96.464510	0.050869	111.000000	nontarget	16.000000	na
96.515379	0.049473	112.000000	nontarget	1.000000	na
96.564852	0.050440	112.000000	nontarget	2.000000	na
96.615292	0.050127	112.000000	nontarget	3.000000	na
96.665419	0.049891	112.000000	nontarget	4.000000	na
96.715310	0.049925	112.000000	nontarget	5.000000	na
96.765235	0.050179	112.000000	nontarget	6.000000	na
96.815414	0.038791	112.000000	nontarget	7.000000	96.843283
96.854205	0.043368	112.000000	nontarget	8.000000	na
96.897573	0.039973	112.000000	nontarget	9.000000	na
96.937546	0.044295	112.000000	nontarget	10.000000	na
96.981841	0.038663	112.000000	nontarget	11.000000	na
97.020504	0.045040	112.000000	nontarget	12.000000	na
97.065544	0.049185	112.000000	nontarget	13.000000	na
97.114729	0.050460	112.000000	nontarget	14.000000	na
97.165189	0.050317	112.000000	nontarget	15.000000	na
97.215506	0.049889	112.000000	nontarget	16.000000	na
97.265396	0.050003	113.000000	nontarget	1.000000	na
97.315398	0.049912	113.000000	nontarget	2.000000	na
97.365311	0.050100	113.000000	nontarget	3.000000	na
97.415410	0.049994	113.000000	nontarget	4.000000	na
97.465404	0.050105	113.000000	nontarget	5.000000	na
97.515509	0.050101	113.000000	nontarget	6.000000	na
97.565610	0.049737	113.000000	nontarget	7.000000	na
97.615348	0.049634	113.000000	nontarget	8.000000	na
97.664982	0.050357	113.000000	nontarget	9.000000	na
97.715340	0.050053	113.000000	nontarget	10.000000	na
97.765393	0.050100	113.000000	nontarget	11.000000	na
97.815493	0.049407	113.000000	nontarget	12.000000	na
97.864900	0.050220	113.000000	nontarget	13.000000	na
97.915120	0.050279	113.000000	nontarget	14.000000	97.921639
97.965399	0.050100	113.000000	nontarget	15.000000	na
98.015499	0.049912	113.000000	nontarget	16.000000	na
98.065411	0.050183	114.000000	nontarget	1.000000	98.072104
98.115594	0.049799	114.000000	nontarget	2.000000	na
98.165394	0.049943	114.000000	nontarget	3.000000	na
98.215337	0.050130	114.000000	nontarget	4.000000	na
98.265467	0.049730	114.000000	nontarget	5.000000	na
98.315198	0.050185	114.000000	nontarget	6.000000	na
98.365383	0.050265	114.000000	nontarget	7.000000	na
98.415649	0.048900	114.000000	nontarget	8.000000	na
98.464549	0.050841	114.000000	nontarget	9.000000	na
98.515389	0.050007	114.000000	nontarget	10.000000	na
98.565397	0.049200	114.000000	nontarget	11.000000	na
98.614596	0.050744	114.000000	nontarget	12.000000	na
98.665341	0.050037	114.000000	nontarget	13.000000	na
98.715377	0.050004	114.000000	nontarget	14.000000	na
98.765381	0.049281	114.000000	nontarget	15.000000	na
98.814663	0.050730	114.000000	nontarget	16.000000	na
98.865393	0.049950	115.000000	nontarget	1.000000	na
98.915343	0.050016	115.000000	nontarget	2.000000	na
98.965358	0.038838	115.000000	nontarget	3.000000	na
99.004196	0.043938	115.000000	nontarget	4.000000	99.026105
99.048134	0.049825	115.000000	nontarget	5.000000	na
99.097959	0.050688	115.000000	nontarget	6.000000	na
99.148647	0.050066	115.000000	nontarget	7.000000	na
99.198713	0.049981	115.000000	nontarget	8.000000	na
99.248694	0.050102	115.000000	nontarget	9.000000	na
99.298795	0.049817	115.000000	nontarget	10.000000	na
99.348612	0.050047	115.000000	nontarget	11.000000	na
99.398659	0.049670	115.000000	nontarget	12.000000	na
99.448328	0.050390	115.000000	nontarget	13.000000	na
99.498719	0.049973	115.000000	nontarget	14.000000	na
99.548692	0.049966	115.000000	nontarget	15.000000	na
99.598657	0.049304	115.000000	nontarget	16.000000	na
99.647961	0.050692	116.000000	nontarget	1.000000	na
99.698653	0.050035	116.000000	nontarget	2.000000	na
99.748689	0.049196	116.000000	nontarget	3.000000	na
99.797884	0.050836	116.000000	nontarget	4.000000	na
99.848720	0.050260	116.000000	nontarget	5.000000	na
99.898981	0.050002	116.000000	nontarget	6.000000	na
99.948983	0.049536	116.000000	nontarget	7.000000	na
99.998519	0.038957	116.000000	nontarget	8.000000	100.010130
100.037476	0.044465	116.000000	nontarget	9.000000	na
100.081941	0.049785	116.000000	nontarget	10.000000	na
100.131726	0.050360	116.000000	nontarget	11.000000	na
100.182086	0.049811	116.000000	nontarget	12.000000	na
100.231897	0.050398	116.000000	nontarget	13.000000	na
100.282295	0.049691	116.000000	nontarget	14.000000	na
100.331986	0.050288	116.000000	nontarget	15.000000	na
100.382274	0.049362	116.000000	nontarget	16.000000	na
100.431636	0.050601	117.000000	nontarget	1.000000	na
100.482236	0.049495	117.000000	nontarget	2.000000	na
100.531731	0.050651	117.000000	nontarget	3.000000	na
100.582383	0.049111	117.000000	nontarget	4.000000	na
100.631494	0.050533	117.000000	nontarget	5.000000	na
100.682027	0.050015	117.000000	nontarget	6.000000	na
100.732042	0.049408	117.000000	nontarget	7.000000	na
100.781451	0.050591	117.000000	nontarget	8.000000	na
100.832041	0.049418	117.000000	nontarget	9.000000	na
100.881459	0.050329	117.000000	nontarget	10.000000	na
100.931788	0.049925	117.000000	nontarget	11.000000	na
100.981713	0.050653	117.000000	nontarget	12.000000	na
101.032366	0.049754	117.000000	nontarget	13.000000	na
101.082120	0.049857	117.000000	nontarget	14.000000	na
101.131976	0.050359	117.000000	nontarget	15.000000	na
101.182335	0.049037	117.000000	nontarget	16.000000	na
101.231372	0.050610	118.000000	nontarget	1.000000	na
101.281983	0.050049	118.000000	nontarget	2.000000	na
101.332031	0.049774	118.000000	nontarget	3.000000	101.338815
101.381806	0.050215	118.000000	nontarget	4.000000	na
101.432021	0.049556	118.000000	nontarget	5.000000	na
101.481577	0.050316	118.000000	nontarget	6.000000	na
101.531892	0.050446	118.000000	nontarget	7.000000	na
101.582338	0.049083	118.000000	nontarget	8.000000	na
101.631421	0.050383	118.000000	nontarget	9.000000	na
101.681805	0.038716	118.000000	nontarget	10.000000	na
101.720521	0.044652	118.000000	nontarget	11.000000	na
101.765173	0.050099	118.000000	nontarget	12.000000	na
101.815272	0.049986	118.000000	nontarget	13.000000	na
101.865258	0.049333	118.000000	nontarget	14.000000	na
101.914591	0.050124	118.000000	nontarget	15.000000	na
101.964715	0.050358	118.000000	nontarget	16.000000	na
102.015073	0.050624	119.000000	nontarget	1.000000	na
102.065697	0.049604	119.000000	nontarget	2.000000	102.093841
102.115301	0.050065	119.000000	nontarget	3.000000	na
102.165366	0.050003	119.000000	nontarget	4.000000	na
102.215369	0.049585	119.000000	nontarget	5.000000	na
102.264953	0.050643	119.000000	nontarget	6.000000	na
102.315596	0.049629	119.000000	nontarget	7.000000	na
102.365226	0.050163	119.000000	nontarget	8.000000	na
102.415389	0.049953	119.000000	nontarget	9.000000	na
102.465342	0.049854	119.000000	nontarget	10.000000	na
102.515195	0.049659	119.000000	nontarget	11.000000	na
102.564854	0.050660	119.000000	nontarget	12.000000	na
102.615515	0.049825	119.000000	nontarget	13.000000	na
102.665340	0.049954	119.000000	nontarget	14.000000	na
102.715294	0.049951	119.000000	nontarget	15.000000	na
102.765245	0.050031	119.000000	nontarget	16.000000	na
102.815276	0.050066	120.000000	nontarget	1.000000	na
102.865343	0.049585	120.000000	nontarget	2.000000	na
102.914927	0.050435	120.000000	nontarget	3.000000	na
102.965362	0.049653	120.000000	nontarget	4.000000	na
103.015015	0.039159	120.000000	nontarget	5.000000	103.021673
103.054174	0.044381	120.000000	nontarget	6.000000	na
103.098554	0.050303	120.000000	nontarget	7.000000	na
103.148857	0.049369	120.000000	nontarget	8.000000	na
103.198225	0.050435	120.000000	nontarget	9.000000	na
103.248660	0.050172	120.000000	nontarget	10.000000	na
103.298832	0.049932	120.000000	nontarget	11.000000	na
103.348764	0.049897	120.000000	nontarget	12.000000	na
103.398661	0.049514	120.000000	nontarget	13.000000	na
103.448175	0.050572	120.000000	nontarget	14.000000	na
103.498747	0.049892	120.000000	nontarget	15.000000	na
103.548639	0.050049	120.000000	nontarget	16.000000	na
103.598689	0.050091	121.000000	nontarget	1.000000	na
103.648779	0.050028	121.000000	nontarget	2.000000	na
103.698808	0.049826	121.000000	nontarget	3.000000	na
103.748634	0.050078	121.000000	nontarget	4.000000	na
103.798712	0.049434	121.000000	nontarget	5.000000	na
103.848146	0.039253	121.000000	nontarget	6.000000	103.876275
103.887398	0.044431	121.000000	nontarget	7.000000	na
103.931829	0.038843	121.000000	nontarget	8.000000	na
103.970672	0.043937	121.000000	nontarget	9.000000	na
104.014609	0.051051	121.000000	nontarget	10.000000	na
104.065660	0.049845	121.000000	nontarget	11.000000	na
104.115505	0.049946	121.000000	nontarget	12.000000	na
