onset	duration	trial_number	stim_type	trial_type	accuracy	response_time
13.033590	0.999454	1.000000	scene	nontarget	correct	0.553919
14.033044	0.999567	1.000000	fixation	nontarget	na	na
15.032611	1.000661	2.000000	scene	nontarget	correct	0.396918
16.033272	0.999964	2.000000	fixation	nontarget	na	na
17.033236	0.999680	3.000000	scene	nontarget	correct	0.435316
18.032917	1.000654	3.000000	fixation	nontarget	na	na
19.033570	0.998673	4.000000	scene	nontarget	correct	0.374095
20.032243	1.001046	4.000000	fixation	nontarget	na	na
21.033289	0.999507	5.000000	scene	nontarget	correct	0.584352
22.032796	0.999506	5.000000	fixation	nontarget	na	na
23.032302	1.000949	6.000000	scene	nontarget	correct	0.634767
24.033251	0.999105	6.000000	fixation	nontarget	na	na
25.032356	1.000651	7.000000	scene	target	incorrect	0.596769
26.033007	0.999568	7.000000	fixation	target	na	na
27.032575	0.999998	8.000000	scene	nontarget	correct	0.794692
28.032573	1.000004	8.000000	fixation	nontarget	na	na
29.032576	0.999996	9.000000	scene	nontarget	correct	0.705314
30.032573	0.999996	9.000000	fixation	nontarget	na	na
31.032569	1.000034	10.000000	scene	nontarget	correct	0.690108
32.032603	0.999962	10.000000	fixation	nontarget	na	na
33.032564	1.000652	11.000000	scene	nontarget	correct	0.665295
34.033216	0.999337	11.000000	fixation	nontarget	na	na
35.032554	1.000682	12.000000	scene	nontarget	correct	0.584522
36.033236	0.999324	12.000000	fixation	nontarget	na	na
37.032559	0.999997	13.000000	scene	nontarget	correct	0.697666
38.032556	0.999635	13.000000	fixation	nontarget	na	na
39.032191	1.000368	14.000000	scene	nontarget	correct	0.681415
40.032559	1.000013	14.000000	fixation	nontarget	na	na
41.032572	0.999996	15.000000	scene	nontarget	correct	0.691101
42.032568	1.000010	15.000000	fixation	nontarget	na	na
43.032579	0.999570	16.000000	scene	nontarget	correct	0.646001
44.032149	1.000438	16.000000	fixation	nontarget	na	na
45.032587	1.000210	17.000000	scene	nontarget	correct	0.826087
46.032797	0.999851	17.000000	fixation	nontarget	na	na
47.032648	0.999705	18.000000	scene	target	correct	 NaN
48.032352	1.000152	18.000000	fixation	target	na	na
49.032505	1.000357	19.000000	scene	nontarget	correct	0.395471
50.032861	0.999504	19.000000	fixation	nontarget	na	na
51.032366	1.000656	20.000000	scene	nontarget	correct	0.826590
52.033021	0.999851	20.000000	fixation	nontarget	na	na
53.032872	0.999578	21.000000	scene	nontarget	correct	0.840736
54.032450	0.999623	21.000000	fixation	nontarget	na	na
55.032072	1.000418	22.000000	scene	nontarget	correct	0.676669
56.032490	0.999623	22.000000	fixation	nontarget	na	na
57.032113	1.000380	23.000000	scene	nontarget	correct	0.682712
58.032493	0.999648	23.000000	fixation	nontarget	na	na
59.032141	1.000377	24.000000	scene	nontarget	correct	0.662852
60.032518	1.000016	24.000000	fixation	nontarget	na	na
61.032534	0.999985	25.000000	scene	nontarget	correct	1.077626
62.032519	0.999629	25.000000	fixation	nontarget	na	na
63.032148	1.000373	26.000000	scene	target	correct	 NaN
64.032521	0.999866	26.000000	fixation	target	na	na
65.032387	0.999628	27.000000	scene	nontarget	correct	0.432579
66.032015	1.000333	27.000000	fixation	nontarget	na	na
67.032348	0.999579	28.000000	scene	nontarget	correct	0.663867
68.031927	1.000502	28.000000	fixation	nontarget	na	na
69.032429	0.999581	29.000000	scene	nontarget	correct	0.735050
70.032009	0.999838	29.000000	fixation	nontarget	na	na
71.031847	1.000496	30.000000	scene	nontarget	correct	0.701852
72.032344	1.000011	30.000000	fixation	nontarget	na	na
73.032354	0.999647	31.000000	scene	nontarget	correct	0.661655
74.032002	1.000454	31.000000	fixation	nontarget	na	na
75.032456	0.999598	32.000000	scene	nontarget	correct	0.772437
76.032054	1.000482	32.000000	fixation	nontarget	na	na
77.032536	0.999611	33.000000	scene	nontarget	correct	0.838908
78.032147	1.000302	33.000000	fixation	nontarget	na	na
79.032449	0.999588	34.000000	scene	nontarget	correct	0.940988
80.032037	1.000527	34.000000	fixation	nontarget	na	na
81.032564	0.999609	35.000000	scene	nontarget	correct	0.966214
82.032174	0.999558	35.000000	fixation	nontarget	na	na
83.031732	1.000607	36.000000	scene	nontarget	correct	0.708267
84.032339	0.999605	36.000000	fixation	nontarget	na	na
85.031945	1.000495	37.000000	scene	nontarget	correct	0.771475
86.032440	0.999894	37.000000	fixation	nontarget	na	na
87.032334	0.999578	38.000000	scene	nontarget	correct	0.795694
88.031912	1.000560	38.000000	fixation	nontarget	na	na
89.032472	0.999785	39.000000	scene	nontarget	correct	0.649547
90.032257	1.000120	39.000000	fixation	nontarget	na	na
91.032378	0.999593	40.000000	scene	nontarget	correct	0.609573
92.031971	0.999574	40.000000	fixation	nontarget	na	na
93.031545	1.000633	41.000000	scene	nontarget	correct	0.646966
94.032178	0.999626	41.000000	fixation	nontarget	na	na
95.031804	1.000591	42.000000	scene	nontarget	correct	0.732262
96.032395	0.999613	42.000000	fixation	nontarget	na	na
97.032009	1.000382	43.000000	scene	target	correct	 NaN
98.032391	0.999646	43.000000	fixation	target	na	na
99.032037	0.999572	44.000000	scene	nontarget	correct	0.454833
100.031608	1.000634	44.000000	fixation	nontarget	na	na
101.032242	0.999614	45.000000	scene	nontarget	correct	0.690919
102.031856	1.000264	45.000000	fixation	nontarget	na	na
103.032120	1.000002	46.000000	scene	nontarget	correct	0.870379
104.032122	0.999976	46.000000	fixation	nontarget	na	na
105.032098	0.999744	47.000000	scene	target	incorrect	0.701311
106.031843	1.000228	47.000000	fixation	target	na	na
107.032070	0.999581	48.000000	scene	nontarget	correct	0.675755
108.031652	1.000606	48.000000	fixation	nontarget	na	na
109.032258	0.999639	49.000000	scene	nontarget	correct	0.604780
110.031896	0.999661	49.000000	fixation	nontarget	na	na
111.031557	1.000601	50.000000	scene	nontarget	correct	0.596629
112.032159	0.999632	50.000000	fixation	nontarget	na	na
113.031790	0.999681	51.000000	scene	nontarget	correct	0.524700
114.031471	1.000561	51.000000	fixation	nontarget	na	na
115.032032	0.999597	52.000000	scene	nontarget	correct	0.657771
116.031629	1.000629	52.000000	fixation	nontarget	na	na
117.032258	0.999644	53.000000	scene	nontarget	correct	0.858948
118.031902	0.999963	53.000000	fixation	nontarget	na	na
119.031864	1.000040	54.000000	scene	nontarget	correct	0.939566
120.031904	0.999990	54.000000	fixation	nontarget	na	na
121.031894	0.999440	55.000000	scene	nontarget	correct	0.862210
122.031334	1.000645	55.000000	fixation	nontarget	na	na
123.031979	0.999625	56.000000	scene	nontarget	correct	0.934660
124.031604	1.000243	56.000000	fixation	nontarget	na	na
125.031848	0.999835	57.000000	scene	nontarget	correct	1.062230
126.031683	0.999670	57.000000	fixation	nontarget	na	na
127.031353	1.000630	58.000000	scene	nontarget	correct	0.790279
128.031983	0.999621	58.000000	fixation	nontarget	na	na
129.031604	0.999642	59.000000	scene	target	incorrect	0.872070
130.031246	1.000446	59.000000	fixation	target	na	na
131.031692	0.999846	60.000000	scene	nontarget	correct	1.004603
132.031538	0.999675	60.000000	fixation	nontarget	na	na
133.031213	1.000615	61.000000	scene	nontarget	correct	0.675197
134.031827	0.999844	61.000000	fixation	nontarget	na	na
135.031671	0.999444	62.000000	scene	target	correct	 NaN
136.031116	1.000640	62.000000	fixation	target	na	na
137.031756	0.999857	63.000000	scene	nontarget	correct	0.372367
138.031613	1.000008	63.000000	fixation	nontarget	na	na
139.031621	0.999660	64.000000	scene	nontarget	correct	0.806384
140.031281	0.999665	64.000000	fixation	nontarget	na	na
141.030946	1.000665	65.000000	scene	nontarget	correct	0.902692
142.031611	0.999972	65.000000	fixation	nontarget	na	na
143.031583	0.999671	66.000000	scene	nontarget	correct	0.642625
144.031254	1.000661	66.000000	fixation	nontarget	na	na
145.031915	0.999909	67.000000	scene	nontarget	correct	0.983550
146.031824	0.999660	67.000000	fixation	nontarget	na	na
147.031484	1.000019	68.000000	scene	target	correct	 NaN
148.031503	0.999725	68.000000	fixation	target	na	na
149.031227	0.999742	69.000000	scene	nontarget	correct	0.310048
150.030970	1.000660	69.000000	fixation	nontarget	na	na
151.031629	0.999606	70.000000	scene	nontarget	correct	0.612102
152.031235	0.999373	70.000000	fixation	nontarget	na	na
153.030609	1.000819	71.000000	scene	nontarget	correct	0.842545
154.031428	0.999687	71.000000	fixation	nontarget	na	na
155.031115	1.000625	72.000000	scene	nontarget	correct	0.779696
156.031740	0.999669	72.000000	fixation	nontarget	na	na
157.031409	0.999645	73.000000	scene	nontarget	correct	0.898955
158.031055	0.999698	73.000000	fixation	nontarget	na	na
159.030753	1.000657	74.000000	scene	nontarget	correct	0.785956
160.031410	0.999684	74.000000	fixation	nontarget	na	na
161.031093	1.000195	75.000000	scene	nontarget	correct	0.763080
162.031289	0.999979	75.000000	fixation	nontarget	na	na
163.031267	0.999670	76.000000	scene	nontarget	correct	0.758381
164.030937	1.000668	76.000000	fixation	nontarget	na	na
165.031606	0.999661	77.000000	scene	nontarget	correct	0.733099
166.031266	0.999974	77.000000	fixation	nontarget	na	na
167.031240	0.999972	78.000000	scene	nontarget	correct	0.573241
168.031212	1.000044	78.000000	fixation	nontarget	na	na
169.031255	0.999626	79.000000	scene	nontarget	correct	0.629328
170.030881	1.000668	79.000000	fixation	nontarget	na	na
171.031550	0.998772	80.000000	scene	nontarget	incorrect	 NaN
172.030322	1.000666	80.000000	fixation	nontarget	na	na
173.030989	1.000006	81.000000	scene	nontarget	correct	0.386930
174.030995	1.000155	81.000000	fixation	nontarget	na	na
175.031150	0.999676	82.000000	scene	nontarget	correct	0.593680
176.030826	0.999607	82.000000	fixation	nontarget	na	na
177.030433	1.000684	83.000000	scene	nontarget	correct	0.560582
178.031117	0.999706	83.000000	fixation	nontarget	na	na
179.030823	0.999570	84.000000	scene	nontarget	correct	0.769918
180.030394	1.000668	84.000000	fixation	nontarget	na	na
181.031061	0.999600	85.000000	scene	nontarget	correct	0.896609
182.030661	0.999569	85.000000	fixation	nontarget	na	na
183.030231	1.000012	86.000000	scene	nontarget	correct	0.818802
184.030243	1.000664	86.000000	fixation	nontarget	na	na
185.030906	0.999654	87.000000	scene	nontarget	correct	0.632886
186.030560	1.000421	87.000000	fixation	nontarget	na	na
187.030981	0.999384	88.000000	scene	target	correct	 NaN
188.030366	1.000668	88.000000	fixation	target	na	na
189.031034	0.999909	89.000000	scene	nontarget	correct	0.496067
190.030943	0.999673	89.000000	fixation	nontarget	na	na
191.030616	0.999575	90.000000	scene	nontarget	correct	0.683751
192.030192	6.000166	90.000000	fixation	nontarget	na	na
198.030358	1.000458	91.000000	face	nontarget	correct	0.810722
199.030816	0.999954	91.000000	fixation	nontarget	na	na
200.030770	0.999990	92.000000	face	nontarget	correct	0.583265
201.030760	1.000007	92.000000	fixation	nontarget	na	na
202.030766	0.999996	93.000000	face	nontarget	correct	0.522847
203.030763	0.999578	93.000000	fixation	nontarget	na	na
204.030341	0.999537	94.000000	face	nontarget	correct	0.488160
205.029877	1.000842	94.000000	fixation	nontarget	na	na
206.030719	0.999588	95.000000	face	nontarget	correct	0.609045
207.030307	1.000381	95.000000	fixation	nontarget	na	na
208.030688	0.999176	96.000000	face	target	correct	 NaN
209.029865	1.000574	96.000000	fixation	target	na	na
210.030439	0.999575	97.000000	face	nontarget	correct	0.322673
211.030014	1.000663	97.000000	fixation	nontarget	na	na
212.030677	0.999429	98.000000	face	nontarget	correct	0.552368
213.030106	1.000702	98.000000	fixation	nontarget	na	na
214.030808	0.999574	99.000000	face	nontarget	correct	0.906279
215.030382	0.999552	99.000000	fixation	nontarget	na	na
216.029934	1.000630	100.000000	face	nontarget	correct	0.703907
217.030564	0.999879	100.000000	fixation	nontarget	na	na
218.030443	0.999571	101.000000	face	nontarget	correct	0.636279
219.030014	1.000662	101.000000	fixation	nontarget	na	na
220.030676	0.999592	102.000000	face	nontarget	correct	0.746652
221.030268	0.999557	102.000000	fixation	nontarget	na	na
222.029824	1.000567	103.000000	face	nontarget	correct	0.716147
223.030392	0.999576	103.000000	fixation	nontarget	na	na
224.029967	1.000632	104.000000	face	nontarget	correct	0.757383
225.030599	0.999588	104.000000	fixation	nontarget	na	na
226.030188	0.999557	105.000000	face	nontarget	correct	0.883091
227.029744	1.000510	105.000000	fixation	nontarget	na	na
228.030255	0.999556	106.000000	face	nontarget	correct	0.754079
229.029811	1.000577	106.000000	fixation	nontarget	na	na
230.030388	0.999567	107.000000	face	nontarget	correct	0.792161
231.029956	0.999555	107.000000	fixation	nontarget	na	na
232.029511	1.000297	108.000000	face	nontarget	correct	0.816027
233.029808	1.000581	108.000000	fixation	nontarget	na	na
234.030389	0.999617	109.000000	face	nontarget	correct	0.762578
235.030006	0.999551	109.000000	fixation	nontarget	na	na
236.029557	1.005428	110.000000	face	nontarget	correct	1.009227
237.034985	0.994325	110.000000	fixation	nontarget	na	na
238.029311	1.000497	111.000000	face	nontarget	correct	0.781038
239.029808	1.000576	111.000000	fixation	nontarget	na	na
240.030383	0.999860	112.000000	face	nontarget	correct	0.774471
241.030244	0.999571	112.000000	fixation	nontarget	na	na
242.029815	1.000408	113.000000	face	nontarget	correct	0.819204
243.030223	0.999568	113.000000	fixation	nontarget	na	na
244.029791	0.999551	114.000000	face	nontarget	correct	0.970772
245.029342	1.000509	114.000000	fixation	nontarget	na	na
246.029851	1.000304	115.000000	face	target	correct	 NaN
247.030154	0.999594	115.000000	fixation	target	na	na
248.029748	0.999464	116.000000	face	nontarget	correct	0.415171
249.029212	1.000396	116.000000	fixation	nontarget	na	na
250.029608	1.000488	117.000000	face	nontarget	correct	0.625744
251.030096	0.999576	117.000000	fixation	nontarget	na	na
252.029672	0.999631	118.000000	face	nontarget	correct	0.954159
253.029303	1.000389	118.000000	fixation	nontarget	na	na
254.029692	1.000454	119.000000	face	nontarget	correct	0.743135
255.030146	0.999561	119.000000	fixation	nontarget	na	na
256.029707	0.999600	120.000000	face	nontarget	correct	1.544014
257.029307	1.000197	120.000000	fixation	nontarget	na	na
258.029504	1.000350	121.000000	face	nontarget	correct	0.569324
259.029854	0.999993	121.000000	fixation	nontarget	na	na
260.029847	0.999596	122.000000	face	nontarget	correct	0.559359
261.029443	1.000372	122.000000	fixation	nontarget	na	na
262.029815	0.999525	123.000000	face	nontarget	correct	0.777656
263.029340	1.000504	123.000000	fixation	nontarget	na	na
264.029843	0.999536	124.000000	face	nontarget	correct	0.703590
265.029380	1.000514	124.000000	fixation	nontarget	na	na
266.029893	0.999517	125.000000	face	nontarget	correct	0.961772
267.029411	1.000528	125.000000	fixation	nontarget	na	na
268.029939	0.999587	126.000000	face	nontarget	correct	0.920053
269.029526	0.999632	126.000000	fixation	nontarget	na	na
270.029158	1.000493	127.000000	face	target	incorrect	0.695989
271.029651	0.999560	127.000000	fixation	target	na	na
272.029211	1.000469	128.000000	face	target	correct	 NaN
273.029680	1.000000	128.000000	fixation	target	na	na
274.029680	0.999947	129.000000	face	nontarget	correct	0.483131
275.029627	0.999569	129.000000	fixation	nontarget	na	na
276.029196	1.000462	130.000000	face	nontarget	correct	0.583802
277.029659	0.999654	130.000000	fixation	nontarget	na	na
278.029312	1.000372	131.000000	face	nontarget	correct	0.831721
279.029684	0.999511	131.000000	fixation	nontarget	na	na
280.029195	1.000433	132.000000	face	nontarget	correct	0.545458
281.029629	0.999752	132.000000	fixation	nontarget	na	na
282.029381	1.000005	133.000000	face	nontarget	correct	0.734083
283.029386	1.000146	133.000000	fixation	nontarget	na	na
284.029532	0.999966	134.000000	face	nontarget	correct	0.664920
285.029498	0.999964	134.000000	fixation	nontarget	na	na
286.029462	0.999597	135.000000	face	nontarget	correct	0.498998
287.029058	1.000404	135.000000	fixation	nontarget	na	na
288.029462	0.999503	136.000000	face	nontarget	correct	0.787867
289.028965	1.000372	136.000000	fixation	nontarget	na	na
290.029337	0.999587	137.000000	face	nontarget	correct	0.809196
291.028925	1.000449	137.000000	fixation	nontarget	na	na
292.029374	0.999938	138.000000	face	target	correct	 NaN
293.029312	1.000018	138.000000	fixation	target	na	na
294.029330	0.999893	139.000000	face	nontarget	correct	0.296322
295.029223	1.000373	139.000000	fixation	nontarget	na	na
296.029596	0.999760	140.000000	face	nontarget	correct	0.416648
297.029356	1.000049	140.000000	fixation	nontarget	na	na
298.029405	0.999891	141.000000	face	nontarget	correct	0.492570
299.029296	0.999442	141.000000	fixation	nontarget	na	na
300.028739	1.000481	142.000000	face	nontarget	correct	0.732634
301.029220	0.999535	142.000000	fixation	nontarget	na	na
302.028755	1.000441	143.000000	face	nontarget	correct	0.792111
303.029196	0.999998	143.000000	fixation	nontarget	na	na
304.029194	0.999723	144.000000	face	nontarget	correct	0.731228
305.028917	1.000407	144.000000	fixation	nontarget	na	na
306.029324	0.999601	145.000000	face	target	correct	 NaN
307.028925	1.000449	145.000000	fixation	target	na	na
308.029374	0.999835	146.000000	face	nontarget	correct	0.294128
309.029209	0.999818	146.000000	fixation	nontarget	na	na
310.029027	0.999426	147.000000	face	nontarget	correct	0.357065
311.028452	1.000765	147.000000	fixation	nontarget	na	na
312.029217	0.999998	148.000000	face	nontarget	correct	0.490041
313.029215	0.999536	148.000000	fixation	nontarget	na	na
314.028750	1.000490	149.000000	face	nontarget	correct	0.909211
315.029240	1.000063	149.000000	fixation	nontarget	na	na
316.029304	0.999814	150.000000	face	nontarget	correct	0.656663
317.029117	0.999464	150.000000	fixation	nontarget	na	na
318.028582	1.000628	151.000000	face	nontarget	correct	0.708472
319.029209	0.998992	151.000000	fixation	nontarget	na	na
320.028201	0.988757	152.000000	face	nontarget	correct	0.684704
321.016958	0.995194	152.000000	fixation	nontarget	na	na
322.012153	0.999952	153.000000	face	nontarget	correct	0.657928
323.012105	0.999893	153.000000	fixation	nontarget	na	na
324.011997	1.000077	154.000000	face	nontarget	correct	0.612999
325.012074	1.000034	154.000000	fixation	nontarget	na	na
326.012108	1.000155	155.000000	face	nontarget	correct	0.889102
327.012263	1.000079	155.000000	fixation	nontarget	na	na
328.012342	1.000002	156.000000	face	nontarget	correct	0.756390
329.012344	1.000096	156.000000	fixation	nontarget	na	na
330.012440	0.999802	157.000000	face	nontarget	correct	0.827912
331.012242	0.999900	157.000000	fixation	nontarget	na	na
332.012143	1.000054	158.000000	face	nontarget	correct	0.767682
333.012197	0.999997	158.000000	fixation	nontarget	na	na
334.012194	0.999403	159.000000	face	nontarget	correct	0.627095
335.011597	0.988789	159.000000	fixation	nontarget	na	na
336.000386	0.994352	160.000000	face	nontarget	correct	0.665531
336.994738	0.988657	160.000000	fixation	nontarget	na	na
337.983396	0.995333	161.000000	face	target	correct	 NaN
338.978729	0.999992	161.000000	fixation	target	na	na
339.978721	0.999558	162.000000	face	nontarget	correct	0.341273
340.978279	0.988806	162.000000	fixation	nontarget	na	na
341.967085	0.994402	163.000000	face	nontarget	correct	0.501509
342.961487	0.988808	163.000000	fixation	nontarget	na	na
343.950295	0.995080	164.000000	face	nontarget	correct	0.616923
344.945375	0.999623	164.000000	fixation	nontarget	na	na
345.944998	0.988813	165.000000	face	nontarget	correct	0.526217
346.933810	0.994403	165.000000	fixation	nontarget	na	na
347.928213	0.988788	166.000000	face	nontarget	correct	0.467343
348.917001	0.994346	166.000000	fixation	nontarget	na	na
349.911347	1.000370	167.000000	face	target	correct	 NaN
350.911717	0.999593	167.000000	fixation	target	na	na
351.911310	0.988799	168.000000	face	nontarget	correct	0.353756
352.900109	0.994411	168.000000	fixation	nontarget	na	na
353.894521	0.988796	169.000000	face	nontarget	correct	0.548097
354.883317	0.995703	169.000000	fixation	nontarget	na	na
355.879020	0.999458	170.000000	face	nontarget	correct	0.676399
356.878478	1.000070	170.000000	fixation	nontarget	na	na
357.878548	0.999971	171.000000	face	nontarget	correct	0.716681
358.878519	0.999708	171.000000	fixation	nontarget	na	na
359.878227	0.988786	172.000000	face	nontarget	correct	0.825625
360.867012	0.994087	172.000000	fixation	nontarget	na	na
361.861099	0.988797	173.000000	face	nontarget	correct	0.672873
362.849896	0.995203	173.000000	fixation	nontarget	na	na
363.845099	1.000299	174.000000	face	nontarget	correct	0.542779
364.845398	0.999901	174.000000	fixation	nontarget	na	na
365.845299	1.000089	175.000000	face	nontarget	correct	0.540918
366.845388	0.999951	175.000000	fixation	nontarget	na	na
367.845339	0.999596	176.000000	face	nontarget	correct	0.528850
368.844935	0.988761	176.000000	fixation	nontarget	na	na
369.833696	0.993763	177.000000	face	nontarget	correct	1.002399
370.827458	0.990009	177.000000	fixation	nontarget	na	na
371.817467	0.994205	178.000000	face	nontarget	correct	0.716483
372.811672	0.999892	178.000000	fixation	nontarget	na	na
373.811564	0.999994	179.000000	face	target	correct	 NaN
374.811558	0.988796	179.000000	fixation	target	na	na
375.800354	0.994436	180.000000	face	nontarget	correct	0.486203
376.794790	0.967588	180.000000	fixation	nontarget	na	na
