onset	duration	trial_number	trial_type	frame_number	time_of_response
8.056405	0.043829	1.000000	nontarget	1.000000	na
8.100234	0.050431	1.000000	nontarget	2.000000	na
8.150665	0.050171	1.000000	nontarget	3.000000	na
8.200836	0.049921	1.000000	nontarget	4.000000	na
8.250756	0.050010	1.000000	nontarget	5.000000	na
8.300767	0.050019	1.000000	nontarget	6.000000	na
8.350786	0.050122	1.000000	nontarget	7.000000	na
8.400909	0.049443	1.000000	nontarget	8.000000	na
8.450351	0.050836	1.000000	nontarget	9.000000	na
8.501187	0.049345	1.000000	nontarget	10.000000	na
8.550532	0.050500	1.000000	nontarget	11.000000	na
8.601032	0.049871	1.000000	nontarget	12.000000	na
8.650903	0.050003	1.000000	nontarget	13.000000	na
8.700906	0.049380	1.000000	nontarget	14.000000	na
8.750287	0.039350	1.000000	nontarget	15.000000	8.765758
8.789637	0.043576	1.000000	nontarget	16.000000	na
8.833213	0.039709	2.000000	nontarget	1.000000	8.839091
8.872922	0.044944	2.000000	nontarget	2.000000	na
8.917866	0.049681	2.000000	nontarget	3.000000	na
8.967548	0.049736	2.000000	nontarget	4.000000	na
9.017284	0.050205	2.000000	nontarget	5.000000	na
9.067489	0.050264	2.000000	nontarget	6.000000	na
9.117753	0.049807	2.000000	nontarget	7.000000	na
9.167560	0.049283	2.000000	nontarget	8.000000	na
9.216843	0.050574	2.000000	nontarget	9.000000	na
9.267417	0.050075	2.000000	nontarget	10.000000	na
9.317492	0.050198	2.000000	nontarget	11.000000	9.352096
9.367690	0.049356	2.000000	nontarget	12.000000	na
9.417046	0.050566	2.000000	nontarget	13.000000	na
9.467612	0.049968	2.000000	nontarget	14.000000	na
9.517580	0.050009	2.000000	nontarget	15.000000	na
9.567590	0.049950	2.000000	nontarget	16.000000	na
9.617540	0.049676	3.000000	nontarget	1.000000	na
9.667216	0.050140	3.000000	nontarget	2.000000	na
9.717356	0.050124	3.000000	nontarget	3.000000	na
9.767480	0.049825	3.000000	nontarget	4.000000	na
9.817305	0.049899	3.000000	nontarget	5.000000	na
9.867204	0.049870	3.000000	nontarget	6.000000	na
9.917074	0.050514	3.000000	nontarget	7.000000	na
9.967588	0.049354	3.000000	nontarget	8.000000	na
10.016942	0.038985	3.000000	nontarget	9.000000	10.028450
10.055927	0.044791	3.000000	nontarget	10.000000	na
10.100718	0.039190	3.000000	nontarget	11.000000	na
10.139908	0.043349	3.000000	nontarget	12.000000	na
10.183257	0.050613	3.000000	nontarget	13.000000	na
10.233869	0.049910	3.000000	nontarget	14.000000	na
10.283780	0.050367	3.000000	nontarget	15.000000	na
10.334146	0.050028	3.000000	nontarget	16.000000	na
10.384174	0.049643	4.000000	nontarget	1.000000	na
10.433817	0.050370	4.000000	nontarget	2.000000	na
10.484187	0.049970	4.000000	nontarget	3.000000	na
10.534158	0.049972	4.000000	nontarget	4.000000	na
10.584130	0.050037	4.000000	nontarget	5.000000	na
10.634167	0.049546	4.000000	nontarget	6.000000	na
10.683712	0.050522	4.000000	nontarget	7.000000	na
10.734234	0.049870	4.000000	nontarget	8.000000	na
10.784105	0.049556	4.000000	nontarget	9.000000	na
10.833661	0.049955	4.000000	nontarget	10.000000	10.843286
10.883616	0.050813	4.000000	nontarget	11.000000	na
10.934428	0.049702	4.000000	nontarget	12.000000	na
10.984130	0.049900	4.000000	nontarget	13.000000	na
11.034030	0.050208	4.000000	nontarget	14.000000	na
11.084237	0.049831	4.000000	nontarget	15.000000	na
11.134068	0.050108	4.000000	nontarget	16.000000	na
11.184176	0.050029	5.000000	nontarget	1.000000	na
11.234205	0.049970	5.000000	nontarget	2.000000	na
11.284174	0.049973	5.000000	nontarget	3.000000	na
11.334147	0.050006	5.000000	nontarget	4.000000	na
11.384153	0.049717	5.000000	nontarget	5.000000	na
11.433871	0.050225	5.000000	nontarget	6.000000	na
11.484095	0.050129	5.000000	nontarget	7.000000	na
11.534224	0.049202	5.000000	nontarget	8.000000	na
11.583427	0.050465	5.000000	nontarget	9.000000	11.589359
11.633892	0.050284	5.000000	nontarget	10.000000	na
11.684175	0.049997	5.000000	nontarget	11.000000	na
11.734172	0.049535	5.000000	nontarget	12.000000	na
11.783708	0.050439	5.000000	nontarget	13.000000	na
11.834146	0.050165	5.000000	nontarget	14.000000	na
11.884312	0.049323	5.000000	nontarget	15.000000	na
11.933635	0.050496	5.000000	nontarget	16.000000	na
11.984131	0.038559	6.000000	target	1.000000	na
12.022691	0.044325	6.000000	target	2.000000	na
12.067015	0.040030	6.000000	target	3.000000	na
12.107046	0.043828	6.000000	target	4.000000	na
12.150873	0.038785	6.000000	target	5.000000	na
12.189658	0.044394	6.000000	target	6.000000	na
12.234052	0.049723	6.000000	target	7.000000	na
12.283775	0.049883	6.000000	target	8.000000	na
12.333658	0.050346	6.000000	target	9.000000	na
12.384004	0.049824	6.000000	target	10.000000	na
12.433829	0.050152	6.000000	target	11.000000	na
12.483980	0.038714	6.000000	target	12.000000	na
12.522694	0.043516	6.000000	target	13.000000	na
12.566210	0.050748	6.000000	target	14.000000	12.571044
12.616959	0.050438	6.000000	target	15.000000	na
12.667397	0.050227	6.000000	target	16.000000	na
12.717624	0.049158	7.000000	nontarget	1.000000	na
12.766783	0.050182	7.000000	nontarget	2.000000	na
12.816965	0.050422	7.000000	nontarget	3.000000	na
12.867387	0.049226	7.000000	nontarget	4.000000	na
12.916613	0.050379	7.000000	nontarget	5.000000	na
12.966992	0.050462	7.000000	nontarget	6.000000	na
13.017454	0.050057	7.000000	nontarget	7.000000	na
13.067511	0.049518	7.000000	nontarget	8.000000	na
13.117029	0.050549	7.000000	nontarget	9.000000	na
13.167578	0.049821	7.000000	nontarget	10.000000	na
13.217399	0.050130	7.000000	nontarget	11.000000	na
13.267529	0.049475	7.000000	nontarget	12.000000	13.277528
13.317004	0.050606	7.000000	nontarget	13.000000	na
13.367610	0.050053	7.000000	nontarget	14.000000	na
13.417663	0.049733	7.000000	nontarget	15.000000	na
13.467396	0.049868	7.000000	nontarget	16.000000	na
13.517264	0.050431	8.000000	target	1.000000	na
13.567695	0.049877	8.000000	target	2.000000	na
13.617571	0.049953	8.000000	target	3.000000	na
13.667524	0.049983	8.000000	target	4.000000	na
13.717508	0.050124	8.000000	target	5.000000	na
13.767632	0.049876	8.000000	target	6.000000	na
13.817507	0.049728	8.000000	target	7.000000	na
13.867236	0.050231	8.000000	target	8.000000	na
13.917467	0.050009	8.000000	target	9.000000	na
13.967476	0.038651	8.000000	target	10.000000	na
14.006127	0.044235	8.000000	target	11.000000	na
14.050362	0.050446	8.000000	target	12.000000	na
14.100807	0.050140	8.000000	target	13.000000	na
14.150947	0.049866	8.000000	target	14.000000	na
14.200813	0.050241	8.000000	target	15.000000	14.207474
14.251055	0.049750	8.000000	target	16.000000	na
14.300805	0.050012	9.000000	nontarget	1.000000	14.307479
14.350817	0.049982	9.000000	nontarget	2.000000	na
14.400799	0.049492	9.000000	nontarget	3.000000	na
14.450291	0.050060	9.000000	nontarget	4.000000	na
14.500351	0.050350	9.000000	nontarget	5.000000	na
14.550701	0.049871	9.000000	nontarget	6.000000	na
14.600572	0.050181	9.000000	nontarget	7.000000	na
14.650753	0.049789	9.000000	nontarget	8.000000	na
14.700542	0.050289	9.000000	nontarget	9.000000	na
14.750831	0.049965	9.000000	nontarget	10.000000	na
14.800796	0.050019	9.000000	nontarget	11.000000	na
14.850815	0.049572	9.000000	nontarget	12.000000	na
14.900387	0.038727	9.000000	nontarget	13.000000	14.907388
14.939114	0.044930	9.000000	nontarget	14.000000	na
14.984044	0.049845	9.000000	nontarget	15.000000	na
15.033890	0.049271	9.000000	nontarget	16.000000	na
15.083160	0.050422	10.000000	nontarget	1.000000	na
15.133582	0.050079	10.000000	nontarget	2.000000	na
15.183661	0.039340	10.000000	nontarget	3.000000	na
15.223001	0.044351	10.000000	nontarget	4.000000	na
15.267353	0.049860	10.000000	nontarget	5.000000	na
15.317212	0.049874	10.000000	nontarget	6.000000	na
15.367087	0.050233	10.000000	nontarget	7.000000	na
15.417319	0.050186	10.000000	nontarget	8.000000	na
15.467506	0.049962	10.000000	nontarget	9.000000	na
15.517467	0.049520	10.000000	nontarget	10.000000	na
15.566987	0.050539	10.000000	nontarget	11.000000	na
15.617526	0.049559	10.000000	nontarget	12.000000	na
15.667085	0.050524	10.000000	nontarget	13.000000	15.673577
15.717609	0.049907	10.000000	nontarget	14.000000	na
15.767516	0.049754	10.000000	nontarget	15.000000	na
15.817271	0.049698	10.000000	nontarget	16.000000	na
15.866969	0.050276	11.000000	nontarget	1.000000	na
15.917245	0.050345	11.000000	nontarget	2.000000	na
15.967590	0.049746	11.000000	nontarget	3.000000	na
16.017337	0.050105	11.000000	nontarget	4.000000	na
16.067441	0.050067	11.000000	nontarget	5.000000	na
16.117508	0.050159	11.000000	nontarget	6.000000	na
16.167667	0.049931	11.000000	nontarget	7.000000	na
16.217598	0.049953	11.000000	nontarget	8.000000	na
16.267551	0.049434	11.000000	nontarget	9.000000	na
16.316985	0.049722	11.000000	nontarget	10.000000	na
16.366707	0.050825	11.000000	nontarget	11.000000	na
16.417532	0.049979	11.000000	nontarget	12.000000	na
16.467511	0.050071	11.000000	nontarget	13.000000	16.483497
16.517582	0.049933	11.000000	nontarget	14.000000	na
16.567514	0.049926	11.000000	nontarget	15.000000	na
16.617440	0.049507	11.000000	nontarget	16.000000	na
16.666947	0.050561	12.000000	nontarget	1.000000	na
16.717509	0.049340	12.000000	nontarget	2.000000	na
16.766848	0.049877	12.000000	nontarget	3.000000	na
16.816725	0.050786	12.000000	nontarget	4.000000	na
16.867512	0.049767	12.000000	nontarget	5.000000	na
16.917279	0.050262	12.000000	nontarget	6.000000	na
16.967541	0.038550	12.000000	nontarget	7.000000	na
17.006092	0.043840	12.000000	nontarget	8.000000	na
17.049931	0.050658	12.000000	nontarget	9.000000	na
17.100589	0.050271	12.000000	nontarget	10.000000	na
17.150860	0.050012	12.000000	nontarget	11.000000	na
17.200872	0.049318	12.000000	nontarget	12.000000	na
17.250190	0.050831	12.000000	nontarget	13.000000	na
17.301020	0.049043	12.000000	nontarget	14.000000	na
17.350064	0.050745	12.000000	nontarget	15.000000	17.385879
17.400809	0.050010	12.000000	nontarget	16.000000	na
17.450819	0.049209	13.000000	nontarget	1.000000	17.457414
17.500028	0.050703	13.000000	nontarget	2.000000	na
17.550731	0.050275	13.000000	nontarget	3.000000	na
17.601005	0.049072	13.000000	nontarget	4.000000	na
17.650077	0.050734	13.000000	nontarget	5.000000	na
17.700811	0.049829	13.000000	nontarget	6.000000	na
17.750640	0.050049	13.000000	nontarget	7.000000	na
17.800689	0.049669	13.000000	nontarget	8.000000	na
17.850359	0.050456	13.000000	nontarget	9.000000	na
17.900815	0.049995	13.000000	nontarget	10.000000	na
17.950809	0.049910	13.000000	nontarget	11.000000	na
18.000720	0.050111	13.000000	nontarget	12.000000	na
18.050831	0.049741	13.000000	nontarget	13.000000	na
18.100572	0.050236	13.000000	nontarget	14.000000	18.107211
18.150808	0.049888	13.000000	nontarget	15.000000	na
18.200697	0.050117	13.000000	nontarget	16.000000	na
18.250814	0.049939	14.000000	nontarget	1.000000	na
18.300753	0.049758	14.000000	nontarget	2.000000	na
18.350511	0.050324	14.000000	nontarget	3.000000	na
18.400835	0.048963	14.000000	nontarget	4.000000	na
18.449798	0.051070	14.000000	nontarget	5.000000	na
18.500868	0.049827	14.000000	nontarget	6.000000	na
18.550695	0.050314	14.000000	nontarget	7.000000	na
18.601009	0.049043	14.000000	nontarget	8.000000	na
18.650051	0.050795	14.000000	nontarget	9.000000	na
18.700846	0.049883	14.000000	nontarget	10.000000	na
18.750729	0.050182	14.000000	nontarget	11.000000	na
18.800910	0.049215	14.000000	nontarget	12.000000	na
18.850126	0.050786	14.000000	nontarget	13.000000	18.884774
18.900911	0.049827	14.000000	nontarget	14.000000	na
18.950738	0.049853	14.000000	nontarget	15.000000	na
19.000590	0.050316	14.000000	nontarget	16.000000	na
19.050907	0.049316	15.000000	nontarget	1.000000	na
19.100222	0.050548	15.000000	nontarget	2.000000	na
19.150770	0.050011	15.000000	nontarget	3.000000	na
19.200781	0.050133	15.000000	nontarget	4.000000	na
19.250914	0.049160	15.000000	nontarget	5.000000	na
19.300074	0.050607	15.000000	nontarget	6.000000	na
19.350680	0.050086	15.000000	nontarget	7.000000	na
19.400767	0.050223	15.000000	nontarget	8.000000	na
19.450989	0.049660	15.000000	nontarget	9.000000	na
19.500650	0.050047	15.000000	nontarget	10.000000	na
19.550697	0.050138	15.000000	nontarget	11.000000	na
19.600835	0.049970	15.000000	nontarget	12.000000	na
19.650805	0.050002	15.000000	nontarget	13.000000	na
19.700806	0.049946	15.000000	nontarget	14.000000	na
19.750753	0.049922	15.000000	nontarget	15.000000	na
19.800675	0.050054	15.000000	nontarget	16.000000	na
19.850728	0.049997	16.000000	target	1.000000	na
19.900726	0.050256	16.000000	target	2.000000	na
19.950982	0.049605	16.000000	target	3.000000	na
20.000588	0.050445	16.000000	target	4.000000	na
20.051032	0.049685	16.000000	target	5.000000	na
20.100718	0.050123	16.000000	target	6.000000	na
20.150841	0.049992	16.000000	target	7.000000	na
20.200833	0.050089	16.000000	target	8.000000	na
20.250921	0.049108	16.000000	target	9.000000	na
20.300029	0.050081	16.000000	target	10.000000	na
20.350110	0.049939	16.000000	target	11.000000	na
20.400050	0.051069	16.000000	target	12.000000	na
20.451118	0.049740	16.000000	target	13.000000	na
20.500859	0.050137	16.000000	target	14.000000	na
20.550996	0.050071	16.000000	target	15.000000	20.562371
20.601067	0.050032	16.000000	target	16.000000	na
20.651099	0.049041	17.000000	nontarget	1.000000	20.657685
20.700141	0.050602	17.000000	nontarget	2.000000	na
20.750743	0.050064	17.000000	nontarget	3.000000	na
20.800807	0.049868	17.000000	nontarget	4.000000	na
20.850675	0.050045	17.000000	nontarget	5.000000	na
20.900720	0.050255	17.000000	nontarget	6.000000	na
20.950975	0.049617	17.000000	nontarget	7.000000	na
21.000591	0.050440	17.000000	nontarget	8.000000	na
21.051031	0.049698	17.000000	nontarget	9.000000	na
21.100729	0.049985	17.000000	nontarget	10.000000	na
21.150714	0.050325	17.000000	nontarget	11.000000	na
21.201039	0.049739	17.000000	nontarget	12.000000	na
21.250778	0.050201	17.000000	nontarget	13.000000	na
21.300979	0.049382	17.000000	nontarget	14.000000	na
21.350361	0.050272	17.000000	nontarget	15.000000	na
21.400633	0.049997	17.000000	nontarget	16.000000	na
21.450630	0.050102	18.000000	nontarget	1.000000	na
21.500732	0.049908	18.000000	nontarget	2.000000	na
21.550639	0.050314	18.000000	nontarget	3.000000	21.561989
21.600954	0.050195	18.000000	nontarget	4.000000	na
21.651149	0.049589	18.000000	nontarget	5.000000	na
21.700738	0.050032	18.000000	nontarget	6.000000	na
21.750770	0.049171	18.000000	nontarget	7.000000	na
21.799941	0.050541	18.000000	nontarget	8.000000	na
21.850482	0.049584	18.000000	nontarget	9.000000	na
21.900066	0.050942	18.000000	nontarget	10.000000	na
21.951008	0.049621	18.000000	nontarget	11.000000	na
22.000629	0.050050	18.000000	nontarget	12.000000	na
22.050678	0.049544	18.000000	nontarget	13.000000	na
22.100222	0.049958	18.000000	nontarget	14.000000	na
22.150180	0.050517	18.000000	nontarget	15.000000	na
22.200697	0.049641	18.000000	nontarget	16.000000	na
22.250338	0.049992	19.000000	nontarget	1.000000	22.256907
22.300330	0.050296	19.000000	nontarget	2.000000	na
22.350626	0.050146	19.000000	nontarget	3.000000	na
22.400772	0.049958	19.000000	nontarget	4.000000	na
22.450730	0.049976	19.000000	nontarget	5.000000	na
22.500706	0.050108	19.000000	nontarget	6.000000	na
22.550815	0.050016	19.000000	nontarget	7.000000	na
22.600831	0.050308	19.000000	nontarget	8.000000	na
22.651139	0.049665	19.000000	nontarget	9.000000	na
22.700803	0.049823	19.000000	nontarget	10.000000	na
22.750626	0.050186	19.000000	nontarget	11.000000	na
22.800812	0.050259	19.000000	nontarget	12.000000	na
22.851071	0.059560	19.000000	nontarget	13.000000	na
22.910631	0.046074	19.000000	nontarget	14.000000	na
22.956705	0.043954	19.000000	nontarget	15.000000	22.980250
23.000659	0.050140	19.000000	nontarget	16.000000	na
23.050799	0.050013	20.000000	nontarget	1.000000	23.057368
23.100812	0.050258	20.000000	nontarget	2.000000	na
23.151071	0.049957	20.000000	nontarget	3.000000	na
23.201028	0.049665	20.000000	nontarget	4.000000	na
23.250692	0.050111	20.000000	nontarget	5.000000	na
23.300804	0.049807	20.000000	nontarget	6.000000	na
23.350611	0.050000	20.000000	nontarget	7.000000	na
23.400611	0.050183	20.000000	nontarget	8.000000	na
23.450794	0.050073	20.000000	nontarget	9.000000	na
23.500867	0.049926	20.000000	nontarget	10.000000	na
23.550793	0.050236	20.000000	nontarget	11.000000	na
23.601029	0.050111	20.000000	nontarget	12.000000	na
23.651140	0.049668	20.000000	nontarget	13.000000	na
23.700808	0.049385	20.000000	nontarget	14.000000	na
23.750193	0.050739	20.000000	nontarget	15.000000	na
23.800931	0.050154	20.000000	nontarget	16.000000	23.824849
23.851086	0.049796	21.000000	nontarget	1.000000	23.857755
23.900881	0.049397	21.000000	nontarget	2.000000	na
23.950278	0.050296	21.000000	nontarget	3.000000	na
24.000574	0.050228	21.000000	nontarget	4.000000	na
24.050802	0.049677	21.000000	nontarget	5.000000	na
24.100479	0.050471	21.000000	nontarget	6.000000	na
24.150950	0.050065	21.000000	nontarget	7.000000	na
24.201014	0.049708	21.000000	nontarget	8.000000	na
24.250723	0.049961	21.000000	nontarget	9.000000	na
24.300684	0.050128	21.000000	nontarget	10.000000	na
24.350812	0.050046	21.000000	nontarget	11.000000	na
24.400857	0.049836	21.000000	nontarget	12.000000	na
24.450693	0.049944	21.000000	nontarget	13.000000	na
24.500637	0.049556	21.000000	nontarget	14.000000	na
24.550193	0.049902	21.000000	nontarget	15.000000	na
24.600095	0.051036	21.000000	nontarget	16.000000	na
24.651130	0.049635	22.000000	nontarget	1.000000	na
24.700765	0.050257	22.000000	nontarget	2.000000	na
24.751022	0.049674	22.000000	nontarget	3.000000	na
24.800696	0.049964	22.000000	nontarget	4.000000	na
24.850660	0.049988	22.000000	nontarget	5.000000	na
24.900648	0.050354	22.000000	nontarget	6.000000	24.912390
24.951002	0.049579	22.000000	nontarget	7.000000	na
25.000581	0.050218	22.000000	nontarget	8.000000	na
25.050798	0.050235	22.000000	nontarget	9.000000	na
25.101034	0.049637	22.000000	nontarget	10.000000	na
25.150670	0.050115	22.000000	nontarget	11.000000	na
25.200786	0.049507	22.000000	nontarget	12.000000	na
25.250292	0.050518	22.000000	nontarget	13.000000	na
25.300810	0.050032	22.000000	nontarget	14.000000	na
25.350842	0.049339	22.000000	nontarget	15.000000	na
25.400181	0.050174	22.000000	nontarget	16.000000	na
25.450355	0.050273	23.000000	nontarget	1.000000	na
25.500628	0.050149	23.000000	nontarget	2.000000	na
25.550777	0.050015	23.000000	nontarget	3.000000	na
25.600792	0.050026	23.000000	nontarget	4.000000	na
25.650819	0.049735	23.000000	nontarget	5.000000	25.657418
25.700554	0.050359	23.000000	nontarget	6.000000	na
25.750912	0.049151	23.000000	nontarget	7.000000	na
25.800064	0.051063	23.000000	nontarget	8.000000	na
25.851127	0.049431	23.000000	nontarget	9.000000	na
25.900558	0.050167	23.000000	nontarget	10.000000	na
25.950725	0.049888	23.000000	nontarget	11.000000	na
26.000614	0.050057	23.000000	nontarget	12.000000	na
26.050670	0.050380	23.000000	nontarget	13.000000	na
26.101050	0.049515	23.000000	nontarget	14.000000	na
26.150565	0.050250	23.000000	nontarget	15.000000	na
26.200815	0.049999	23.000000	nontarget	16.000000	na
26.250814	0.049861	24.000000	nontarget	1.000000	na
26.300675	0.050007	24.000000	nontarget	2.000000	na
26.350682	0.050041	24.000000	nontarget	3.000000	na
26.400723	0.049432	24.000000	nontarget	4.000000	na
26.450155	0.050459	24.000000	nontarget	5.000000	26.456501
26.500613	0.050204	24.000000	nontarget	6.000000	na
26.550817	0.049409	24.000000	nontarget	7.000000	na
26.600227	0.050453	24.000000	nontarget	8.000000	na
26.650680	0.050039	24.000000	nontarget	9.000000	na
26.700719	0.050232	24.000000	nontarget	10.000000	na
26.750950	0.049918	24.000000	nontarget	11.000000	na
26.800868	0.050220	24.000000	nontarget	12.000000	na
26.851088	0.049625	24.000000	nontarget	13.000000	na
26.900713	0.050046	24.000000	nontarget	14.000000	na
26.950759	0.049858	24.000000	nontarget	15.000000	na
27.000617	0.050069	24.000000	nontarget	16.000000	na
27.050686	0.050108	25.000000	nontarget	1.000000	na
27.100794	0.049871	25.000000	nontarget	2.000000	na
27.150665	0.038760	25.000000	nontarget	3.000000	27.166084
27.189425	0.044307	25.000000	nontarget	4.000000	na
27.233732	0.038749	25.000000	nontarget	5.000000	na
27.272481	0.045244	25.000000	nontarget	6.000000	na
27.317725	0.049800	25.000000	nontarget	7.000000	na
27.367525	0.049690	25.000000	nontarget	8.000000	na
27.417215	0.050099	25.000000	nontarget	9.000000	na
27.467313	0.050211	25.000000	nontarget	10.000000	na
27.517525	0.049871	25.000000	nontarget	11.000000	na
27.567396	0.050159	25.000000	nontarget	12.000000	na
27.617555	0.049728	25.000000	nontarget	13.000000	na
27.667282	0.050412	25.000000	nontarget	14.000000	na
27.717695	0.049801	25.000000	nontarget	15.000000	na
27.767495	0.050055	25.000000	nontarget	16.000000	na
27.817550	0.049635	26.000000	target	1.000000	na
27.867186	0.050502	26.000000	target	2.000000	na
27.917688	0.049730	26.000000	target	3.000000	na
27.967418	0.050225	26.000000	target	4.000000	na
28.017643	0.049879	26.000000	target	5.000000	na
28.067523	0.050090	26.000000	target	6.000000	na
28.117613	0.049197	26.000000	target	7.000000	na
28.166810	0.050782	26.000000	target	8.000000	na
28.217592	0.050048	26.000000	target	9.000000	na
28.267640	0.049863	26.000000	target	10.000000	na
28.317504	0.050212	26.000000	target	11.000000	na
28.367715	0.049867	26.000000	target	12.000000	na
28.417583	0.049999	26.000000	target	13.000000	na
28.467581	0.049929	26.000000	target	14.000000	28.495062
28.517510	0.049555	26.000000	target	15.000000	na
28.567066	0.050192	26.000000	target	16.000000	na
28.617258	0.050061	27.000000	nontarget	1.000000	28.623887
28.667320	0.050180	27.000000	nontarget	2.000000	na
28.717500	0.050004	27.000000	nontarget	3.000000	na
28.767504	0.050252	27.000000	nontarget	4.000000	na
28.817755	0.049492	27.000000	nontarget	5.000000	na
28.867247	0.049740	27.000000	nontarget	6.000000	na
28.916987	0.050038	27.000000	nontarget	7.000000	na
28.967025	0.050582	27.000000	nontarget	8.000000	na
29.017606	0.049642	27.000000	nontarget	9.000000	na
29.067248	0.050002	27.000000	nontarget	10.000000	na
29.117250	0.050168	27.000000	nontarget	11.000000	na
29.167418	0.050101	27.000000	nontarget	12.000000	na
29.217519	0.050039	27.000000	nontarget	13.000000	na
29.267558	0.049960	27.000000	nontarget	14.000000	na
29.317518	0.050173	27.000000	nontarget	15.000000	na
29.367691	0.050020	27.000000	nontarget	16.000000	na
29.417711	0.049157	28.000000	nontarget	1.000000	29.441715
29.466869	0.050651	28.000000	nontarget	2.000000	na
29.517519	0.049991	28.000000	nontarget	3.000000	na
29.567511	0.050165	28.000000	nontarget	4.000000	na
29.617676	0.049355	28.000000	nontarget	5.000000	na
29.667031	0.050103	28.000000	nontarget	6.000000	na
29.717134	0.049526	28.000000	nontarget	7.000000	na
29.766660	0.050745	28.000000	nontarget	8.000000	na
29.817406	0.049757	28.000000	nontarget	9.000000	na
29.867162	0.050400	28.000000	nontarget	10.000000	na
29.917562	0.049709	28.000000	nontarget	11.000000	na
29.967271	0.050392	28.000000	nontarget	12.000000	na
30.017663	0.049199	28.000000	nontarget	13.000000	na
30.066862	0.050634	28.000000	nontarget	14.000000	na
30.117497	0.050103	28.000000	nontarget	15.000000	na
30.167600	0.049853	28.000000	nontarget	16.000000	na
30.217453	0.050057	29.000000	nontarget	1.000000	na
30.267510	0.049571	29.000000	nontarget	2.000000	na
30.317080	0.049603	29.000000	nontarget	3.000000	30.323727
30.366683	0.051013	29.000000	nontarget	4.000000	na
30.417696	0.049551	29.000000	nontarget	5.000000	na
30.467247	0.050241	29.000000	nontarget	6.000000	na
30.517488	0.050234	29.000000	nontarget	7.000000	na
30.567722	0.049913	29.000000	nontarget	8.000000	na
30.617635	0.049783	29.000000	nontarget	9.000000	na
30.667418	0.050260	29.000000	nontarget	10.000000	na
30.717678	0.049886	29.000000	nontarget	11.000000	na
30.767563	0.049673	29.000000	nontarget	12.000000	na
30.817236	0.050269	29.000000	nontarget	13.000000	na
30.867505	0.050011	29.000000	nontarget	14.000000	na
30.917515	0.049895	29.000000	nontarget	15.000000	na
30.967410	0.050211	29.000000	nontarget	16.000000	na
31.017621	0.049912	30.000000	nontarget	1.000000	na
31.067533	0.050076	30.000000	nontarget	2.000000	31.074154
31.117609	0.049933	30.000000	nontarget	3.000000	na
31.167543	0.049962	30.000000	nontarget	4.000000	na
31.217505	0.050121	30.000000	nontarget	5.000000	na
31.267626	0.049889	30.000000	nontarget	6.000000	na
31.317515	0.049996	30.000000	nontarget	7.000000	na
31.367512	0.049654	30.000000	nontarget	8.000000	na
31.417166	0.050379	30.000000	nontarget	9.000000	na
31.467544	0.049649	30.000000	nontarget	10.000000	na
31.517193	0.050317	30.000000	nontarget	11.000000	na
31.567510	0.050068	30.000000	nontarget	12.000000	na
31.617577	0.049906	30.000000	nontarget	13.000000	na
31.667483	0.050032	30.000000	nontarget	14.000000	na
31.717515	0.049753	30.000000	nontarget	15.000000	na
31.767269	0.049990	30.000000	nontarget	16.000000	na
31.817259	0.049880	31.000000	nontarget	1.000000	na
31.867138	0.050513	31.000000	nontarget	2.000000	na
31.917651	0.049436	31.000000	nontarget	3.000000	31.924239
31.967088	0.050462	31.000000	nontarget	4.000000	na
32.017550	0.050024	31.000000	nontarget	5.000000	na
32.067574	0.049995	31.000000	nontarget	6.000000	na
32.117569	0.049945	31.000000	nontarget	7.000000	na
32.167514	0.049740	31.000000	nontarget	8.000000	na
32.217254	0.049960	31.000000	nontarget	9.000000	na
32.267214	0.049957	31.000000	nontarget	10.000000	na
32.317171	0.050435	31.000000	nontarget	11.000000	na
32.367606	0.049617	31.000000	nontarget	12.000000	na
32.417223	0.049991	31.000000	nontarget	13.000000	na
32.467213	0.049938	31.000000	nontarget	14.000000	na
32.517151	0.050353	31.000000	nontarget	15.000000	na
32.567504	0.049992	31.000000	nontarget	16.000000	na
32.617496	0.050150	32.000000	nontarget	1.000000	na
32.667646	0.049585	32.000000	nontarget	2.000000	na
32.717231	0.050286	32.000000	nontarget	3.000000	na
32.767517	0.049935	32.000000	nontarget	4.000000	na
32.817453	0.049748	32.000000	nontarget	5.000000	na
32.867201	0.050295	32.000000	nontarget	6.000000	na
32.917496	0.049627	32.000000	nontarget	7.000000	na
32.967123	0.050439	32.000000	nontarget	8.000000	32.976076
33.017562	0.049688	32.000000	nontarget	9.000000	na
33.067250	0.049846	32.000000	nontarget	10.000000	na
33.117096	0.050421	32.000000	nontarget	11.000000	na
33.167518	0.050293	32.000000	nontarget	12.000000	na
33.217811	0.049861	32.000000	nontarget	13.000000	na
33.267672	0.050121	32.000000	nontarget	14.000000	na
33.317793	0.049861	32.000000	nontarget	15.000000	na
33.367654	0.049870	32.000000	nontarget	16.000000	na
33.417524	0.050245	33.000000	nontarget	1.000000	na
33.467769	0.049374	33.000000	nontarget	2.000000	na
33.517143	0.049950	33.000000	nontarget	3.000000	na
33.567093	0.050146	33.000000	nontarget	4.000000	na
33.617239	0.049997	33.000000	nontarget	5.000000	na
33.667235	0.049951	33.000000	nontarget	6.000000	na
33.717187	0.050338	33.000000	nontarget	7.000000	na
33.767525	0.050018	33.000000	nontarget	8.000000	na
33.817543	0.050265	33.000000	nontarget	9.000000	na
33.867808	0.049729	33.000000	nontarget	10.000000	na
33.917537	0.049966	33.000000	nontarget	11.000000	na
33.967503	0.050047	33.000000	nontarget	12.000000	33.994880
34.017549	0.049728	33.000000	nontarget	13.000000	na
34.067277	0.050232	33.000000	nontarget	14.000000	na
34.117509	0.049659	33.000000	nontarget	15.000000	na
34.167167	0.050182	33.000000	nontarget	16.000000	na
34.217349	0.049830	34.000000	nontarget	1.000000	na
34.267180	0.050170	34.000000	nontarget	2.000000	na
34.317349	0.049396	34.000000	nontarget	3.000000	na
34.366745	0.050778	34.000000	nontarget	4.000000	na
34.417524	0.049647	34.000000	nontarget	5.000000	na
34.467170	0.050331	34.000000	nontarget	6.000000	na
34.517502	0.050233	34.000000	nontarget	7.000000	na
34.567734	0.049886	34.000000	nontarget	8.000000	na
34.617620	0.049990	34.000000	nontarget	9.000000	na
34.667610	0.049909	34.000000	nontarget	10.000000	na
34.717520	0.050227	34.000000	nontarget	11.000000	na
34.767747	0.049899	34.000000	nontarget	12.000000	na
34.817646	0.050069	34.000000	nontarget	13.000000	na
34.867715	0.049696	34.000000	nontarget	14.000000	34.874461
34.917411	0.049671	34.000000	nontarget	15.000000	na
34.967082	0.050138	34.000000	nontarget	16.000000	na
35.017221	0.050426	35.000000	nontarget	1.000000	na
35.067647	0.049921	35.000000	nontarget	2.000000	na
35.117567	0.049849	35.000000	nontarget	3.000000	na
35.167416	0.050311	35.000000	nontarget	4.000000	na
35.217727	0.049796	35.000000	nontarget	5.000000	na
35.267523	0.049645	35.000000	nontarget	6.000000	na
35.317168	0.050299	35.000000	nontarget	7.000000	na
35.367467	0.050042	35.000000	nontarget	8.000000	na
35.417508	0.049696	35.000000	nontarget	9.000000	na
35.467204	0.049984	35.000000	nontarget	10.000000	na
35.517187	0.050342	35.000000	nontarget	11.000000	na
35.567530	0.049871	35.000000	nontarget	12.000000	na
35.617401	0.050174	35.000000	nontarget	13.000000	na
35.667575	0.049802	35.000000	nontarget	14.000000	na
35.717377	0.049839	35.000000	nontarget	15.000000	na
35.767216	0.049991	35.000000	nontarget	16.000000	na
35.817206	0.049923	36.000000	nontarget	1.000000	35.828431
35.867129	0.050007	36.000000	nontarget	2.000000	na
35.917136	0.049530	36.000000	nontarget	3.000000	na
35.966666	0.050901	36.000000	nontarget	4.000000	na
36.017567	0.050161	36.000000	nontarget	5.000000	na
36.067728	0.049704	36.000000	nontarget	6.000000	na
36.117432	0.050095	36.000000	nontarget	7.000000	na
36.167527	0.049622	36.000000	nontarget	8.000000	na
36.217149	0.050239	36.000000	nontarget	9.000000	na
36.267388	0.049854	36.000000	nontarget	10.000000	na
36.317242	0.050255	36.000000	nontarget	11.000000	na
36.367497	0.050078	36.000000	nontarget	12.000000	na
36.417575	0.049834	36.000000	nontarget	13.000000	na
36.467409	0.050397	36.000000	nontarget	14.000000	na
36.517806	0.049347	36.000000	nontarget	15.000000	na
36.567153	0.050349	36.000000	nontarget	16.000000	na
36.617502	0.049698	37.000000	nontarget	1.000000	na
36.667200	0.049946	37.000000	nontarget	2.000000	na
36.717146	0.050377	37.000000	nontarget	3.000000	na
36.767523	0.050166	37.000000	nontarget	4.000000	na
36.817689	0.049900	37.000000	nontarget	5.000000	na
36.867589	0.050220	37.000000	nontarget	6.000000	36.902537
36.917809	0.050053	37.000000	nontarget	7.000000	na
36.967862	0.049693	37.000000	nontarget	8.000000	na
37.017555	0.050012	37.000000	nontarget	9.000000	na
37.067567	0.050483	37.000000	nontarget	10.000000	na
37.118050	0.049345	37.000000	nontarget	11.000000	na
37.167395	0.050316	37.000000	nontarget	12.000000	na
37.217711	0.049956	37.000000	nontarget	13.000000	na
37.267667	0.049985	37.000000	nontarget	14.000000	na
37.317652	0.049925	37.000000	nontarget	15.000000	na
37.367577	0.049933	37.000000	nontarget	16.000000	na
37.417510	0.050003	38.000000	nontarget	1.000000	na
37.467513	0.049691	38.000000	nontarget	2.000000	na
37.517204	0.049854	38.000000	nontarget	3.000000	na
37.567058	0.050194	38.000000	nontarget	4.000000	na
37.617253	0.050017	38.000000	nontarget	5.000000	na
37.667269	0.050042	38.000000	nontarget	6.000000	na
37.717312	0.050200	38.000000	nontarget	7.000000	na
37.767512	0.049750	38.000000	nontarget	8.000000	na
37.817262	0.050277	38.000000	nontarget	9.000000	na
37.867539	0.049404	38.000000	nontarget	10.000000	na
37.916943	0.050580	38.000000	nontarget	11.000000	na
37.967524	0.049633	38.000000	nontarget	12.000000	na
38.017156	0.050227	38.000000	nontarget	13.000000	na
38.067383	0.050028	38.000000	nontarget	14.000000	na
38.117411	0.050107	38.000000	nontarget	15.000000	38.149194
38.167519	0.050058	38.000000	nontarget	16.000000	na
38.217577	0.049643	39.000000	nontarget	1.000000	38.224119
38.267220	0.050058	39.000000	nontarget	2.000000	na
38.317277	0.049974	39.000000	nontarget	3.000000	na
38.367251	0.050060	39.000000	nontarget	4.000000	na
38.417311	0.050235	39.000000	nontarget	5.000000	na
38.467546	0.049745	39.000000	nontarget	6.000000	na
38.517291	0.050280	39.000000	nontarget	7.000000	na
38.567571	0.049688	39.000000	nontarget	8.000000	na
38.617259	0.049962	39.000000	nontarget	9.000000	na
38.667221	0.049966	39.000000	nontarget	10.000000	na
38.717187	0.050144	39.000000	nontarget	11.000000	na
38.767331	0.050217	39.000000	nontarget	12.000000	na
38.817548	0.049671	39.000000	nontarget	13.000000	na
38.867219	0.050203	39.000000	nontarget	14.000000	na
38.917422	0.050099	39.000000	nontarget	15.000000	na
38.967521	0.049630	39.000000	nontarget	16.000000	na
39.017151	0.049970	40.000000	nontarget	1.000000	na
39.067121	0.050589	40.000000	nontarget	2.000000	39.073586
39.117710	0.049876	40.000000	nontarget	3.000000	na
39.167586	0.049722	40.000000	nontarget	4.000000	na
39.217308	0.049865	40.000000	nontarget	5.000000	na
39.267172	0.050370	40.000000	nontarget	6.000000	na
39.317542	0.049585	40.000000	nontarget	7.000000	na
39.367127	0.050431	40.000000	nontarget	8.000000	na
39.417559	0.049986	40.000000	nontarget	9.000000	na
39.467544	0.049841	40.000000	nontarget	10.000000	na
39.517385	0.050087	40.000000	nontarget	11.000000	na
39.567472	0.050084	40.000000	nontarget	12.000000	na
39.617556	0.050085	40.000000	nontarget	13.000000	na
39.667641	0.049294	40.000000	nontarget	14.000000	na
39.716935	0.050701	40.000000	nontarget	15.000000	na
39.767636	0.049950	40.000000	nontarget	16.000000	na
39.817586	0.048959	41.000000	nontarget	1.000000	na
39.866545	0.051022	41.000000	nontarget	2.000000	39.873151
39.917567	0.049464	41.000000	nontarget	3.000000	na
39.967031	0.050461	41.000000	nontarget	4.000000	na
40.017492	0.049923	41.000000	nontarget	5.000000	na
40.067416	0.050103	41.000000	nontarget	6.000000	na
40.117519	0.050017	41.000000	nontarget	7.000000	na
40.167536	0.050025	41.000000	nontarget	8.000000	na
40.217561	0.049814	41.000000	nontarget	9.000000	na
40.267375	0.049718	41.000000	nontarget	10.000000	na
40.317092	0.049981	41.000000	nontarget	11.000000	na
40.367073	0.050338	41.000000	nontarget	12.000000	na
40.417411	0.049879	41.000000	nontarget	13.000000	na
40.467290	0.050040	41.000000	nontarget	14.000000	na
40.517330	0.050138	41.000000	nontarget	15.000000	na
40.567468	0.050008	41.000000	nontarget	16.000000	na
40.617476	0.050050	42.000000	nontarget	1.000000	na
40.667526	0.049553	42.000000	nontarget	2.000000	na
40.717079	0.050477	42.000000	nontarget	3.000000	na
40.767556	0.049545	42.000000	nontarget	4.000000	na
40.817101	0.050437	42.000000	nontarget	5.000000	na
40.867538	0.050043	42.000000	nontarget	6.000000	40.887594
40.917581	0.049953	42.000000	nontarget	7.000000	na
40.967534	0.049969	42.000000	nontarget	8.000000	na
41.017503	0.050144	42.000000	nontarget	9.000000	na
41.067647	0.049436	42.000000	nontarget	10.000000	na
41.117082	0.050439	42.000000	nontarget	11.000000	na
41.167521	0.049378	42.000000	nontarget	12.000000	na
41.216900	0.050478	42.000000	nontarget	13.000000	na
41.267377	0.049500	42.000000	nontarget	14.000000	na
41.316877	0.050414	42.000000	nontarget	15.000000	na
41.367291	0.050273	42.000000	nontarget	16.000000	na
41.417563	0.049457	43.000000	target	1.000000	na
41.467020	0.050379	43.000000	target	2.000000	na
41.517399	0.049618	43.000000	target	3.000000	na
41.567017	0.049838	43.000000	target	4.000000	na
41.616855	0.050692	43.000000	target	5.000000	na
41.667547	0.049991	43.000000	target	6.000000	na
41.717538	0.049534	43.000000	target	7.000000	na
41.767072	0.050136	43.000000	target	8.000000	na
41.817208	0.049798	43.000000	target	9.000000	na
41.867006	0.049926	43.000000	target	10.000000	na
41.916932	0.050485	43.000000	target	11.000000	na
41.967417	0.050108	43.000000	target	12.000000	na
42.017526	0.049382	43.000000	target	13.000000	na
42.066907	0.050692	43.000000	target	14.000000	na
42.117599	0.049480	43.000000	target	15.000000	na
42.167079	0.049981	43.000000	target	16.000000	na
42.217060	0.050208	44.000000	nontarget	1.000000	na
42.267268	0.050229	44.000000	nontarget	2.000000	na
42.317497	0.050031	44.000000	nontarget	3.000000	na
42.367528	0.049010	44.000000	nontarget	4.000000	na
42.416538	0.050757	44.000000	nontarget	5.000000	42.422871
42.467295	0.050224	44.000000	nontarget	6.000000	na
42.517519	0.049976	44.000000	nontarget	7.000000	na
42.567495	0.050098	44.000000	nontarget	8.000000	na
42.617593	0.049453	44.000000	nontarget	9.000000	na
42.667045	0.050517	44.000000	nontarget	10.000000	na
42.717563	0.050161	44.000000	nontarget	11.000000	na
42.767724	0.049410	44.000000	nontarget	12.000000	na
42.817134	0.050487	44.000000	nontarget	13.000000	na
42.867620	0.050092	44.000000	nontarget	14.000000	na
42.917712	0.049818	44.000000	nontarget	15.000000	na
42.967530	0.049625	44.000000	nontarget	16.000000	na
43.017155	0.049587	45.000000	nontarget	1.000000	na
43.066742	0.050779	45.000000	nontarget	2.000000	na
43.117521	0.050020	45.000000	nontarget	3.000000	na
43.167541	0.049988	45.000000	nontarget	4.000000	na
43.217530	0.049981	45.000000	nontarget	5.000000	43.229173
43.267511	0.049843	45.000000	nontarget	6.000000	na
43.317353	0.049702	45.000000	nontarget	7.000000	na
43.367055	0.050525	45.000000	nontarget	8.000000	na
43.417580	0.049568	45.000000	nontarget	9.000000	na
43.467148	0.050382	45.000000	nontarget	10.000000	na
43.517531	0.049831	45.000000	nontarget	11.000000	na
43.567362	0.049961	45.000000	nontarget	12.000000	na
43.617323	0.049402	45.000000	nontarget	13.000000	na
43.666725	0.050761	45.000000	nontarget	14.000000	na
43.717486	0.050121	45.000000	nontarget	15.000000	na
43.767607	0.049940	45.000000	nontarget	16.000000	na
43.817547	0.049486	46.000000	nontarget	1.000000	na
43.867033	0.050533	46.000000	nontarget	2.000000	na
43.917566	0.049469	46.000000	nontarget	3.000000	na
43.967035	0.050504	46.000000	nontarget	4.000000	na
44.017539	0.050027	46.000000	nontarget	5.000000	na
44.067566	0.049952	46.000000	nontarget	6.000000	na
44.117518	0.049525	46.000000	nontarget	7.000000	44.128940
44.167043	0.050288	46.000000	nontarget	8.000000	na
44.217331	0.050267	46.000000	nontarget	9.000000	na
44.267598	0.049847	46.000000	nontarget	10.000000	na
44.317445	0.049635	46.000000	nontarget	11.000000	na
44.367080	0.049927	46.000000	nontarget	12.000000	na
44.417007	0.050459	46.000000	nontarget	13.000000	na
44.467467	0.049949	46.000000	nontarget	14.000000	na
44.517416	0.050124	46.000000	nontarget	15.000000	na
44.567540	0.049871	46.000000	nontarget	16.000000	na
44.617411	0.049808	47.000000	nontarget	1.000000	na
44.667219	0.050306	47.000000	nontarget	2.000000	na
44.717524	0.049955	47.000000	nontarget	3.000000	na
44.767479	0.050080	47.000000	nontarget	4.000000	na
44.817560	0.049505	47.000000	nontarget	5.000000	na
44.867064	0.050460	47.000000	nontarget	6.000000	na
44.917525	0.050018	47.000000	nontarget	7.000000	na
44.967543	0.049977	47.000000	nontarget	8.000000	na
45.017520	0.050030	47.000000	nontarget	9.000000	na
45.067550	0.049404	47.000000	nontarget	10.000000	45.074140
45.116954	0.050581	47.000000	nontarget	11.000000	na
45.167535	0.049289	47.000000	nontarget	12.000000	na
45.216824	0.050731	47.000000	nontarget	13.000000	na
45.267555	0.049977	47.000000	nontarget	14.000000	na
45.317532	0.049507	47.000000	nontarget	15.000000	na
45.367039	0.050508	47.000000	nontarget	16.000000	na
45.417548	0.049694	48.000000	nontarget	1.000000	na
45.467242	0.049863	48.000000	nontarget	2.000000	na
45.517105	0.049929	48.000000	nontarget	3.000000	na
45.567033	0.050518	48.000000	nontarget	4.000000	na
45.617551	0.049668	48.000000	nontarget	5.000000	na
45.667219	0.049638	48.000000	nontarget	6.000000	na
45.716857	0.050238	48.000000	nontarget	7.000000	na
45.767094	0.050153	48.000000	nontarget	8.000000	na
45.817248	0.050277	48.000000	nontarget	9.000000	na
45.867525	0.049736	48.000000	nontarget	10.000000	na
45.917261	0.050098	48.000000	nontarget	11.000000	na
45.967359	0.050182	48.000000	nontarget	12.000000	na
46.017541	0.049929	48.000000	nontarget	13.000000	46.045426
46.067470	0.050054	48.000000	nontarget	14.000000	na
46.117524	0.049144	48.000000	nontarget	15.000000	na
46.166668	0.051023	48.000000	nontarget	16.000000	na
46.217691	0.049334	49.000000	target	1.000000	na
46.267025	0.050503	49.000000	target	2.000000	na
46.317527	0.050001	49.000000	target	3.000000	na
46.367528	0.050006	49.000000	target	4.000000	na
46.417534	0.049983	49.000000	target	5.000000	na
46.467517	0.049420	49.000000	target	6.000000	na
46.516937	0.050585	49.000000	target	7.000000	na
46.567522	0.050215	49.000000	target	8.000000	na
46.617737	0.049296	49.000000	target	9.000000	na
46.667033	0.050045	49.000000	target	10.000000	na
46.717077	0.049921	49.000000	target	11.000000	na
46.766998	0.050178	49.000000	target	12.000000	na
46.817176	0.049933	49.000000	target	13.000000	na
46.867109	0.050126	49.000000	target	14.000000	na
46.917234	0.049759	49.000000	target	15.000000	na
46.966994	0.050639	49.000000	target	16.000000	46.972765
47.017633	0.050077	50.000000	nontarget	1.000000	47.024262
47.067710	0.049794	50.000000	nontarget	2.000000	na
47.117505	0.050246	50.000000	nontarget	3.000000	na
47.167750	0.049841	50.000000	nontarget	4.000000	na
47.217591	0.049950	50.000000	nontarget	5.000000	na
47.267542	0.050080	50.000000	nontarget	6.000000	na
47.317621	0.049827	50.000000	nontarget	7.000000	na
47.367448	0.050080	50.000000	nontarget	8.000000	na
47.417528	0.049997	50.000000	nontarget	9.000000	na
47.467525	0.049982	50.000000	nontarget	10.000000	na
47.517507	0.049963	50.000000	nontarget	11.000000	na
47.567470	0.050110	50.000000	nontarget	12.000000	na
47.617581	0.049733	50.000000	nontarget	13.000000	na
47.667314	0.050104	50.000000	nontarget	14.000000	na
47.717417	0.049597	50.000000	nontarget	15.000000	na
47.767014	0.049994	50.000000	nontarget	16.000000	na
47.817008	0.050082	51.000000	nontarget	1.000000	na
47.867090	0.050363	51.000000	nontarget	2.000000	na
47.917453	0.050086	51.000000	nontarget	3.000000	na
47.967539	0.050181	51.000000	nontarget	4.000000	48.003600
48.017720	0.049778	51.000000	nontarget	5.000000	na
48.067498	0.050050	51.000000	nontarget	6.000000	na
48.117548	0.049123	51.000000	nontarget	7.000000	na
48.166670	0.050920	51.000000	nontarget	8.000000	na
48.217590	0.049958	51.000000	nontarget	9.000000	na
48.267548	0.050172	51.000000	nontarget	10.000000	na
48.317720	0.049621	51.000000	nontarget	11.000000	na
48.367341	0.050152	51.000000	nontarget	12.000000	na
48.417493	0.049842	51.000000	nontarget	13.000000	na
48.467334	0.049906	51.000000	nontarget	14.000000	na
48.517241	0.050282	51.000000	nontarget	15.000000	na
48.567523	0.050039	51.000000	nontarget	16.000000	na
48.617562	0.050059	52.000000	nontarget	1.000000	na
48.667621	0.049364	52.000000	nontarget	2.000000	na
48.716985	0.049964	52.000000	nontarget	3.000000	na
48.766949	0.050505	52.000000	nontarget	4.000000	na
48.817455	0.049777	52.000000	nontarget	5.000000	na
48.867232	0.050287	52.000000	nontarget	6.000000	na
48.917519	0.049935	52.000000	nontarget	7.000000	na
48.967455	0.050208	52.000000	nontarget	8.000000	48.973205
49.017663	0.049870	52.000000	nontarget	9.000000	na
49.067533	0.049930	52.000000	nontarget	10.000000	na
49.117463	0.050095	52.000000	nontarget	11.000000	na
49.167558	0.050084	52.000000	nontarget	12.000000	na
49.217642	0.049532	52.000000	nontarget	13.000000	na
49.267173	0.049916	52.000000	nontarget	14.000000	na
49.317089	0.050099	52.000000	nontarget	15.000000	na
49.367188	0.050101	52.000000	nontarget	16.000000	na
49.417289	0.050218	53.000000	nontarget	1.000000	na
49.467507	0.050048	53.000000	nontarget	2.000000	na
49.517554	0.050003	53.000000	nontarget	3.000000	na
49.567558	0.049940	53.000000	nontarget	4.000000	na
49.617498	0.049874	53.000000	nontarget	5.000000	na
49.667372	0.050156	53.000000	nontarget	6.000000	na
49.717528	0.050018	53.000000	nontarget	7.000000	na
49.767546	0.050058	53.000000	nontarget	8.000000	na
49.817604	0.049557	53.000000	nontarget	9.000000	na
49.867161	0.050656	53.000000	nontarget	10.000000	na
49.917817	0.049826	53.000000	nontarget	11.000000	na
49.967643	0.049998	53.000000	nontarget	12.000000	na
50.017641	0.049890	53.000000	nontarget	13.000000	na
50.067531	0.049998	53.000000	nontarget	14.000000	50.094836
50.117529	0.049456	53.000000	nontarget	15.000000	na
50.166985	0.050202	53.000000	nontarget	16.000000	na
50.217186	0.050348	54.000000	nontarget	1.000000	na
50.267534	0.049989	54.000000	nontarget	2.000000	na
50.317523	0.050008	54.000000	nontarget	3.000000	na
50.367530	0.049519	54.000000	nontarget	4.000000	na
50.417049	0.050506	54.000000	nontarget	5.000000	na
50.467555	0.049376	54.000000	nontarget	6.000000	na
50.516932	0.050602	54.000000	nontarget	7.000000	na
50.567534	0.050111	54.000000	nontarget	8.000000	na
50.617645	0.049761	54.000000	nontarget	9.000000	na
50.667407	0.050091	54.000000	nontarget	10.000000	na
50.717497	0.049489	54.000000	nontarget	11.000000	na
50.766986	0.050679	54.000000	nontarget	12.000000	na
50.817665	0.049539	54.000000	nontarget	13.000000	na
50.867205	0.050134	54.000000	nontarget	14.000000	50.890100
50.917339	0.050201	54.000000	nontarget	15.000000	na
50.967540	0.049618	54.000000	nontarget	16.000000	na
51.017158	0.050555	55.000000	nontarget	1.000000	51.023788
51.067713	0.049912	55.000000	nontarget	2.000000	na
51.117625	0.049199	55.000000	nontarget	3.000000	na
51.166824	0.050673	55.000000	nontarget	4.000000	na
51.217497	0.050015	55.000000	nontarget	5.000000	na
51.267512	0.050373	55.000000	nontarget	6.000000	na
51.317885	0.049700	55.000000	nontarget	7.000000	na
51.367585	0.049445	55.000000	nontarget	8.000000	na
51.417030	0.050542	55.000000	nontarget	9.000000	na
51.467572	0.049627	55.000000	nontarget	10.000000	na
51.517199	0.050074	55.000000	nontarget	11.000000	na
51.567273	0.050128	55.000000	nontarget	12.000000	na
51.617402	0.050142	55.000000	nontarget	13.000000	na
51.667544	0.049846	55.000000	nontarget	14.000000	na
51.717390	0.049604	55.000000	nontarget	15.000000	na
51.766994	0.050533	55.000000	nontarget	16.000000	na
51.817528	0.050212	56.000000	nontarget	1.000000	51.829086
51.867739	0.049523	56.000000	nontarget	2.000000	na
51.917263	0.050244	56.000000	nontarget	3.000000	na
51.967507	0.050089	56.000000	nontarget	4.000000	na
52.017596	0.049899	56.000000	nontarget	5.000000	na
52.067495	0.049459	56.000000	nontarget	6.000000	na
52.116954	0.050653	56.000000	nontarget	7.000000	na
52.167607	0.049648	56.000000	nontarget	8.000000	na
52.217255	0.049997	56.000000	nontarget	9.000000	na
52.267252	0.049680	56.000000	nontarget	10.000000	na
52.316932	0.050613	56.000000	nontarget	11.000000	na
52.367545	0.050307	56.000000	nontarget	12.000000	na
52.417852	0.048904	56.000000	nontarget	13.000000	na
52.466756	0.050764	56.000000	nontarget	14.000000	na
52.517520	0.049423	56.000000	nontarget	15.000000	na
52.566943	0.049853	56.000000	nontarget	16.000000	na
52.616796	0.050049	57.000000	nontarget	1.000000	na
52.666845	0.050691	57.000000	nontarget	2.000000	52.677725
52.717536	0.049582	57.000000	nontarget	3.000000	na
52.767118	0.049937	57.000000	nontarget	4.000000	na
52.817055	0.050583	57.000000	nontarget	5.000000	na
52.867638	0.049895	57.000000	nontarget	6.000000	na
52.917533	0.050086	57.000000	nontarget	7.000000	na
52.967619	0.049929	57.000000	nontarget	8.000000	na
53.017548	0.050133	57.000000	nontarget	9.000000	na
53.067681	0.049730	57.000000	nontarget	10.000000	na
53.117412	0.050109	57.000000	nontarget	11.000000	na
53.167521	0.050021	57.000000	nontarget	12.000000	na
53.217542	0.049792	57.000000	nontarget	13.000000	na
53.267334	0.049615	57.000000	nontarget	14.000000	na
53.316949	0.049962	57.000000	nontarget	15.000000	na
53.366911	0.050616	57.000000	nontarget	16.000000	na
53.417526	0.049949	58.000000	nontarget	1.000000	na
53.467475	0.049520	58.000000	nontarget	2.000000	na
53.516995	0.049928	58.000000	nontarget	3.000000	na
53.566923	0.050198	58.000000	nontarget	4.000000	na
53.617121	0.050341	58.000000	nontarget	5.000000	53.623804
53.667462	0.050016	58.000000	nontarget	6.000000	na
53.717478	0.049608	58.000000	nontarget	7.000000	na
53.767086	0.050453	58.000000	nontarget	8.000000	na
53.817538	0.050175	58.000000	nontarget	9.000000	na
53.867713	0.049773	58.000000	nontarget	10.000000	na
53.917486	0.050041	58.000000	nontarget	11.000000	na
53.967527	0.049777	58.000000	nontarget	12.000000	na
54.017304	0.049830	58.000000	nontarget	13.000000	na
54.067134	0.050172	58.000000	nontarget	14.000000	na
54.117306	0.049581	58.000000	nontarget	15.000000	na
54.166887	0.050793	58.000000	nontarget	16.000000	na
54.217680	0.049844	59.000000	nontarget	1.000000	na
54.267525	0.050132	59.000000	nontarget	2.000000	na
54.317656	0.049250	59.000000	nontarget	3.000000	na
54.366906	0.050630	59.000000	nontarget	4.000000	na
54.417536	0.050008	59.000000	nontarget	5.000000	na
54.467544	0.049889	59.000000	nontarget	6.000000	na
54.517433	0.049844	59.000000	nontarget	7.000000	54.536723
54.567277	0.050251	59.000000	nontarget	8.000000	na
54.617529	0.050005	59.000000	nontarget	9.000000	na
54.667534	0.049254	59.000000	nontarget	10.000000	na
54.716788	0.050011	59.000000	nontarget	11.000000	na
54.766799	0.050692	59.000000	nontarget	12.000000	na
54.817491	0.049939	59.000000	nontarget	13.000000	na
54.867430	0.050207	59.000000	nontarget	14.000000	na
54.917638	0.049993	59.000000	nontarget	15.000000	na
54.967631	0.049896	59.000000	nontarget	16.000000	na
55.017527	0.050008	60.000000	nontarget	1.000000	na
55.067535	0.049574	60.000000	nontarget	2.000000	na
55.117109	0.050353	60.000000	nontarget	3.000000	na
55.167462	0.050119	60.000000	nontarget	4.000000	na
55.217581	0.050016	60.000000	nontarget	5.000000	na
55.267597	0.049300	60.000000	nontarget	6.000000	na
55.316897	0.049962	60.000000	nontarget	7.000000	na
55.366859	0.038841	60.000000	nontarget	8.000000	55.373518
55.405700	0.045253	60.000000	nontarget	9.000000	na
55.450953	0.049262	60.000000	nontarget	10.000000	na
55.500216	0.050603	60.000000	nontarget	11.000000	na
55.550819	0.050229	60.000000	nontarget	12.000000	na
55.601048	0.049335	60.000000	nontarget	13.000000	na
55.650383	0.050443	60.000000	nontarget	14.000000	na
55.700825	0.049306	60.000000	nontarget	15.000000	na
55.750131	0.050192	60.000000	nontarget	16.000000	na
55.800323	0.050499	61.000000	nontarget	1.000000	na
55.850823	0.050174	61.000000	nontarget	2.000000	na
55.900997	0.049832	61.000000	nontarget	3.000000	na
55.950828	0.049973	61.000000	nontarget	4.000000	na
56.000801	0.050086	61.000000	nontarget	5.000000	na
56.050887	0.049632	61.000000	nontarget	6.000000	na
56.100520	0.050329	61.000000	nontarget	7.000000	na
56.150849	0.049869	61.000000	nontarget	8.000000	na
56.200717	0.050109	61.000000	nontarget	9.000000	56.207318
56.250826	0.049895	61.000000	nontarget	10.000000	na
56.300721	0.050015	61.000000	nontarget	11.000000	na
56.350735	0.049492	61.000000	nontarget	12.000000	na
56.400228	0.050857	61.000000	nontarget	13.000000	na
56.451084	0.049729	61.000000	nontarget	14.000000	na
56.500813	0.049380	61.000000	nontarget	15.000000	na
56.550193	0.049982	61.000000	nontarget	16.000000	na
56.600175	0.049608	62.000000	nontarget	1.000000	na
56.649783	0.051058	62.000000	nontarget	2.000000	na
56.700841	0.049511	62.000000	nontarget	3.000000	na
56.750353	0.049567	62.000000	nontarget	4.000000	na
56.799919	0.050846	62.000000	nontarget	5.000000	na
56.850766	0.050067	62.000000	nontarget	6.000000	na
56.900833	0.050121	62.000000	nontarget	7.000000	na
56.950954	0.049549	62.000000	nontarget	8.000000	na
57.000503	0.050088	62.000000	nontarget	9.000000	na
57.050590	0.049618	62.000000	nontarget	10.000000	na
57.100208	0.050645	62.000000	nontarget	11.000000	na
57.150853	0.049412	62.000000	nontarget	12.000000	na
57.200265	0.050641	62.000000	nontarget	13.000000	57.206602
57.250905	0.050136	62.000000	nontarget	14.000000	na
57.301041	0.049814	62.000000	nontarget	15.000000	na
57.350856	0.049596	62.000000	nontarget	16.000000	na
57.400452	0.050070	63.000000	nontarget	1.000000	na
57.450522	0.050410	63.000000	nontarget	2.000000	na
57.500932	0.049844	63.000000	nontarget	3.000000	na
57.550776	0.050053	63.000000	nontarget	4.000000	na
57.600829	0.050206	63.000000	nontarget	5.000000	na
57.651034	0.049794	63.000000	nontarget	6.000000	na
57.700828	0.050222	63.000000	nontarget	7.000000	na
57.751050	0.049039	63.000000	nontarget	8.000000	na
57.800090	0.050734	63.000000	nontarget	9.000000	na
57.850824	0.050040	63.000000	nontarget	10.000000	na
57.900864	0.050010	63.000000	nontarget	11.000000	na
57.950874	0.049983	63.000000	nontarget	12.000000	na
58.000857	0.049950	63.000000	nontarget	13.000000	na
58.050808	0.049410	63.000000	nontarget	14.000000	na
58.100218	0.050493	63.000000	nontarget	15.000000	na
58.150711	0.050120	63.000000	nontarget	16.000000	58.157365
58.200831	0.050181	64.000000	nontarget	1.000000	58.207393
58.251012	0.049849	64.000000	nontarget	2.000000	na
58.300861	0.049959	64.000000	nontarget	3.000000	na
58.350820	0.049645	64.000000	nontarget	4.000000	na
58.400465	0.049933	64.000000	nontarget	5.000000	na
58.450398	0.050412	64.000000	nontarget	6.000000	na
58.500810	0.050022	64.000000	nontarget	7.000000	na
58.550832	0.049989	64.000000	nontarget	8.000000	na
58.600821	0.050310	64.000000	nontarget	9.000000	na
58.651131	0.048897	64.000000	nontarget	10.000000	na
58.700028	0.050560	64.000000	nontarget	11.000000	na
58.750588	0.050624	64.000000	nontarget	12.000000	na
58.801212	0.049624	64.000000	nontarget	13.000000	na
58.850836	0.050013	64.000000	nontarget	14.000000	na
58.900849	0.049803	64.000000	nontarget	15.000000	na
58.950653	0.050234	64.000000	nontarget	16.000000	na
59.000887	0.049818	65.000000	nontarget	1.000000	na
59.050705	0.049784	65.000000	nontarget	2.000000	59.057337
59.100489	0.050352	65.000000	nontarget	3.000000	na
59.150840	0.050057	65.000000	nontarget	4.000000	na
59.200897	0.049790	65.000000	nontarget	5.000000	na
59.250687	0.050179	65.000000	nontarget	6.000000	na
59.300866	0.050299	65.000000	nontarget	7.000000	na
59.351165	0.049765	65.000000	nontarget	8.000000	na
59.400931	0.049905	65.000000	nontarget	9.000000	na
59.450835	0.049757	65.000000	nontarget	10.000000	na
59.500592	0.050241	65.000000	nontarget	11.000000	na
59.550833	0.049651	65.000000	nontarget	12.000000	na
59.600484	0.049950	65.000000	nontarget	13.000000	na
59.650433	0.050308	65.000000	nontarget	14.000000	na
59.700741	0.049626	65.000000	nontarget	15.000000	na
59.750367	0.050347	65.000000	nontarget	16.000000	na
59.800714	0.049769	66.000000	nontarget	1.000000	na
59.850484	0.049658	66.000000	nontarget	2.000000	59.861736
59.900142	0.050078	66.000000	nontarget	3.000000	na
59.950220	0.050466	66.000000	nontarget	4.000000	na
60.000686	0.050156	66.000000	nontarget	5.000000	na
60.050842	0.049709	66.000000	nontarget	6.000000	na
60.100551	0.050348	66.000000	nontarget	7.000000	na
60.150899	0.050026	66.000000	nontarget	8.000000	na
60.200925	0.050240	66.000000	nontarget	9.000000	na
60.251165	0.049604	66.000000	nontarget	10.000000	na
60.300769	0.050281	66.000000	nontarget	11.000000	na
60.351050	0.049795	66.000000	nontarget	12.000000	na
60.400845	0.049998	66.000000	nontarget	13.000000	na
60.450843	0.050185	66.000000	nontarget	14.000000	na
60.501028	0.049298	66.000000	nontarget	15.000000	na
60.550326	0.050341	66.000000	nontarget	16.000000	na
60.600666	0.050170	67.000000	target	1.000000	na
60.650837	0.049921	67.000000	target	2.000000	na
60.700757	0.050281	67.000000	target	3.000000	na
60.751038	0.049216	67.000000	target	4.000000	na
60.800254	0.050789	67.000000	target	5.000000	na
60.851043	0.049793	67.000000	target	6.000000	na
60.900836	0.049869	67.000000	target	7.000000	na
60.950705	0.050065	67.000000	target	8.000000	na
61.000770	0.049997	67.000000	target	9.000000	na
61.050768	0.049880	67.000000	target	10.000000	na
61.100648	0.050248	67.000000	target	11.000000	na
61.150895	0.049501	67.000000	target	12.000000	na
61.200396	0.050163	67.000000	target	13.000000	na
61.250559	0.050162	67.000000	target	14.000000	na
61.300721	0.050159	67.000000	target	15.000000	na
61.350880	0.050182	67.000000	target	16.000000	61.383040
61.401062	0.049917	68.000000	nontarget	1.000000	61.407752
61.450979	0.050078	68.000000	nontarget	2.000000	na
61.501057	0.049228	68.000000	nontarget	3.000000	na
61.550285	0.050853	68.000000	nontarget	4.000000	na
61.601138	0.049648	68.000000	nontarget	5.000000	na
61.650786	0.050200	68.000000	nontarget	6.000000	na
61.700986	0.049853	68.000000	nontarget	7.000000	na
61.750839	0.050055	68.000000	nontarget	8.000000	na
61.800894	0.050282	68.000000	nontarget	9.000000	na
61.851176	0.049275	68.000000	nontarget	10.000000	na
61.900451	0.050359	68.000000	nontarget	11.000000	na
61.950810	0.049791	68.000000	nontarget	12.000000	na
62.000601	0.050135	68.000000	nontarget	13.000000	na
62.050735	0.049972	68.000000	nontarget	14.000000	na
62.100707	0.049640	68.000000	nontarget	15.000000	na
62.150348	0.050753	68.000000	nontarget	16.000000	62.157010
62.201101	0.049656	69.000000	nontarget	1.000000	62.207684
62.250757	0.050168	69.000000	nontarget	2.000000	na
62.300925	0.049407	69.000000	nontarget	3.000000	na
62.350332	0.050569	69.000000	nontarget	4.000000	na
62.400900	0.050302	69.000000	nontarget	5.000000	na
62.451203	0.048961	69.000000	nontarget	6.000000	na
62.500164	0.050791	69.000000	nontarget	7.000000	na
62.550955	0.049295	69.000000	nontarget	8.000000	na
62.600250	0.050473	69.000000	nontarget	9.000000	na
62.650723	0.049636	69.000000	nontarget	10.000000	na
62.700360	0.050228	69.000000	nontarget	11.000000	na
62.750588	0.049593	69.000000	nontarget	12.000000	na
62.800181	0.050467	69.000000	nontarget	13.000000	na
62.850647	0.049451	69.000000	nontarget	14.000000	na
62.900099	0.049927	69.000000	nontarget	15.000000	na
62.950025	0.050556	69.000000	nontarget	16.000000	62.973396
63.000582	0.049218	70.000000	nontarget	1.000000	63.007186
63.049800	0.050705	70.000000	nontarget	2.000000	na
63.100505	0.049610	70.000000	nontarget	3.000000	na
63.150115	0.050721	70.000000	nontarget	4.000000	na
63.200835	0.049500	70.000000	nontarget	5.000000	na
63.250336	0.050600	70.000000	nontarget	6.000000	na
63.300936	0.049545	70.000000	nontarget	7.000000	na
63.350481	0.050345	70.000000	nontarget	8.000000	na
63.400826	0.050014	70.000000	nontarget	9.000000	na
63.450840	0.049305	70.000000	nontarget	10.000000	na
63.500145	0.050703	70.000000	nontarget	11.000000	na
63.550848	0.049989	70.000000	nontarget	12.000000	na
63.600837	0.049453	70.000000	nontarget	13.000000	na
63.650291	0.050534	70.000000	nontarget	14.000000	na
63.700825	0.049323	70.000000	nontarget	15.000000	na
63.750147	0.050698	70.000000	nontarget	16.000000	na
63.800845	0.049998	71.000000	nontarget	1.000000	63.812059
63.850843	0.049972	71.000000	nontarget	2.000000	na
63.900815	0.049277	71.000000	nontarget	3.000000	na
63.950092	0.050530	71.000000	nontarget	4.000000	na
64.000622	0.050449	71.000000	nontarget	5.000000	na
64.051071	0.049938	71.000000	nontarget	6.000000	na
64.101009	0.049806	71.000000	nontarget	7.000000	na
64.150814	0.050023	71.000000	nontarget	8.000000	na
64.200837	0.049999	71.000000	nontarget	9.000000	na
64.250836	0.049765	71.000000	nontarget	10.000000	na
64.300602	0.049453	71.000000	nontarget	11.000000	na
64.350055	0.050077	71.000000	nontarget	12.000000	na
64.400132	0.050584	71.000000	nontarget	13.000000	na
64.450717	0.050140	71.000000	nontarget	14.000000	na
64.500856	0.050102	71.000000	nontarget	15.000000	na
64.550959	0.049887	71.000000	nontarget	16.000000	na
64.600846	0.050051	72.000000	nontarget	1.000000	na
64.650896	0.049694	72.000000	nontarget	2.000000	na
64.700591	0.050240	72.000000	nontarget	3.000000	na
64.750831	0.050020	72.000000	nontarget	4.000000	na
64.800851	0.049985	72.000000	nontarget	5.000000	64.821416
64.850835	0.049043	72.000000	nontarget	6.000000	na
64.899879	0.050930	72.000000	nontarget	7.000000	na
64.950809	0.050049	72.000000	nontarget	8.000000	na
65.000858	0.049966	72.000000	nontarget	9.000000	na
65.050823	0.050016	72.000000	nontarget	10.000000	na
65.100839	0.049977	72.000000	nontarget	11.000000	na
65.150817	0.050007	72.000000	nontarget	12.000000	na
65.200824	0.049691	72.000000	nontarget	13.000000	na
65.250515	0.050320	72.000000	nontarget	14.000000	na
65.300835	0.050101	72.000000	nontarget	15.000000	na
65.350936	0.049894	72.000000	nontarget	16.000000	na
65.400830	0.049793	73.000000	nontarget	1.000000	na
65.450623	0.050224	73.000000	nontarget	2.000000	na
65.500847	0.050047	73.000000	nontarget	3.000000	na
65.550894	0.050129	73.000000	nontarget	4.000000	na
65.601023	0.048982	73.000000	nontarget	5.000000	65.616694
65.650004	0.050829	73.000000	nontarget	6.000000	na
65.700833	0.049216	73.000000	nontarget	7.000000	na
65.750049	0.049983	73.000000	nontarget	8.000000	na
65.800032	0.050150	73.000000	nontarget	9.000000	na
65.850182	0.050400	73.000000	nontarget	10.000000	na
65.900582	0.049463	73.000000	nontarget	11.000000	na
65.950045	0.050264	73.000000	nontarget	12.000000	na
66.000308	0.049924	73.000000	nontarget	13.000000	na
66.050232	0.050680	73.000000	nontarget	14.000000	na
66.100912	0.049533	73.000000	nontarget	15.000000	na
66.150444	0.050167	73.000000	nontarget	16.000000	na
66.200612	0.049857	74.000000	nontarget	1.000000	na
66.250468	0.049599	74.000000	nontarget	2.000000	na
66.300067	0.050377	74.000000	nontarget	3.000000	na
66.350444	0.049981	74.000000	nontarget	4.000000	na
66.400425	0.050440	74.000000	nontarget	5.000000	na
66.450865	0.049971	74.000000	nontarget	6.000000	na
66.500836	0.049904	74.000000	nontarget	7.000000	66.520395
66.550739	0.050098	74.000000	nontarget	8.000000	na
66.600837	0.049977	74.000000	nontarget	9.000000	na
66.650815	0.050028	74.000000	nontarget	10.000000	na
66.700842	0.049211	74.000000	nontarget	11.000000	na
66.750053	0.050797	74.000000	nontarget	12.000000	na
66.800850	0.049990	74.000000	nontarget	13.000000	na
66.850840	0.050177	74.000000	nontarget	14.000000	na
66.901017	0.049737	74.000000	nontarget	15.000000	na
66.950754	0.049820	74.000000	nontarget	16.000000	na
67.000573	0.050225	75.000000	target	1.000000	na
67.050798	0.050025	75.000000	target	2.000000	na
67.100823	0.049993	75.000000	target	3.000000	na
67.150816	0.049665	75.000000	target	4.000000	na
67.200480	0.049358	75.000000	target	5.000000	na
67.249838	0.051074	75.000000	target	6.000000	na
67.300912	0.049758	75.000000	target	7.000000	na
67.350670	0.050191	75.000000	target	8.000000	na
67.400861	0.050043	75.000000	target	9.000000	na
67.450904	0.049584	75.000000	target	10.000000	na
67.500488	0.050393	75.000000	target	11.000000	na
67.550881	0.049851	75.000000	target	12.000000	na
67.600732	0.050016	75.000000	target	13.000000	na
67.650748	0.048994	75.000000	target	14.000000	na
67.699742	0.050006	75.000000	target	15.000000	na
67.749748	0.050585	75.000000	target	16.000000	67.755163
67.800333	0.050465	76.000000	nontarget	1.000000	67.806932
67.850798	0.050048	76.000000	nontarget	2.000000	na
67.900846	0.049717	76.000000	nontarget	3.000000	na
67.950563	0.049849	76.000000	nontarget	4.000000	na
68.000412	0.049370	76.000000	nontarget	5.000000	na
68.049783	0.051166	76.000000	nontarget	6.000000	na
68.100949	0.049823	76.000000	nontarget	7.000000	na
68.150772	0.049530	76.000000	nontarget	8.000000	na
68.200302	0.050830	76.000000	nontarget	9.000000	na
68.251133	0.049158	76.000000	nontarget	10.000000	na
68.300290	0.050730	76.000000	nontarget	11.000000	na
68.351020	0.049718	76.000000	nontarget	12.000000	na
68.400738	0.050298	76.000000	nontarget	13.000000	na
68.451037	0.049770	76.000000	nontarget	14.000000	na
68.500807	0.050069	76.000000	nontarget	15.000000	na
68.550876	0.049954	76.000000	nontarget	16.000000	na
68.600830	0.049413	77.000000	nontarget	1.000000	na
68.650242	0.050373	77.000000	nontarget	2.000000	na
68.700615	0.049455	77.000000	nontarget	3.000000	na
68.750070	0.050644	77.000000	nontarget	4.000000	na
68.800714	0.050030	77.000000	nontarget	5.000000	na
68.850744	0.049666	77.000000	nontarget	6.000000	68.866842
68.900410	0.050429	77.000000	nontarget	7.000000	na
68.950839	0.049784	77.000000	nontarget	8.000000	na
69.000623	0.049409	77.000000	nontarget	9.000000	na
69.050031	0.050026	77.000000	nontarget	10.000000	na
69.100058	0.050783	77.000000	nontarget	11.000000	na
69.150841	0.049938	77.000000	nontarget	12.000000	na
69.200779	0.050023	77.000000	nontarget	13.000000	na
69.250802	0.049920	77.000000	nontarget	14.000000	na
69.300722	0.050084	77.000000	nontarget	15.000000	na
69.350806	0.050029	77.000000	nontarget	16.000000	na
69.400835	0.050202	78.000000	nontarget	1.000000	na
69.451036	0.049808	78.000000	nontarget	2.000000	na
69.500845	0.049235	78.000000	nontarget	3.000000	na
69.550079	0.050233	78.000000	nontarget	4.000000	na
69.600312	0.050179	78.000000	nontarget	5.000000	na
69.650491	0.050365	78.000000	nontarget	6.000000	na
69.700856	0.049747	78.000000	nontarget	7.000000	na
69.750604	0.050079	78.000000	nontarget	8.000000	na
69.800682	0.050167	78.000000	nontarget	9.000000	69.807845
69.850849	0.049970	78.000000	nontarget	10.000000	na
69.900819	0.050014	78.000000	nontarget	11.000000	na
69.950833	0.050026	78.000000	nontarget	12.000000	na
70.000859	0.049914	78.000000	nontarget	13.000000	na
70.050773	0.050115	78.000000	nontarget	14.000000	na
70.100888	0.050091	78.000000	nontarget	15.000000	na
70.150978	0.049485	78.000000	nontarget	16.000000	na
70.200463	0.049206	79.000000	nontarget	1.000000	na
70.249668	0.050686	79.000000	nontarget	2.000000	na
70.300354	0.050460	79.000000	nontarget	3.000000	na
70.350815	0.050218	79.000000	nontarget	4.000000	na
70.401032	0.049679	79.000000	nontarget	5.000000	na
70.450711	0.050324	79.000000	nontarget	6.000000	na
70.501036	0.049771	79.000000	nontarget	7.000000	na
70.550807	0.050025	79.000000	nontarget	8.000000	na
70.600832	0.050024	79.000000	nontarget	9.000000	na
70.650856	0.049766	79.000000	nontarget	10.000000	na
70.700622	0.049856	79.000000	nontarget	11.000000	na
70.750478	0.050348	79.000000	nontarget	12.000000	na
70.800826	0.049783	79.000000	nontarget	13.000000	na
70.850609	0.049670	79.000000	nontarget	14.000000	70.857269
70.900279	0.050553	79.000000	nontarget	15.000000	na
70.950832	0.049258	79.000000	nontarget	16.000000	na
71.000090	0.050750	80.000000	nontarget	1.000000	na
71.050840	0.049615	80.000000	nontarget	2.000000	na
71.100455	0.050078	80.000000	nontarget	3.000000	na
71.150532	0.049511	80.000000	nontarget	4.000000	na
71.200044	0.050785	80.000000	nontarget	5.000000	na
71.250829	0.050193	80.000000	nontarget	6.000000	na
71.301022	0.049860	80.000000	nontarget	7.000000	na
71.350882	0.049876	80.000000	nontarget	8.000000	na
71.400758	0.050077	80.000000	nontarget	9.000000	na
71.450835	0.050020	80.000000	nontarget	10.000000	na
71.500855	0.049825	80.000000	nontarget	11.000000	na
71.550680	0.049608	80.000000	nontarget	12.000000	na
71.600288	0.050729	80.000000	nontarget	13.000000	na
71.651017	0.049576	80.000000	nontarget	14.000000	na
71.700594	0.050260	80.000000	nontarget	15.000000	na
71.750853	0.049775	80.000000	nontarget	16.000000	na
71.800629	0.050307	81.000000	nontarget	1.000000	na
71.850936	0.049899	81.000000	nontarget	2.000000	71.857507
71.900835	0.049795	81.000000	nontarget	3.000000	na
71.950630	0.049974	81.000000	nontarget	4.000000	na
72.000604	0.049881	81.000000	nontarget	5.000000	na
72.050485	0.050361	81.000000	nontarget	6.000000	na
72.100846	0.050086	81.000000	nontarget	7.000000	na
72.150932	0.049914	81.000000	nontarget	8.000000	na
72.200846	0.049998	81.000000	nontarget	9.000000	na
72.250844	0.049810	81.000000	nontarget	10.000000	na
72.300654	0.049624	81.000000	nontarget	11.000000	na
72.350278	0.050880	81.000000	nontarget	12.000000	na
72.401158	0.048639	81.000000	nontarget	13.000000	na
72.449796	0.051202	81.000000	nontarget	14.000000	na
72.500998	0.050042	81.000000	nontarget	15.000000	na
72.551040	0.049847	81.000000	nontarget	16.000000	na
72.600888	0.049296	82.000000	nontarget	1.000000	na
72.650184	0.050708	82.000000	nontarget	2.000000	na
72.700891	0.049858	82.000000	nontarget	3.000000	na
72.750749	0.049812	82.000000	nontarget	4.000000	na
72.800561	0.050414	82.000000	nontarget	5.000000	72.807193
72.850975	0.049851	82.000000	nontarget	6.000000	na
72.900826	0.050013	82.000000	nontarget	7.000000	na
72.950840	0.049718	82.000000	nontarget	8.000000	na
73.000557	0.050167	82.000000	nontarget	9.000000	na
73.050725	0.050064	82.000000	nontarget	10.000000	na
73.100788	0.049795	82.000000	nontarget	11.000000	na
73.150583	0.050172	82.000000	nontarget	12.000000	na
73.200756	0.049961	82.000000	nontarget	13.000000	na
73.250717	0.049803	82.000000	nontarget	14.000000	na
73.300521	0.050464	82.000000	nontarget	15.000000	na
73.350984	0.049937	82.000000	nontarget	16.000000	na
73.400922	0.050243	83.000000	nontarget	1.000000	na
73.451164	0.049664	83.000000	nontarget	2.000000	na
73.500829	0.049329	83.000000	nontarget	3.000000	na
73.550157	0.050680	83.000000	nontarget	4.000000	na
73.600837	0.050001	83.000000	nontarget	5.000000	na
73.650838	0.050194	83.000000	nontarget	6.000000	na
73.701032	0.049191	83.000000	nontarget	7.000000	na
73.750223	0.050602	83.000000	nontarget	8.000000	73.785355
73.800825	0.050024	83.000000	nontarget	9.000000	na
73.850849	0.050200	83.000000	nontarget	10.000000	na
73.901049	0.049547	83.000000	nontarget	11.000000	na
73.950597	0.050107	83.000000	nontarget	12.000000	na
74.000704	0.050083	83.000000	nontarget	13.000000	na
74.050787	0.049699	83.000000	nontarget	14.000000	na
74.100486	0.050544	83.000000	nontarget	15.000000	na
74.151030	0.049851	83.000000	nontarget	16.000000	na
74.200882	0.049959	84.000000	nontarget	1.000000	na
74.250841	0.049481	84.000000	nontarget	2.000000	na
74.300322	0.050684	84.000000	nontarget	3.000000	na
74.351006	0.049651	84.000000	nontarget	4.000000	na
74.400657	0.050186	84.000000	nontarget	5.000000	na
74.450843	0.050115	84.000000	nontarget	6.000000	na
74.500959	0.050059	84.000000	nontarget	7.000000	na
74.551018	0.050162	84.000000	nontarget	8.000000	na
74.601180	0.049972	84.000000	nontarget	9.000000	na
74.651152	0.049057	84.000000	nontarget	10.000000	na
74.700209	0.050778	84.000000	nontarget	11.000000	na
74.750986	0.049273	84.000000	nontarget	12.000000	na
74.800259	0.050581	84.000000	nontarget	13.000000	74.811847
74.850840	0.050123	84.000000	nontarget	14.000000	na
74.900963	0.049277	84.000000	nontarget	15.000000	na
74.950240	0.050476	84.000000	nontarget	16.000000	na
75.000716	0.050241	85.000000	nontarget	1.000000	na
75.050957	0.049889	85.000000	nontarget	2.000000	na
75.100846	0.050209	85.000000	nontarget	3.000000	na
75.151055	0.050056	85.000000	nontarget	4.000000	na
75.201111	0.049746	85.000000	nontarget	5.000000	na
75.250857	0.049962	85.000000	nontarget	6.000000	na
75.300819	0.049948	85.000000	nontarget	7.000000	na
75.350767	0.050139	85.000000	nontarget	8.000000	na
75.400906	0.050192	85.000000	nontarget	9.000000	na
75.451098	0.049923	85.000000	nontarget	10.000000	na
75.501021	0.049562	85.000000	nontarget	11.000000	na
75.550583	0.049938	85.000000	nontarget	12.000000	na
75.600521	0.050315	85.000000	nontarget	13.000000	na
75.650835	0.049997	85.000000	nontarget	14.000000	na
75.700832	0.050094	85.000000	nontarget	15.000000	na
75.750927	0.049774	85.000000	nontarget	16.000000	na
75.800701	0.050244	86.000000	nontarget	1.000000	na
75.850945	0.049980	86.000000	nontarget	2.000000	75.862316
75.900925	0.049894	86.000000	nontarget	3.000000	na
75.950819	0.049802	86.000000	nontarget	4.000000	na
76.000621	0.050495	86.000000	nontarget	5.000000	na
76.051116	0.049378	86.000000	nontarget	6.000000	na
76.100494	0.050511	86.000000	nontarget	7.000000	na
76.151004	0.049418	86.000000	nontarget	8.000000	na
76.200422	0.049933	86.000000	nontarget	9.000000	na
76.250355	0.050213	86.000000	nontarget	10.000000	na
76.300568	0.050366	86.000000	nontarget	11.000000	na
76.350934	0.049452	86.000000	nontarget	12.000000	na
76.400386	0.049848	86.000000	nontarget	13.000000	na
76.450234	0.050641	86.000000	nontarget	14.000000	na
76.500875	0.050301	86.000000	nontarget	15.000000	na
76.551177	0.049404	86.000000	nontarget	16.000000	na
76.600581	0.050262	87.000000	nontarget	1.000000	na
76.650843	0.049899	87.000000	nontarget	2.000000	na
76.700742	0.050080	87.000000	nontarget	3.000000	na
76.750822	0.050021	87.000000	nontarget	4.000000	na
76.800843	0.049700	87.000000	nontarget	5.000000	na
76.850543	0.050069	87.000000	nontarget	6.000000	na
76.900612	0.049592	87.000000	nontarget	7.000000	76.907372
76.950204	0.050439	87.000000	nontarget	8.000000	na
77.000643	0.049759	87.000000	nontarget	9.000000	na
77.050402	0.049996	87.000000	nontarget	10.000000	na
77.100398	0.050552	87.000000	nontarget	11.000000	na
77.150951	0.049891	87.000000	nontarget	12.000000	na
77.200841	0.050010	87.000000	nontarget	13.000000	na
77.250851	0.049530	87.000000	nontarget	14.000000	na
77.300381	0.050447	87.000000	nontarget	15.000000	na
77.350828	0.049504	87.000000	nontarget	16.000000	na
77.400332	0.050449	88.000000	nontarget	1.000000	na
77.450781	0.050256	88.000000	nontarget	2.000000	na
77.501037	0.049809	88.000000	nontarget	3.000000	na
77.550846	0.049218	88.000000	nontarget	4.000000	na
77.600064	0.051130	88.000000	nontarget	5.000000	na
77.651194	0.049016	88.000000	nontarget	6.000000	na
77.700210	0.050780	88.000000	nontarget	7.000000	na
77.750990	0.049939	88.000000	nontarget	8.000000	na
77.800929	0.048867	88.000000	nontarget	9.000000	77.825203
77.849795	0.050720	88.000000	nontarget	10.000000	na
77.900515	0.050292	88.000000	nontarget	11.000000	na
77.950808	0.049893	88.000000	nontarget	12.000000	na
78.000701	0.050139	88.000000	nontarget	13.000000	na
78.050840	0.050020	88.000000	nontarget	14.000000	na
78.100860	0.049533	88.000000	nontarget	15.000000	na
78.150393	0.050527	88.000000	nontarget	16.000000	na
78.200919	0.049469	89.000000	nontarget	1.000000	na
78.250388	0.049649	89.000000	nontarget	2.000000	na
78.300037	0.050264	89.000000	nontarget	3.000000	na
78.350301	0.050088	89.000000	nontarget	4.000000	na
78.400390	0.049751	89.000000	nontarget	5.000000	na
78.450140	0.049904	89.000000	nontarget	6.000000	na
78.500044	0.050799	89.000000	nontarget	7.000000	na
78.550843	0.050039	89.000000	nontarget	8.000000	na
78.600882	0.048909	89.000000	nontarget	9.000000	na
78.649791	0.050942	89.000000	nontarget	10.000000	na
78.700733	0.050196	89.000000	nontarget	11.000000	na
78.750929	0.049888	89.000000	nontarget	12.000000	na
78.800817	0.050025	89.000000	nontarget	13.000000	na
78.850842	0.050060	89.000000	nontarget	14.000000	na
78.900902	0.049449	89.000000	nontarget	15.000000	na
78.950350	0.050058	89.000000	nontarget	16.000000	78.981907
79.000408	0.050357	90.000000	nontarget	1.000000	79.006970
79.050765	0.049776	90.000000	nontarget	2.000000	na
79.100541	0.049818	90.000000	nontarget	3.000000	na
79.150358	0.050717	90.000000	nontarget	4.000000	na
79.201076	0.049772	90.000000	nontarget	5.000000	na
79.250847	0.050179	90.000000	nontarget	6.000000	na
79.301026	0.049867	90.000000	nontarget	7.000000	na
79.350894	0.049842	90.000000	nontarget	8.000000	na
79.400736	0.050179	90.000000	nontarget	9.000000	na
79.450915	0.049876	90.000000	nontarget	10.000000	na
79.500791	0.050062	90.000000	nontarget	11.000000	na
79.550852	0.049696	90.000000	nontarget	12.000000	na
79.600549	0.050319	90.000000	nontarget	13.000000	na
79.650868	0.049959	90.000000	nontarget	14.000000	na
79.700827	0.049288	90.000000	nontarget	15.000000	na
79.750115	0.050774	90.000000	nontarget	16.000000	na
79.800888	0.049993	91.000000	nontarget	1.000000	na
79.850881	0.049947	91.000000	nontarget	2.000000	na
79.900828	0.049178	91.000000	nontarget	3.000000	79.920557
79.950006	0.050663	91.000000	nontarget	4.000000	na
80.000669	0.049452	91.000000	nontarget	5.000000	na
80.050121	0.050802	91.000000	nontarget	6.000000	na
80.100923	0.049939	91.000000	nontarget	7.000000	na
80.150862	0.050016	91.000000	nontarget	8.000000	na
80.200878	0.050054	91.000000	nontarget	9.000000	na
80.250931	0.049941	91.000000	nontarget	10.000000	na
80.300872	0.050026	91.000000	nontarget	11.000000	na
80.350898	0.049958	91.000000	nontarget	12.000000	na
80.400856	0.049339	91.000000	nontarget	13.000000	na
80.450195	0.050645	91.000000	nontarget	14.000000	na
80.500840	0.049294	91.000000	nontarget	15.000000	na
80.550135	0.050368	91.000000	nontarget	16.000000	na
80.600503	0.049656	92.000000	nontarget	1.000000	na
80.650158	0.050666	92.000000	nontarget	2.000000	na
80.700824	0.050116	92.000000	nontarget	3.000000	na
80.750940	0.049896	92.000000	nontarget	4.000000	na
80.800837	0.048983	92.000000	nontarget	5.000000	na
80.849820	0.051013	92.000000	nontarget	6.000000	na
80.900833	0.050120	92.000000	nontarget	7.000000	80.907431
80.950954	0.049876	92.000000	nontarget	8.000000	na
81.000830	0.050017	92.000000	nontarget	9.000000	na
81.050847	0.049994	92.000000	nontarget	10.000000	na
81.100841	0.049974	92.000000	nontarget	11.000000	na
81.150816	0.050126	92.000000	nontarget	12.000000	na
81.200941	0.049908	92.000000	nontarget	13.000000	na
81.250850	0.050029	92.000000	nontarget	14.000000	na
81.300878	0.049974	92.000000	nontarget	15.000000	na
81.350853	0.050013	92.000000	nontarget	16.000000	na
81.400866	0.049978	93.000000	nontarget	1.000000	na
81.450844	0.049171	93.000000	nontarget	2.000000	na
81.500015	0.050175	93.000000	nontarget	3.000000	na
81.550190	0.050655	93.000000	nontarget	4.000000	na
81.600844	0.049913	93.000000	nontarget	5.000000	na
81.650758	0.049228	93.000000	nontarget	6.000000	na
81.699985	0.050892	93.000000	nontarget	7.000000	na
81.750877	0.049770	93.000000	nontarget	8.000000	na
81.800647	0.050198	93.000000	nontarget	9.000000	na
81.850845	0.049946	93.000000	nontarget	10.000000	na
81.900791	0.049929	93.000000	nontarget	11.000000	na
81.950719	0.049902	93.000000	nontarget	12.000000	na
82.000621	0.049458	93.000000	nontarget	13.000000	na
82.050079	0.050850	93.000000	nontarget	14.000000	82.055849
82.100929	0.049196	93.000000	nontarget	15.000000	na
82.150125	0.050724	93.000000	nontarget	16.000000	na
82.200849	0.050005	94.000000	nontarget	1.000000	na
82.250854	0.050022	94.000000	nontarget	2.000000	na
82.300876	0.049807	94.000000	nontarget	3.000000	na
82.350683	0.050179	94.000000	nontarget	4.000000	na
82.400861	0.049297	94.000000	nontarget	5.000000	na
82.450159	0.050691	94.000000	nontarget	6.000000	na
82.500850	0.050087	94.000000	nontarget	7.000000	na
82.550938	0.049905	94.000000	nontarget	8.000000	na
82.600843	0.050015	94.000000	nontarget	9.000000	na
82.650857	0.049291	94.000000	nontarget	10.000000	na
82.700148	0.050906	94.000000	nontarget	11.000000	na
82.751054	0.049865	94.000000	nontarget	12.000000	na
82.800920	0.049175	94.000000	nontarget	13.000000	na
82.850094	0.050788	94.000000	nontarget	14.000000	na
82.900882	0.049752	94.000000	nontarget	15.000000	na
82.950634	0.049947	94.000000	nontarget	16.000000	na
83.000581	0.050212	95.000000	nontarget	1.000000	na
83.050793	0.050058	95.000000	nontarget	2.000000	na
83.100851	0.050168	95.000000	nontarget	3.000000	na
83.151019	0.049994	95.000000	nontarget	4.000000	83.185838
83.201012	0.049529	95.000000	nontarget	5.000000	na
83.250541	0.050117	95.000000	nontarget	6.000000	na
83.300658	0.049749	95.000000	nontarget	7.000000	na
83.350407	0.050427	95.000000	nontarget	8.000000	na
83.400834	0.050074	95.000000	nontarget	9.000000	na
83.450908	0.049888	95.000000	nontarget	10.000000	na
83.500796	0.050055	95.000000	nontarget	11.000000	na
83.550851	0.049440	95.000000	nontarget	12.000000	na
83.600290	0.050754	95.000000	nontarget	13.000000	na
83.651044	0.049604	95.000000	nontarget	14.000000	na
83.700648	0.050203	95.000000	nontarget	15.000000	na
83.750851	0.049574	95.000000	nontarget	16.000000	na
83.800425	0.050442	96.000000	nontarget	1.000000	na
83.850867	0.049978	96.000000	nontarget	2.000000	na
83.900845	0.050072	96.000000	nontarget	3.000000	na
83.950917	0.049376	96.000000	nontarget	4.000000	na
84.000293	0.049540	96.000000	nontarget	5.000000	na
84.049833	0.050223	96.000000	nontarget	6.000000	na
84.100056	0.050927	96.000000	nontarget	7.000000	84.106553
84.150983	0.049605	96.000000	nontarget	8.000000	na
84.200588	0.050360	96.000000	nontarget	9.000000	na
84.250948	0.049175	96.000000	nontarget	10.000000	na
84.300123	0.050698	96.000000	nontarget	11.000000	na
84.350821	0.050219	96.000000	nontarget	12.000000	na
84.401041	0.049501	96.000000	nontarget	13.000000	na
84.450541	0.049476	96.000000	nontarget	14.000000	na
84.500017	0.050453	96.000000	nontarget	15.000000	na
84.550470	0.050347	96.000000	nontarget	16.000000	na
84.600817	0.050040	97.000000	nontarget	1.000000	na
84.650857	0.050135	97.000000	nontarget	2.000000	na
84.700991	0.049822	97.000000	nontarget	3.000000	na
84.750814	0.050219	97.000000	nontarget	4.000000	na
84.801032	0.049031	97.000000	nontarget	5.000000	na
84.850063	0.050784	97.000000	nontarget	6.000000	na
84.900847	0.050010	97.000000	nontarget	7.000000	na
84.950857	0.049954	97.000000	nontarget	8.000000	na
85.000811	0.050033	97.000000	nontarget	9.000000	85.006722
85.050844	0.050213	97.000000	nontarget	10.000000	na
85.101057	0.049388	97.000000	nontarget	11.000000	na
85.150445	0.050337	97.000000	nontarget	12.000000	na
85.200782	0.050058	97.000000	nontarget	13.000000	na
85.250840	0.049474	97.000000	nontarget	14.000000	na
85.300314	0.050554	97.000000	nontarget	15.000000	na
85.350868	0.049496	97.000000	nontarget	16.000000	na
85.400364	0.049790	98.000000	nontarget	1.000000	na
85.450154	0.050877	98.000000	nontarget	2.000000	na
85.501032	0.049690	98.000000	nontarget	3.000000	na
85.550721	0.050002	98.000000	nontarget	4.000000	na
85.600723	0.050122	98.000000	nontarget	5.000000	na
85.650845	0.049501	98.000000	nontarget	6.000000	na
85.700345	0.050449	98.000000	nontarget	7.000000	na
85.750795	0.050054	98.000000	nontarget	8.000000	na
85.800848	0.049843	98.000000	nontarget	9.000000	na
85.850691	0.050103	98.000000	nontarget	10.000000	na
85.900793	0.050069	98.000000	nontarget	11.000000	na
85.950862	0.049526	98.000000	nontarget	12.000000	85.957582
86.000389	0.050693	98.000000	nontarget	13.000000	na
86.051082	0.049780	98.000000	nontarget	14.000000	na
86.100861	0.049885	98.000000	nontarget	15.000000	na
86.150746	0.050270	98.000000	nontarget	16.000000	na
86.201016	0.049836	99.000000	nontarget	1.000000	na
86.250853	0.049848	99.000000	nontarget	2.000000	na
86.300701	0.049791	99.000000	nontarget	3.000000	na
86.350492	0.050362	99.000000	nontarget	4.000000	na
86.400854	0.049947	99.000000	nontarget	5.000000	na
86.450801	0.050055	99.000000	nontarget	6.000000	na
86.500856	0.049874	99.000000	nontarget	7.000000	na
86.550730	0.050022	99.000000	nontarget	8.000000	na
86.600752	0.050093	99.000000	nontarget	9.000000	na
86.650845	0.049349	99.000000	nontarget	10.000000	na
86.700194	0.050140	99.000000	nontarget	11.000000	na
86.750334	0.050509	99.000000	nontarget	12.000000	na
86.800843	0.049894	99.000000	nontarget	13.000000	na
86.850736	0.050109	99.000000	nontarget	14.000000	86.878430
86.900845	0.050146	99.000000	nontarget	15.000000	na
86.950991	0.049624	99.000000	nontarget	16.000000	na
87.000615	0.049977	100.000000	nontarget	1.000000	87.007516
87.050593	0.049889	100.000000	nontarget	2.000000	na
87.100481	0.050334	100.000000	nontarget	3.000000	na
87.150816	0.050243	100.000000	nontarget	4.000000	na
87.201058	0.049790	100.000000	nontarget	5.000000	na
87.250848	0.049991	100.000000	nontarget	6.000000	na
87.300840	0.049994	100.000000	nontarget	7.000000	na
87.350833	0.049353	100.000000	nontarget	8.000000	na
87.400187	0.050841	100.000000	nontarget	9.000000	na
87.451028	0.049547	100.000000	nontarget	10.000000	na
87.500575	0.049709	100.000000	nontarget	11.000000	na
87.550283	0.050586	100.000000	nontarget	12.000000	na
87.600869	0.049204	100.000000	nontarget	13.000000	na
87.650073	0.050778	100.000000	nontarget	14.000000	na
87.700851	0.050044	100.000000	nontarget	15.000000	na
87.750895	0.049626	100.000000	nontarget	16.000000	na
87.800521	0.050371	101.000000	nontarget	1.000000	na
87.850892	0.050155	101.000000	nontarget	2.000000	na
87.901047	0.049608	101.000000	nontarget	3.000000	na
87.950655	0.049966	101.000000	nontarget	4.000000	87.981542
88.000621	0.050138	101.000000	nontarget	5.000000	na
88.050759	0.050085	101.000000	nontarget	6.000000	na
88.100844	0.050049	101.000000	nontarget	7.000000	na
88.150894	0.049978	101.000000	nontarget	8.000000	na
88.200871	0.050177	101.000000	nontarget	9.000000	na
88.251049	0.049678	101.000000	nontarget	10.000000	na
88.300727	0.050028	101.000000	nontarget	11.000000	na
88.350755	0.049634	101.000000	nontarget	12.000000	na
88.400389	0.050378	101.000000	nontarget	13.000000	na
88.450767	0.050078	101.000000	nontarget	14.000000	na
88.500845	0.050162	101.000000	nontarget	15.000000	na
88.551008	0.049822	101.000000	nontarget	16.000000	na
88.600830	0.049403	102.000000	nontarget	1.000000	na
88.650233	0.050256	102.000000	nontarget	2.000000	na
88.700489	0.050362	102.000000	nontarget	3.000000	na
88.750851	0.050033	102.000000	nontarget	4.000000	na
88.800883	0.049461	102.000000	nontarget	5.000000	na
88.850344	0.050406	102.000000	nontarget	6.000000	na
88.900750	0.049515	102.000000	nontarget	7.000000	88.907563
88.950265	0.050415	102.000000	nontarget	8.000000	na
89.000680	0.049643	102.000000	nontarget	9.000000	na
89.050323	0.050363	102.000000	nontarget	10.000000	na
89.100686	0.050112	102.000000	nontarget	11.000000	na
89.150798	0.050059	102.000000	nontarget	12.000000	na
89.200857	0.050183	102.000000	nontarget	13.000000	na
89.251040	0.049994	102.000000	nontarget	14.000000	na
89.301034	0.049625	102.000000	nontarget	15.000000	na
89.350658	0.050352	102.000000	nontarget	16.000000	na
89.401011	0.049838	103.000000	nontarget	1.000000	na
89.450848	0.050076	103.000000	nontarget	2.000000	na
89.500925	0.049889	103.000000	nontarget	3.000000	na
89.550814	0.050157	103.000000	nontarget	4.000000	na
89.600971	0.049379	103.000000	nontarget	5.000000	na
89.650350	0.050687	103.000000	nontarget	6.000000	na
89.701037	0.049217	103.000000	nontarget	7.000000	na
89.750255	0.050709	103.000000	nontarget	8.000000	na
89.800964	0.049665	103.000000	nontarget	9.000000	89.807569
89.850629	0.050126	103.000000	nontarget	10.000000	na
89.900754	0.050109	103.000000	nontarget	11.000000	na
89.950863	0.049747	103.000000	nontarget	12.000000	na
90.000610	0.050214	103.000000	nontarget	13.000000	na
90.050824	0.050213	103.000000	nontarget	14.000000	na
90.101037	0.049998	103.000000	nontarget	15.000000	na
90.151035	0.049659	103.000000	nontarget	16.000000	na
90.200694	0.050341	104.000000	nontarget	1.000000	na
90.251034	0.049768	104.000000	nontarget	2.000000	na
90.300802	0.050060	104.000000	nontarget	3.000000	na
90.350863	0.049845	104.000000	nontarget	4.000000	na
90.400707	0.050356	104.000000	nontarget	5.000000	na
90.451064	0.049712	104.000000	nontarget	6.000000	na
90.500776	0.050236	104.000000	nontarget	7.000000	na
90.551012	0.049013	104.000000	nontarget	8.000000	na
90.600025	0.051008	104.000000	nontarget	9.000000	na
90.651033	0.050005	104.000000	nontarget	10.000000	na
90.701038	0.049954	104.000000	nontarget	11.000000	90.712273
90.750992	0.050040	104.000000	nontarget	12.000000	na
90.801032	0.049728	104.000000	nontarget	13.000000	na
90.850760	0.050270	104.000000	nontarget	14.000000	na
90.901030	0.049595	104.000000	nontarget	15.000000	na
90.950625	0.049970	104.000000	nontarget	16.000000	na
91.000595	0.050432	105.000000	nontarget	1.000000	na
91.051027	0.049341	105.000000	nontarget	2.000000	na
91.100369	0.050359	105.000000	nontarget	3.000000	na
91.150727	0.050128	105.000000	nontarget	4.000000	na
91.200855	0.050172	105.000000	nontarget	5.000000	na
91.251028	0.049829	105.000000	nontarget	6.000000	na
91.300857	0.049195	105.000000	nontarget	7.000000	na
91.350052	0.050978	105.000000	nontarget	8.000000	na
91.401030	0.049984	105.000000	nontarget	9.000000	na
91.451015	0.050012	105.000000	nontarget	10.000000	na
91.501026	0.049416	105.000000	nontarget	11.000000	na
91.550442	0.050361	105.000000	nontarget	12.000000	na
91.600803	0.050026	105.000000	nontarget	13.000000	na
91.650829	0.050047	105.000000	nontarget	14.000000	na
91.700876	0.050016	105.000000	nontarget	15.000000	na
91.750893	0.050121	105.000000	nontarget	16.000000	na
91.801014	0.049692	106.000000	target	1.000000	na
91.850706	0.050311	106.000000	target	2.000000	91.857307
91.901017	0.049836	106.000000	target	3.000000	na
91.950853	0.049707	106.000000	target	4.000000	na
92.000559	0.049872	106.000000	target	5.000000	na
92.050431	0.050468	106.000000	target	6.000000	na
92.100899	0.049986	106.000000	target	7.000000	na
92.150885	0.049653	106.000000	target	8.000000	na
92.200538	0.049878	106.000000	target	9.000000	na
92.250417	0.050237	106.000000	target	10.000000	na
92.300654	0.050120	106.000000	target	11.000000	na
92.350775	0.050241	106.000000	target	12.000000	na
92.401015	0.050012	106.000000	target	13.000000	na
92.451027	0.049117	106.000000	target	14.000000	na
92.500144	0.050816	106.000000	target	15.000000	na
92.550960	0.049753	106.000000	target	16.000000	na
92.600713	0.050286	107.000000	nontarget	1.000000	na
92.650998	0.049937	107.000000	nontarget	2.000000	na
92.700936	0.049888	107.000000	nontarget	3.000000	na
92.750823	0.049745	107.000000	nontarget	4.000000	na
92.800568	0.050061	107.000000	nontarget	5.000000	na
92.850629	0.050367	107.000000	nontarget	6.000000	na
92.900996	0.049240	107.000000	nontarget	7.000000	92.912224
92.950236	0.050518	107.000000	nontarget	8.000000	na
93.000754	0.049522	107.000000	nontarget	9.000000	na
93.050276	0.049724	107.000000	nontarget	10.000000	na
93.100000	0.050865	107.000000	nontarget	11.000000	na
93.150865	0.049898	107.000000	nontarget	12.000000	na
93.200763	0.050091	107.000000	nontarget	13.000000	na
93.250854	0.050095	107.000000	nontarget	14.000000	na
93.300950	0.049903	107.000000	nontarget	15.000000	na
93.350853	0.049671	107.000000	nontarget	16.000000	na
93.400523	0.050252	108.000000	nontarget	1.000000	na
93.450775	0.049325	108.000000	nontarget	2.000000	na
93.500100	0.050760	108.000000	nontarget	3.000000	na
93.550859	0.049986	108.000000	nontarget	4.000000	na
93.600845	0.050177	108.000000	nontarget	5.000000	na
93.651023	0.049803	108.000000	nontarget	6.000000	na
93.700826	0.049995	108.000000	nontarget	7.000000	na
93.750820	0.050070	108.000000	nontarget	8.000000	na
93.800891	0.049898	108.000000	nontarget	9.000000	na
93.850789	0.049809	108.000000	nontarget	10.000000	na
93.900598	0.050181	108.000000	nontarget	11.000000	na
93.950779	0.049791	108.000000	nontarget	12.000000	na
94.000569	0.050419	108.000000	nontarget	13.000000	94.028215
94.050989	0.049313	108.000000	nontarget	14.000000	na
94.100301	0.050426	108.000000	nontarget	15.000000	na
94.150727	0.049762	108.000000	nontarget	16.000000	na
94.200489	0.050185	109.000000	nontarget	1.000000	na
94.250674	0.050308	109.000000	nontarget	2.000000	na
94.300982	0.049578	109.000000	nontarget	3.000000	na
94.350560	0.050303	109.000000	nontarget	4.000000	na
94.400863	0.049939	109.000000	nontarget	5.000000	na
94.450802	0.049574	109.000000	nontarget	6.000000	na
94.500376	0.050597	109.000000	nontarget	7.000000	na
94.550972	0.049741	109.000000	nontarget	8.000000	na
94.600713	0.050080	109.000000	nontarget	9.000000	na
94.650794	0.050187	109.000000	nontarget	10.000000	na
94.700980	0.049467	109.000000	nontarget	11.000000	na
94.750447	0.050422	109.000000	nontarget	12.000000	na
94.800869	0.049987	109.000000	nontarget	13.000000	na
94.850857	0.049863	109.000000	nontarget	14.000000	na
94.900720	0.050100	109.000000	nontarget	15.000000	na
94.950820	0.049830	109.000000	nontarget	16.000000	94.966880
95.000650	0.050321	110.000000	nontarget	1.000000	95.007215
95.050971	0.049493	110.000000	nontarget	2.000000	na
95.100464	0.050489	110.000000	nontarget	3.000000	na
95.150953	0.049265	110.000000	nontarget	4.000000	na
95.200217	0.050657	110.000000	nontarget	5.000000	na
95.250874	0.050004	110.000000	nontarget	6.000000	na
95.300878	0.050163	110.000000	nontarget	7.000000	na
95.351041	0.049827	110.000000	nontarget	8.000000	na
95.400867	0.049789	110.000000	nontarget	9.000000	na
95.450656	0.050045	110.000000	nontarget	10.000000	na
95.500701	0.049491	110.000000	nontarget	11.000000	na
95.550192	0.050659	110.000000	nontarget	12.000000	na
95.600852	0.050247	110.000000	nontarget	13.000000	na
95.651099	0.049790	110.000000	nontarget	14.000000	na
95.700889	0.049182	110.000000	nontarget	15.000000	na
95.750071	0.050792	110.000000	nontarget	16.000000	na
95.800862	0.049880	111.000000	nontarget	1.000000	na
95.850743	0.049558	111.000000	nontarget	2.000000	na
95.900300	0.050365	111.000000	nontarget	3.000000	95.930794
95.950665	0.049835	111.000000	nontarget	4.000000	na
96.000500	0.050356	111.000000	nontarget	5.000000	na
96.050856	0.049645	111.000000	nontarget	6.000000	na
96.100501	0.050395	111.000000	nontarget	7.000000	na
96.150896	0.049963	111.000000	nontarget	8.000000	na
96.200859	0.049860	111.000000	nontarget	9.000000	na
96.250719	0.049666	111.000000	nontarget	10.000000	na
96.300385	0.050310	111.000000	nontarget	11.000000	na
96.350695	0.049962	111.000000	nontarget	12.000000	na
96.400657	0.049726	111.000000	nontarget	13.000000	na
96.450383	0.050416	111.000000	nontarget	14.000000	na
96.500799	0.049964	111.000000	nontarget	15.000000	na
96.550763	0.050100	111.000000	nontarget	16.000000	na
96.600863	0.049683	112.000000	nontarget	1.000000	na
96.650546	0.050311	112.000000	nontarget	2.000000	na
96.700857	0.050042	112.000000	nontarget	3.000000	na
96.750898	0.050051	112.000000	nontarget	4.000000	na
96.800949	0.050004	112.000000	nontarget	5.000000	na
96.850953	0.049909	112.000000	nontarget	6.000000	na
96.900863	0.049973	112.000000	nontarget	7.000000	na
96.950836	0.049455	112.000000	nontarget	8.000000	na
97.000292	0.050510	112.000000	nontarget	9.000000	97.020082
97.050801	0.050142	112.000000	nontarget	10.000000	na
97.100943	0.049126	112.000000	nontarget	11.000000	na
97.150069	0.050236	112.000000	nontarget	12.000000	na
97.200305	0.049821	112.000000	nontarget	13.000000	na
97.250126	0.050815	112.000000	nontarget	14.000000	na
97.300940	0.049445	112.000000	nontarget	15.000000	na
97.350385	0.050471	112.000000	nontarget	16.000000	na
97.400856	0.050055	113.000000	nontarget	1.000000	na
97.450910	0.049675	113.000000	nontarget	2.000000	na
97.500585	0.050356	113.000000	nontarget	3.000000	na
97.550941	0.049911	113.000000	nontarget	4.000000	na
97.600852	0.050059	113.000000	nontarget	5.000000	na
97.650911	0.049741	113.000000	nontarget	6.000000	na
97.700652	0.049532	113.000000	nontarget	7.000000	na
97.750184	0.050670	113.000000	nontarget	8.000000	na
97.800854	0.049712	113.000000	nontarget	9.000000	na
97.850566	0.050074	113.000000	nontarget	10.000000	na
97.900640	0.050060	113.000000	nontarget	11.000000	na
97.950700	0.050228	113.000000	nontarget	12.000000	na
98.000928	0.049861	113.000000	nontarget	13.000000	98.021710
98.050789	0.050124	113.000000	nontarget	14.000000	na
98.100914	0.049960	113.000000	nontarget	15.000000	na
98.150873	0.049391	113.000000	nontarget	16.000000	na
98.200264	0.050583	114.000000	nontarget	1.000000	na
98.250847	0.049987	114.000000	nontarget	2.000000	na
98.300834	0.049798	114.000000	nontarget	3.000000	na
98.350632	0.050121	114.000000	nontarget	4.000000	na
98.400753	0.049393	114.000000	nontarget	5.000000	na
98.450146	0.050705	114.000000	nontarget	6.000000	na
98.500851	0.050005	114.000000	nontarget	7.000000	na
98.550856	0.050006	114.000000	nontarget	8.000000	na
98.600862	0.049946	114.000000	nontarget	9.000000	na
98.650808	0.049505	114.000000	nontarget	10.000000	na
98.700313	0.050528	114.000000	nontarget	11.000000	na
98.750841	0.049387	114.000000	nontarget	12.000000	na
98.800228	0.050718	114.000000	nontarget	13.000000	na
98.850946	0.049834	114.000000	nontarget	14.000000	na
98.900780	0.050049	114.000000	nontarget	15.000000	na
98.950829	0.049962	114.000000	nontarget	16.000000	na
99.000791	0.049874	115.000000	target	1.000000	na
99.050665	0.050054	115.000000	target	2.000000	na
99.100719	0.049982	115.000000	target	3.000000	na
99.150701	0.050215	115.000000	target	4.000000	na
99.200916	0.049464	115.000000	target	5.000000	na
99.250380	0.050235	115.000000	target	6.000000	na
99.300615	0.050131	115.000000	target	7.000000	na
99.350746	0.049572	115.000000	target	8.000000	na
99.400318	0.050074	115.000000	target	9.000000	na
99.450392	0.049770	115.000000	target	10.000000	na
99.500163	0.050671	115.000000	target	11.000000	na
99.550834	0.050013	115.000000	target	12.000000	99.574704
99.600847	0.050003	115.000000	target	13.000000	na
99.650850	0.050056	115.000000	target	14.000000	na
99.700906	0.050136	115.000000	target	15.000000	na
99.751042	0.049493	115.000000	target	16.000000	na
99.800535	0.050149	116.000000	nontarget	1.000000	na
99.850684	0.050153	116.000000	nontarget	2.000000	na
99.900837	0.050048	116.000000	nontarget	3.000000	na
99.950885	0.049838	116.000000	nontarget	4.000000	na
100.000724	0.049467	116.000000	nontarget	5.000000	na
100.050191	0.050662	116.000000	nontarget	6.000000	na
100.100852	0.049870	116.000000	nontarget	7.000000	na
100.150723	0.049536	116.000000	nontarget	8.000000	na
100.200258	0.050402	116.000000	nontarget	9.000000	na
100.250660	0.050076	116.000000	nontarget	10.000000	na
100.300736	0.050155	116.000000	nontarget	11.000000	na
100.350891	0.049753	116.000000	nontarget	12.000000	na
100.400644	0.050165	116.000000	nontarget	13.000000	na
100.450808	0.049513	116.000000	nontarget	14.000000	na
100.500321	0.050418	116.000000	nontarget	15.000000	na
100.550738	0.050118	116.000000	nontarget	16.000000	na
100.600856	0.049803	117.000000	nontarget	1.000000	na
100.650659	0.050236	117.000000	nontarget	2.000000	na
100.700896	0.049380	117.000000	nontarget	3.000000	na
100.750275	0.050485	117.000000	nontarget	4.000000	na
100.800760	0.049568	117.000000	nontarget	5.000000	na
100.850328	0.050038	117.000000	nontarget	6.000000	100.886116
100.900366	0.050492	117.000000	nontarget	7.000000	na
100.950858	0.049764	117.000000	nontarget	8.000000	na
101.000622	0.050266	117.000000	nontarget	9.000000	na
101.050888	0.049200	117.000000	nontarget	10.000000	na
101.100087	0.049998	117.000000	nontarget	11.000000	na
101.150086	0.050514	117.000000	nontarget	12.000000	na
101.200600	0.050228	117.000000	nontarget	13.000000	na
101.250828	0.049966	117.000000	nontarget	14.000000	na
101.300794	0.049814	117.000000	nontarget	15.000000	na
101.350608	0.050117	117.000000	nontarget	16.000000	na
101.400725	0.049552	118.000000	nontarget	1.000000	na
101.450277	0.050587	118.000000	nontarget	2.000000	na
101.500864	0.049404	118.000000	nontarget	3.000000	na
101.550269	0.050637	118.000000	nontarget	4.000000	na
101.600906	0.049962	118.000000	nontarget	5.000000	na
101.650868	0.049805	118.000000	nontarget	6.000000	na
101.700673	0.050183	118.000000	nontarget	7.000000	na
101.750856	0.049488	118.000000	nontarget	8.000000	na
101.800344	0.050501	118.000000	nontarget	9.000000	na
101.850845	0.049973	118.000000	nontarget	10.000000	na
101.900818	0.050034	118.000000	nontarget	11.000000	na
101.950851	0.049831	118.000000	nontarget	12.000000	na
102.000683	0.050320	118.000000	nontarget	13.000000	na
102.051003	0.049789	118.000000	nontarget	14.000000	102.062272
102.100792	0.049659	118.000000	nontarget	15.000000	na
102.150450	0.050341	118.000000	nontarget	16.000000	na
102.200792	0.049314	119.000000	nontarget	1.000000	102.207336
102.250106	0.050489	119.000000	nontarget	2.000000	na
102.300595	0.050228	119.000000	nontarget	3.000000	na
102.350823	0.050041	119.000000	nontarget	4.000000	na
102.400863	0.049986	119.000000	nontarget	5.000000	na
102.450850	0.050024	119.000000	nontarget	6.000000	na
102.500874	0.049230	119.000000	nontarget	7.000000	na
102.550104	0.050763	119.000000	nontarget	8.000000	na
102.600866	0.049751	119.000000	nontarget	9.000000	na
102.650618	0.050179	119.000000	nontarget	10.000000	na
102.700797	0.049866	119.000000	nontarget	11.000000	na
102.750664	0.049909	119.000000	nontarget	12.000000	na
102.800573	0.050284	119.000000	nontarget	13.000000	na
102.850857	0.049458	119.000000	nontarget	14.000000	na
102.900315	0.050473	119.000000	nontarget	15.000000	na
102.950788	0.049848	119.000000	nontarget	16.000000	na
103.000635	0.050365	120.000000	nontarget	1.000000	na
103.051001	0.049798	120.000000	nontarget	2.000000	103.057962
103.100799	0.049910	120.000000	nontarget	3.000000	na
103.150709	0.050009	120.000000	nontarget	4.000000	na
103.200718	0.050139	120.000000	nontarget	5.000000	na
103.250856	0.050473	120.000000	nontarget	6.000000	na
103.301329	0.049324	120.000000	nontarget	7.000000	na
103.350653	0.050200	120.000000	nontarget	8.000000	na
103.400854	0.049946	120.000000	nontarget	9.000000	na
103.450800	0.050054	120.000000	nontarget	10.000000	na
103.500854	0.049757	120.000000	nontarget	11.000000	na
103.550610	0.050238	120.000000	nontarget	12.000000	na
103.600848	0.049998	120.000000	nontarget	13.000000	na
103.650847	0.050012	120.000000	nontarget	14.000000	na
103.700859	0.049523	120.000000	nontarget	15.000000	na
103.750382	0.050191	120.000000	nontarget	16.000000	na
103.800574	0.050272	121.000000	nontarget	1.000000	na
103.850846	0.050149	121.000000	nontarget	2.000000	na
103.900995	0.050110	121.000000	nontarget	3.000000	na
103.951105	0.049548	121.000000	nontarget	4.000000	na
104.000653	0.049588	121.000000	nontarget	5.000000	na
104.050242	0.050604	121.000000	nontarget	6.000000	na
104.100845	0.049911	121.000000	nontarget	7.000000	104.131401
104.150756	0.050085	121.000000	nontarget	8.000000	na
104.200841	0.050012	121.000000	nontarget	9.000000	na
104.250853	0.049364	121.000000	nontarget	10.000000	na
104.300217	0.050274	121.000000	nontarget	11.000000	na
