onset	duration	trial_number	trial_type	frame_number	time_of_response
8.047877	0.043514	1.000000	nontarget	1.000000	na
8.091391	0.040465	1.000000	nontarget	2.000000	na
8.131856	0.042893	1.000000	nontarget	3.000000	na
8.174749	0.050312	1.000000	nontarget	4.000000	na
8.225061	0.039404	1.000000	nontarget	5.000000	na
8.264466	0.044129	1.000000	nontarget	6.000000	na
8.308595	0.039921	1.000000	nontarget	7.000000	na
8.348516	0.043630	1.000000	nontarget	8.000000	na
8.392146	0.049316	1.000000	nontarget	9.000000	8.415970
8.441462	0.050339	1.000000	nontarget	10.000000	na
8.491801	0.049727	1.000000	nontarget	11.000000	na
8.541528	0.039528	1.000000	nontarget	12.000000	na
8.581056	0.043964	1.000000	nontarget	13.000000	na
8.625019	0.039167	1.000000	nontarget	14.000000	na
8.664187	0.044217	1.000000	nontarget	15.000000	8.669400
8.708404	0.039544	1.000000	nontarget	16.000000	na
8.747948	0.044083	2.000000	nontarget	1.000000	na
8.792030	0.039133	2.000000	nontarget	2.000000	na
8.831163	0.043709	2.000000	nontarget	3.000000	na
8.874872	0.040237	2.000000	nontarget	4.000000	na
8.915108	0.043078	2.000000	nontarget	5.000000	na
8.958186	0.041402	2.000000	nontarget	6.000000	na
8.999588	0.042211	2.000000	nontarget	7.000000	na
9.041799	0.039772	2.000000	nontarget	8.000000	na
9.081572	0.043530	2.000000	nontarget	9.000000	na
9.125101	0.049163	2.000000	nontarget	10.000000	na
9.174264	0.041095	2.000000	nontarget	11.000000	na
9.215359	0.042210	2.000000	nontarget	12.000000	na
9.257569	0.040471	2.000000	nontarget	13.000000	na
9.298040	0.043777	2.000000	nontarget	14.000000	na
9.341817	0.050084	2.000000	nontarget	15.000000	na
9.391901	0.039299	2.000000	nontarget	16.000000	na
9.431200	0.044209	3.000000	nontarget	1.000000	na
9.475409	0.049706	3.000000	nontarget	2.000000	9.510864
9.525115	0.040242	3.000000	nontarget	3.000000	na
9.565357	0.042233	3.000000	nontarget	4.000000	na
9.607590	0.040973	3.000000	nontarget	5.000000	na
9.648563	0.042450	3.000000	nontarget	6.000000	na
9.691014	0.040223	3.000000	nontarget	7.000000	na
9.731237	0.043267	3.000000	nontarget	8.000000	na
9.774503	0.039655	3.000000	nontarget	9.000000	na
9.814159	0.044475	3.000000	nontarget	10.000000	na
9.858633	0.039932	3.000000	nontarget	11.000000	na
9.898566	0.042880	3.000000	nontarget	12.000000	na
9.941446	0.039768	3.000000	nontarget	13.000000	na
9.981214	0.043074	3.000000	nontarget	14.000000	10.010734
10.024288	0.040097	3.000000	nontarget	15.000000	na
10.064384	0.043480	3.000000	nontarget	16.000000	na
10.107865	0.040267	4.000000	nontarget	1.000000	10.114362
10.148132	0.043064	4.000000	nontarget	2.000000	na
10.191195	0.040398	4.000000	nontarget	3.000000	na
10.231594	0.043272	4.000000	nontarget	4.000000	na
10.274866	0.040088	4.000000	nontarget	5.000000	na
10.314954	0.043115	4.000000	nontarget	6.000000	na
10.358069	0.039445	4.000000	nontarget	7.000000	na
10.397514	0.044145	4.000000	nontarget	8.000000	na
10.441659	0.050215	4.000000	nontarget	9.000000	na
10.491875	0.049085	4.000000	nontarget	10.000000	na
10.540960	0.040636	4.000000	nontarget	11.000000	10.572957
10.581596	0.043489	4.000000	nontarget	12.000000	na
10.625084	0.039953	4.000000	nontarget	13.000000	na
10.665038	0.043299	4.000000	nontarget	14.000000	na
10.708337	0.039466	4.000000	nontarget	15.000000	na
10.747802	0.043521	4.000000	nontarget	16.000000	na
10.791324	0.039991	5.000000	nontarget	1.000000	na
10.831315	0.043567	5.000000	nontarget	2.000000	na
10.874882	0.049569	5.000000	nontarget	3.000000	na
10.924451	0.040517	5.000000	nontarget	4.000000	na
10.964967	0.042292	5.000000	nontarget	5.000000	na
11.007260	0.041014	5.000000	nontarget	6.000000	na
11.048274	0.042643	5.000000	nontarget	7.000000	na
11.090918	0.040674	5.000000	nontarget	8.000000	na
11.131592	0.042527	5.000000	nontarget	9.000000	na
11.174119	0.041008	5.000000	nontarget	10.000000	na
11.215127	0.042995	5.000000	nontarget	11.000000	11.247026
11.258122	0.050363	5.000000	nontarget	12.000000	na
11.308484	0.049979	5.000000	nontarget	13.000000	na
11.358464	0.049726	5.000000	nontarget	14.000000	na
11.408189	0.039214	5.000000	nontarget	15.000000	na
11.447404	0.044417	5.000000	nontarget	16.000000	na
11.491820	0.039746	6.000000	nontarget	1.000000	na
11.531566	0.043008	6.000000	nontarget	2.000000	na
11.574574	0.040097	6.000000	nontarget	3.000000	na
11.614671	0.043085	6.000000	nontarget	4.000000	na
11.657756	0.039632	6.000000	nontarget	5.000000	na
11.697388	0.044254	6.000000	nontarget	6.000000	na
11.741642	0.039712	6.000000	nontarget	7.000000	na
11.781354	0.042804	6.000000	nontarget	8.000000	na
11.824158	0.039918	6.000000	nontarget	9.000000	na
11.864076	0.043552	6.000000	nontarget	10.000000	na
11.907628	0.040439	6.000000	nontarget	11.000000	na
11.948067	0.042587	6.000000	nontarget	12.000000	na
11.990655	0.041291	6.000000	nontarget	13.000000	na
12.031945	0.043233	6.000000	nontarget	14.000000	na
12.075178	0.049800	6.000000	nontarget	15.000000	12.104131
12.124979	0.049924	6.000000	nontarget	16.000000	na
12.174902	0.039581	7.000000	nontarget	1.000000	12.181394
12.214483	0.043542	7.000000	nontarget	2.000000	na
12.258026	0.040307	7.000000	nontarget	3.000000	na
12.298332	0.043098	7.000000	nontarget	4.000000	na
12.341431	0.039890	7.000000	nontarget	5.000000	na
12.381321	0.042637	7.000000	nontarget	6.000000	na
12.423958	0.040935	7.000000	nontarget	7.000000	na
12.464892	0.042617	7.000000	nontarget	8.000000	na
12.507509	0.040923	7.000000	nontarget	9.000000	na
12.548433	0.042620	7.000000	nontarget	10.000000	na
12.591053	0.040573	7.000000	nontarget	11.000000	na
12.631626	0.042398	7.000000	nontarget	12.000000	na
12.674024	0.040789	7.000000	nontarget	13.000000	na
12.714813	0.043150	7.000000	nontarget	14.000000	na
12.757963	0.050536	7.000000	nontarget	15.000000	12.795014
12.808498	0.038816	7.000000	nontarget	16.000000	na
12.847314	0.043688	8.000000	nontarget	1.000000	12.852211
12.891002	0.040286	8.000000	nontarget	2.000000	na
12.931289	0.043488	8.000000	nontarget	3.000000	na
12.974777	0.050100	8.000000	nontarget	4.000000	na
13.024877	0.039507	8.000000	nontarget	5.000000	na
13.064384	0.043045	8.000000	nontarget	6.000000	na
13.107429	0.040525	8.000000	nontarget	7.000000	na
13.147955	0.043317	8.000000	nontarget	8.000000	na
13.191271	0.049548	8.000000	nontarget	9.000000	na
13.240819	0.040216	8.000000	nontarget	10.000000	na
13.281035	0.043771	8.000000	nontarget	11.000000	na
13.324806	0.040179	8.000000	nontarget	12.000000	na
13.364985	0.042263	8.000000	nontarget	13.000000	na
13.407248	0.040964	8.000000	nontarget	14.000000	na
13.448213	0.043198	8.000000	nontarget	15.000000	na
13.491411	0.040207	8.000000	nontarget	16.000000	na
13.531618	0.042535	9.000000	target	1.000000	na
13.574154	0.040149	9.000000	target	2.000000	na
13.614302	0.043536	9.000000	target	3.000000	13.621552
13.657838	0.040460	9.000000	target	4.000000	na
13.698298	0.042737	9.000000	target	5.000000	na
13.741035	0.039633	9.000000	target	6.000000	na
13.780669	0.044160	9.000000	target	7.000000	na
13.824829	0.039791	9.000000	target	8.000000	na
13.864621	0.043638	9.000000	target	9.000000	na
13.908259	0.039132	9.000000	target	10.000000	na
13.947391	0.043547	9.000000	target	11.000000	na
13.990938	0.050456	9.000000	target	12.000000	na
14.041394	0.050196	9.000000	target	13.000000	na
14.091590	0.040299	9.000000	target	14.000000	na
14.131889	0.042688	9.000000	target	15.000000	na
14.174577	0.049687	9.000000	target	16.000000	na
14.224264	0.041002	10.000000	nontarget	1.000000	14.251120
14.265266	0.042633	10.000000	nontarget	2.000000	na
14.307899	0.039603	10.000000	nontarget	3.000000	na
14.347502	0.042909	10.000000	nontarget	4.000000	na
14.390411	0.040980	10.000000	nontarget	5.000000	na
14.431391	0.043676	10.000000	nontarget	6.000000	na
14.475067	0.039259	10.000000	nontarget	7.000000	na
14.514326	0.042842	10.000000	nontarget	8.000000	na
14.557168	0.041043	10.000000	nontarget	9.000000	na
14.598211	0.042779	10.000000	nontarget	10.000000	na
14.640989	0.039623	10.000000	nontarget	11.000000	na
14.680612	0.044317	10.000000	nontarget	12.000000	na
14.724929	0.040150	10.000000	nontarget	13.000000	na
14.765079	0.043153	10.000000	nontarget	14.000000	na
14.808232	0.040316	10.000000	nontarget	15.000000	na
14.848548	0.042198	10.000000	nontarget	16.000000	14.880184
14.890746	0.040918	11.000000	nontarget	1.000000	14.897310
14.931664	0.043206	11.000000	nontarget	2.000000	na
14.974870	0.049803	11.000000	nontarget	3.000000	na
15.024673	0.049410	11.000000	nontarget	4.000000	na
15.074082	0.039986	11.000000	nontarget	5.000000	na
15.114068	0.044291	11.000000	nontarget	6.000000	na
15.158359	0.039632	11.000000	nontarget	7.000000	na
15.197991	0.043311	11.000000	nontarget	8.000000	na
15.241301	0.039987	11.000000	nontarget	9.000000	na
15.281288	0.042446	11.000000	nontarget	10.000000	na
15.323735	0.040412	11.000000	nontarget	11.000000	na
15.364147	0.044214	11.000000	nontarget	12.000000	na
15.408361	0.040113	11.000000	nontarget	13.000000	na
15.448474	0.043122	11.000000	nontarget	14.000000	na
15.491596	0.049154	11.000000	nontarget	15.000000	na
15.540750	0.040756	11.000000	nontarget	16.000000	na
15.581506	0.042950	12.000000	nontarget	1.000000	na
15.624456	0.040785	12.000000	nontarget	2.000000	15.646915
15.665241	0.042563	12.000000	nontarget	3.000000	na
15.707804	0.039671	12.000000	nontarget	4.000000	na
15.747475	0.043029	12.000000	nontarget	5.000000	na
15.790505	0.040367	12.000000	nontarget	6.000000	na
15.830871	0.043381	12.000000	nontarget	7.000000	na
15.874253	0.040653	12.000000	nontarget	8.000000	na
15.914906	0.042773	12.000000	nontarget	9.000000	na
15.957679	0.041574	12.000000	nontarget	10.000000	na
15.999253	0.041768	12.000000	nontarget	11.000000	na
16.041021	0.049845	12.000000	nontarget	12.000000	na
16.090867	0.040460	12.000000	nontarget	13.000000	na
16.131327	0.043007	12.000000	nontarget	14.000000	na
16.174334	0.040275	12.000000	nontarget	15.000000	na
16.214608	0.043580	12.000000	nontarget	16.000000	na
16.258188	0.040019	13.000000	target	1.000000	na
16.298207	0.042869	13.000000	target	2.000000	na
16.341076	0.040535	13.000000	target	3.000000	na
16.381611	0.043071	13.000000	target	4.000000	na
16.424681	0.039675	13.000000	target	5.000000	na
16.464356	0.043068	13.000000	target	6.000000	na
16.507424	0.040755	13.000000	target	7.000000	na
16.548179	0.042176	13.000000	target	8.000000	na
16.590355	0.041344	13.000000	target	9.000000	na
16.631698	0.042439	13.000000	target	10.000000	na
16.674138	0.040907	13.000000	target	11.000000	na
16.715045	0.042752	13.000000	target	12.000000	na
16.757797	0.039632	13.000000	target	13.000000	na
16.797429	0.043207	13.000000	target	14.000000	na
16.840636	0.041051	13.000000	target	15.000000	16.855620
16.881686	0.042981	13.000000	target	16.000000	na
16.924667	0.040154	14.000000	nontarget	1.000000	16.929867
16.964821	0.042488	14.000000	nontarget	2.000000	na
17.007308	0.040283	14.000000	nontarget	3.000000	na
17.047591	0.043629	14.000000	nontarget	4.000000	na
17.091221	0.039751	14.000000	nontarget	5.000000	na
17.130972	0.043576	14.000000	nontarget	6.000000	na
17.174548	0.040460	14.000000	nontarget	7.000000	na
17.215008	0.041923	14.000000	nontarget	8.000000	na
17.256931	0.041499	14.000000	nontarget	9.000000	na
17.298430	0.042320	14.000000	nontarget	10.000000	na
17.340750	0.040270	14.000000	nontarget	11.000000	na
17.381020	0.043429	14.000000	nontarget	12.000000	na
17.424449	0.039657	14.000000	nontarget	13.000000	na
17.464107	0.043553	14.000000	nontarget	14.000000	na
17.507660	0.040584	14.000000	nontarget	15.000000	na
17.548244	0.042354	14.000000	nontarget	16.000000	na
17.590598	0.040246	15.000000	nontarget	1.000000	17.603060
17.630844	0.042990	15.000000	nontarget	2.000000	na
17.673834	0.040650	15.000000	nontarget	3.000000	na
17.714484	0.042984	15.000000	nontarget	4.000000	na
17.757468	0.040908	15.000000	nontarget	5.000000	na
17.798375	0.042908	15.000000	nontarget	6.000000	na
17.841284	0.040211	15.000000	nontarget	7.000000	na
17.881495	0.042041	15.000000	nontarget	8.000000	na
17.923535	0.041632	15.000000	nontarget	9.000000	na
17.965167	0.041665	15.000000	nontarget	10.000000	na
18.006832	0.040623	15.000000	nontarget	11.000000	na
18.047455	0.043362	15.000000	nontarget	12.000000	na
18.090817	0.040064	15.000000	nontarget	13.000000	na
18.130880	0.043071	15.000000	nontarget	14.000000	na
18.173951	0.040257	15.000000	nontarget	15.000000	na
18.214208	0.042706	15.000000	nontarget	16.000000	na
18.256914	0.040638	16.000000	nontarget	1.000000	na
18.297552	0.043538	16.000000	nontarget	2.000000	18.304677
18.341090	0.040479	16.000000	nontarget	3.000000	na
18.381569	0.042786	16.000000	nontarget	4.000000	na
18.424356	0.049737	16.000000	nontarget	5.000000	na
18.474093	0.041093	16.000000	nontarget	6.000000	na
18.515186	0.042059	16.000000	nontarget	7.000000	na
18.557245	0.040163	16.000000	nontarget	8.000000	na
18.597408	0.042909	16.000000	nontarget	9.000000	na
18.640317	0.040987	16.000000	nontarget	10.000000	na
18.681304	0.043386	16.000000	nontarget	11.000000	na
18.724689	0.039941	16.000000	nontarget	12.000000	na
18.764631	0.043187	16.000000	nontarget	13.000000	na
18.807818	0.040399	16.000000	nontarget	14.000000	na
18.848217	0.042491	16.000000	nontarget	15.000000	na
18.890708	0.040743	16.000000	nontarget	16.000000	na
18.931452	0.042171	17.000000	nontarget	1.000000	na
18.973622	0.040671	17.000000	nontarget	2.000000	na
19.014293	0.043173	17.000000	nontarget	3.000000	na
19.057466	0.040042	17.000000	nontarget	4.000000	19.068652
19.097509	0.042918	17.000000	nontarget	5.000000	na
19.140427	0.041150	17.000000	nontarget	6.000000	na
19.181577	0.041862	17.000000	nontarget	7.000000	na
19.223439	0.041038	17.000000	nontarget	8.000000	na
19.264477	0.043377	17.000000	nontarget	9.000000	na
19.307854	0.048992	17.000000	nontarget	10.000000	na
19.356846	0.041266	17.000000	nontarget	11.000000	na
19.398112	0.042096	17.000000	nontarget	12.000000	na
19.440208	0.041360	17.000000	nontarget	13.000000	na
19.481568	0.042637	17.000000	nontarget	14.000000	na
19.524206	0.040017	17.000000	nontarget	15.000000	na
19.564223	0.043211	17.000000	nontarget	16.000000	na
19.607434	0.039873	18.000000	nontarget	1.000000	na
19.647307	0.043743	18.000000	nontarget	2.000000	na
19.691049	0.040359	18.000000	nontarget	3.000000	na
19.731408	0.042480	18.000000	nontarget	4.000000	na
19.773888	0.040154	18.000000	nontarget	5.000000	19.792927
19.814042	0.042883	18.000000	nontarget	6.000000	na
19.856926	0.040400	18.000000	nontarget	7.000000	na
19.897326	0.043711	18.000000	nontarget	8.000000	na
19.941036	0.040076	18.000000	nontarget	9.000000	na
19.981113	0.043108	18.000000	nontarget	10.000000	na
20.024221	0.039816	18.000000	nontarget	11.000000	na
20.064037	0.043299	18.000000	nontarget	12.000000	na
20.107336	0.039869	18.000000	nontarget	13.000000	na
20.147205	0.043024	18.000000	nontarget	14.000000	na
20.190229	0.040336	18.000000	nontarget	15.000000	na
20.230565	0.043611	18.000000	nontarget	16.000000	na
20.274177	0.049445	19.000000	nontarget	1.000000	na
20.323622	0.040447	19.000000	nontarget	2.000000	na
20.364069	0.043343	19.000000	nontarget	3.000000	na
20.407412	0.040234	19.000000	nontarget	4.000000	na
20.447646	0.043025	19.000000	nontarget	5.000000	na
20.490672	0.040003	19.000000	nontarget	6.000000	na
20.530674	0.042766	19.000000	nontarget	7.000000	na
20.573441	0.040656	19.000000	nontarget	8.000000	20.592488
20.614096	0.043572	19.000000	nontarget	9.000000	na
20.657669	0.039542	19.000000	nontarget	10.000000	na
20.697210	0.043652	19.000000	nontarget	11.000000	na
20.740863	0.040441	19.000000	nontarget	12.000000	na
20.781304	0.042200	19.000000	nontarget	13.000000	na
20.823504	0.040454	19.000000	nontarget	14.000000	na
20.863958	0.043364	19.000000	nontarget	15.000000	na
20.907322	0.040768	19.000000	nontarget	16.000000	na
20.948090	0.042336	20.000000	nontarget	1.000000	na
20.990426	0.041377	20.000000	nontarget	2.000000	na
21.031802	0.042134	20.000000	nontarget	3.000000	na
21.073936	0.040474	20.000000	nontarget	4.000000	21.097196
21.114410	0.043165	20.000000	nontarget	5.000000	na
21.157575	0.040776	20.000000	nontarget	6.000000	na
21.198351	0.042125	20.000000	nontarget	7.000000	na
21.240476	0.041431	20.000000	nontarget	8.000000	na
21.281908	0.042053	20.000000	nontarget	9.000000	na
21.323961	0.040202	20.000000	nontarget	10.000000	na
21.364162	0.042648	20.000000	nontarget	11.000000	na
21.406810	0.040827	20.000000	nontarget	12.000000	na
21.447637	0.042491	20.000000	nontarget	13.000000	na
21.490128	0.041721	20.000000	nontarget	14.000000	na
21.531849	0.041677	20.000000	nontarget	15.000000	na
21.573526	0.041068	20.000000	nontarget	16.000000	na
21.614593	0.042533	21.000000	nontarget	1.000000	na
21.657126	0.041263	21.000000	nontarget	2.000000	na
21.698389	0.041783	21.000000	nontarget	3.000000	21.705608
21.740172	0.040798	21.000000	nontarget	4.000000	na
21.780970	0.042659	21.000000	nontarget	5.000000	na
21.823629	0.040706	21.000000	nontarget	6.000000	na
21.864335	0.042831	21.000000	nontarget	7.000000	na
21.907166	0.041413	21.000000	nontarget	8.000000	na
21.948579	0.041712	21.000000	nontarget	9.000000	na
21.990291	0.040688	21.000000	nontarget	10.000000	na
22.030979	0.043186	21.000000	nontarget	11.000000	na
22.074165	0.039955	21.000000	nontarget	12.000000	na
22.114120	0.042722	21.000000	nontarget	13.000000	na
22.156842	0.040766	21.000000	nontarget	14.000000	na
22.197608	0.042667	21.000000	nontarget	15.000000	na
22.240275	0.041593	21.000000	nontarget	16.000000	na
22.281869	0.042480	22.000000	nontarget	1.000000	na
22.324348	0.040524	22.000000	nontarget	2.000000	22.354678
22.364873	0.042638	22.000000	nontarget	3.000000	na
22.407511	0.040352	22.000000	nontarget	4.000000	na
22.447863	0.041999	22.000000	nontarget	5.000000	na
22.489862	0.041594	22.000000	nontarget	6.000000	na
22.531456	0.041724	22.000000	nontarget	7.000000	na
22.573179	0.041038	22.000000	nontarget	8.000000	na
22.614217	0.042231	22.000000	nontarget	9.000000	na
22.656448	0.041759	22.000000	nontarget	10.000000	na
22.698207	0.041722	22.000000	nontarget	11.000000	na
22.739929	0.040956	22.000000	nontarget	12.000000	na
22.780885	0.043152	22.000000	nontarget	13.000000	na
22.824037	0.040183	22.000000	nontarget	14.000000	na
22.864221	0.043296	22.000000	nontarget	15.000000	na
22.907516	0.040708	22.000000	nontarget	16.000000	na
22.948224	0.041683	23.000000	nontarget	1.000000	na
22.989907	0.040928	23.000000	nontarget	2.000000	na
23.030835	0.042130	23.000000	nontarget	3.000000	na
23.072966	0.041469	23.000000	nontarget	4.000000	23.080407
23.114435	0.042217	23.000000	nontarget	5.000000	na
23.156652	0.041444	23.000000	nontarget	6.000000	na
23.198096	0.042123	23.000000	nontarget	7.000000	na
23.240219	0.041251	23.000000	nontarget	8.000000	na
23.281469	0.042582	23.000000	nontarget	9.000000	na
23.324051	0.041130	23.000000	nontarget	10.000000	na
23.365181	0.042257	23.000000	nontarget	11.000000	na
23.407438	0.040157	23.000000	nontarget	12.000000	na
23.447595	0.043041	23.000000	nontarget	13.000000	na
23.490635	0.040376	23.000000	nontarget	14.000000	na
23.531012	0.042470	23.000000	nontarget	15.000000	na
23.573481	0.041365	23.000000	nontarget	16.000000	na
23.614846	0.041813	24.000000	target	1.000000	na
23.656658	0.041424	24.000000	target	2.000000	na
23.698082	0.042711	24.000000	target	3.000000	na
23.740793	0.040685	24.000000	target	4.000000	na
23.781479	0.042257	24.000000	target	5.000000	na
23.823736	0.041508	24.000000	target	6.000000	na
23.865244	0.042177	24.000000	target	7.000000	na
23.907421	0.040894	24.000000	target	8.000000	na
23.948315	0.042087	24.000000	target	9.000000	na
23.990402	0.041066	24.000000	target	10.000000	na
24.031467	0.042644	24.000000	target	11.000000	na
24.074111	0.050008	24.000000	target	12.000000	na
24.124119	0.041028	24.000000	target	13.000000	na
24.165147	0.041395	24.000000	target	14.000000	na
24.206542	0.041181	24.000000	target	15.000000	na
24.247723	0.042671	24.000000	target	16.000000	na
24.290394	0.041043	25.000000	nontarget	1.000000	na
24.331437	0.041590	25.000000	nontarget	2.000000	24.337882
24.373027	0.042243	25.000000	nontarget	3.000000	na
24.415270	0.042109	25.000000	nontarget	4.000000	na
24.457379	0.040061	25.000000	nontarget	5.000000	na
24.497440	0.042833	25.000000	nontarget	6.000000	na
24.540273	0.041499	25.000000	nontarget	7.000000	na
24.581771	0.042098	25.000000	nontarget	8.000000	na
24.623869	0.040834	25.000000	nontarget	9.000000	na
24.664703	0.042530	25.000000	nontarget	10.000000	na
24.707232	0.040911	25.000000	nontarget	11.000000	na
24.748144	0.042335	25.000000	nontarget	12.000000	na
24.790478	0.041088	25.000000	nontarget	13.000000	na
24.831566	0.042048	25.000000	nontarget	14.000000	na
24.873614	0.041394	25.000000	nontarget	15.000000	na
24.915008	0.042068	25.000000	nontarget	16.000000	na
24.957076	0.043000	26.000000	target	1.000000	na
25.000076	0.048412	26.000000	target	2.000000	na
25.048488	0.041232	26.000000	target	3.000000	na
25.089721	0.041129	26.000000	target	4.000000	na
25.130849	0.043025	26.000000	target	5.000000	na
25.173875	0.040332	26.000000	target	6.000000	na
25.214206	0.042855	26.000000	target	7.000000	na
25.257061	0.041419	26.000000	target	8.000000	na
25.298480	0.042249	26.000000	target	9.000000	na
25.340729	0.040443	26.000000	target	10.000000	na
25.381172	0.042676	26.000000	target	11.000000	na
25.423848	0.040274	26.000000	target	12.000000	na
25.464122	0.042413	26.000000	target	13.000000	na
25.506535	0.042006	26.000000	target	14.000000	na
25.548541	0.041159	26.000000	target	15.000000	na
25.589700	0.041766	26.000000	target	16.000000	na
25.631467	0.041637	27.000000	nontarget	1.000000	25.641788
25.673103	0.041329	27.000000	nontarget	2.000000	na
25.714432	0.042751	27.000000	nontarget	3.000000	na
25.757184	0.040819	27.000000	nontarget	4.000000	na
25.798003	0.042345	27.000000	nontarget	5.000000	na
25.840349	0.041113	27.000000	nontarget	6.000000	na
25.881462	0.042129	27.000000	nontarget	7.000000	na
25.923591	0.040623	27.000000	nontarget	8.000000	na
25.964214	0.042615	27.000000	nontarget	9.000000	na
26.006828	0.041745	27.000000	nontarget	10.000000	na
26.048573	0.042298	27.000000	nontarget	11.000000	na
26.090872	0.041057	27.000000	nontarget	12.000000	na
26.131928	0.041875	27.000000	nontarget	13.000000	na
26.173803	0.040679	27.000000	nontarget	14.000000	na
26.214482	0.042773	27.000000	nontarget	15.000000	na
26.257255	0.040383	27.000000	nontarget	16.000000	na
26.297638	0.042050	28.000000	nontarget	1.000000	na
26.339688	0.041731	28.000000	nontarget	2.000000	na
26.381419	0.042553	28.000000	nontarget	3.000000	26.410629
26.423972	0.041075	28.000000	nontarget	4.000000	na
26.465046	0.041917	28.000000	nontarget	5.000000	na
26.506964	0.041050	28.000000	nontarget	6.000000	na
26.548014	0.041620	28.000000	nontarget	7.000000	na
26.589633	0.041707	28.000000	nontarget	8.000000	na
26.631340	0.041657	28.000000	nontarget	9.000000	na
26.672997	0.040884	28.000000	nontarget	10.000000	na
26.713882	0.042325	28.000000	nontarget	11.000000	na
26.756206	0.041141	28.000000	nontarget	12.000000	na
26.797348	0.043397	28.000000	nontarget	13.000000	na
26.840745	0.040422	28.000000	nontarget	14.000000	na
26.881167	0.042062	28.000000	nontarget	15.000000	na
26.923229	0.041577	28.000000	nontarget	16.000000	na
26.964806	0.042057	29.000000	nontarget	1.000000	na
27.006863	0.040649	29.000000	nontarget	2.000000	na
27.047512	0.042061	29.000000	nontarget	3.000000	na
27.089573	0.041820	29.000000	nontarget	4.000000	na
27.131393	0.042589	29.000000	nontarget	5.000000	27.150425
27.173982	0.040054	29.000000	nontarget	6.000000	na
27.214036	0.042140	29.000000	nontarget	7.000000	na
27.256176	0.041280	29.000000	nontarget	8.000000	na
27.297456	0.042860	29.000000	nontarget	9.000000	na
27.340316	0.040837	29.000000	nontarget	10.000000	na
27.381153	0.042003	29.000000	nontarget	11.000000	na
27.423156	0.041516	29.000000	nontarget	12.000000	na
27.464672	0.041468	29.000000	nontarget	13.000000	na
27.506140	0.041869	29.000000	nontarget	14.000000	na
27.548008	0.042594	29.000000	nontarget	15.000000	na
27.590602	0.040411	29.000000	nontarget	16.000000	na
27.631013	0.041988	30.000000	nontarget	1.000000	na
27.673001	0.042178	30.000000	nontarget	2.000000	na
27.715180	0.041868	30.000000	nontarget	3.000000	na
27.757048	0.040958	30.000000	nontarget	4.000000	27.787019
27.798006	0.042040	30.000000	nontarget	5.000000	na
27.840046	0.041590	30.000000	nontarget	6.000000	na
27.881636	0.042192	30.000000	nontarget	7.000000	na
27.923827	0.041196	30.000000	nontarget	8.000000	na
27.965023	0.041743	30.000000	nontarget	9.000000	na
28.006767	0.041299	30.000000	nontarget	10.000000	na
28.048066	0.042005	30.000000	nontarget	11.000000	na
28.090071	0.040842	30.000000	nontarget	12.000000	na
28.130913	0.042046	30.000000	nontarget	13.000000	na
28.172959	0.041833	30.000000	nontarget	14.000000	na
28.214791	0.042044	30.000000	nontarget	15.000000	na
28.256835	0.040468	30.000000	nontarget	16.000000	na
28.297303	0.043426	31.000000	nontarget	1.000000	na
28.340729	0.040577	31.000000	nontarget	2.000000	28.367883
28.381306	0.041796	31.000000	nontarget	3.000000	na
28.423102	0.040785	31.000000	nontarget	4.000000	na
28.463887	0.042157	31.000000	nontarget	5.000000	na
28.506044	0.041992	31.000000	nontarget	6.000000	na
28.548036	0.042494	31.000000	nontarget	7.000000	na
28.590530	0.040004	31.000000	nontarget	8.000000	na
28.630535	0.042454	31.000000	nontarget	9.000000	na
28.672989	0.041791	31.000000	nontarget	10.000000	na
28.714779	0.041981	31.000000	nontarget	11.000000	na
28.756760	0.041339	31.000000	nontarget	12.000000	na
28.798099	0.041470	31.000000	nontarget	13.000000	na
28.839569	0.041857	31.000000	nontarget	14.000000	na
28.881427	0.041533	31.000000	nontarget	15.000000	na
28.922960	0.041887	31.000000	nontarget	16.000000	na
28.964847	0.042372	32.000000	nontarget	1.000000	na
29.007219	0.040604	32.000000	nontarget	2.000000	na
29.047822	0.042240	32.000000	nontarget	3.000000	na
29.090062	0.040852	32.000000	nontarget	4.000000	na
29.130914	0.042458	32.000000	nontarget	5.000000	na
29.173373	0.041357	32.000000	nontarget	6.000000	29.188506
29.214730	0.041826	32.000000	nontarget	7.000000	na
29.256556	0.040827	32.000000	nontarget	8.000000	na
29.297383	0.042655	32.000000	nontarget	9.000000	na
29.340039	0.040819	32.000000	nontarget	10.000000	na
29.380858	0.042743	32.000000	nontarget	11.000000	na
29.423601	0.040292	32.000000	nontarget	12.000000	na
29.463892	0.043166	32.000000	nontarget	13.000000	na
29.507058	0.040626	32.000000	nontarget	14.000000	na
29.547684	0.042384	32.000000	nontarget	15.000000	na
29.590068	0.041256	32.000000	nontarget	16.000000	na
29.631324	0.041877	33.000000	nontarget	1.000000	na
29.673202	0.041318	33.000000	nontarget	2.000000	na
29.714520	0.042397	33.000000	nontarget	3.000000	na
29.756917	0.040633	33.000000	nontarget	4.000000	na
29.797551	0.041824	33.000000	nontarget	5.000000	na
29.839375	0.041974	33.000000	nontarget	6.000000	na
29.881349	0.041465	33.000000	nontarget	7.000000	na
29.922814	0.041317	33.000000	nontarget	8.000000	29.934477
29.964131	0.042908	33.000000	nontarget	9.000000	na
30.007039	0.040880	33.000000	nontarget	10.000000	na
30.047920	0.042551	33.000000	nontarget	11.000000	na
30.090471	0.040955	33.000000	nontarget	12.000000	na
30.131426	0.041742	33.000000	nontarget	13.000000	na
30.173168	0.041786	33.000000	nontarget	14.000000	na
30.214954	0.042104	33.000000	nontarget	15.000000	na
30.257058	0.040067	33.000000	nontarget	16.000000	na
30.297125	0.043274	34.000000	nontarget	1.000000	na
30.340399	0.040900	34.000000	nontarget	2.000000	na
30.381299	0.042131	34.000000	nontarget	3.000000	na
30.423430	0.041280	34.000000	nontarget	4.000000	na
30.464710	0.041550	34.000000	nontarget	5.000000	na
30.506260	0.041816	34.000000	nontarget	6.000000	na
30.548076	0.041454	34.000000	nontarget	7.000000	na
30.589530	0.041384	34.000000	nontarget	8.000000	na
30.630914	0.042874	34.000000	nontarget	9.000000	na
30.673788	0.040873	34.000000	nontarget	10.000000	na
30.714661	0.042198	34.000000	nontarget	11.000000	na
30.756859	0.041446	34.000000	nontarget	12.000000	na
30.798305	0.041837	34.000000	nontarget	13.000000	30.803641
30.840142	0.041395	34.000000	nontarget	14.000000	na
30.881537	0.041773	34.000000	nontarget	15.000000	na
30.923309	0.041059	34.000000	nontarget	16.000000	na
30.964369	0.042856	35.000000	nontarget	1.000000	na
31.007224	0.040553	35.000000	nontarget	2.000000	na
31.047777	0.042385	35.000000	nontarget	3.000000	na
31.090162	0.040651	35.000000	nontarget	4.000000	na
31.130814	0.042149	35.000000	nontarget	5.000000	na
31.172963	0.041317	35.000000	nontarget	6.000000	na
31.214279	0.042257	35.000000	nontarget	7.000000	na
31.256536	0.041025	35.000000	nontarget	8.000000	na
31.297561	0.042707	35.000000	nontarget	9.000000	na
31.340267	0.040580	35.000000	nontarget	10.000000	na
31.380848	0.042005	35.000000	nontarget	11.000000	na
31.422853	0.050317	35.000000	nontarget	12.000000	na
31.473170	0.040730	35.000000	nontarget	13.000000	na
31.513899	0.043106	35.000000	nontarget	14.000000	31.531390
31.557005	0.040881	35.000000	nontarget	15.000000	na
31.597886	0.042074	35.000000	nontarget	16.000000	na
31.639960	0.041336	36.000000	nontarget	1.000000	31.645097
31.681296	0.041846	36.000000	nontarget	2.000000	na
31.723142	0.041524	36.000000	nontarget	3.000000	na
31.764666	0.042295	36.000000	nontarget	4.000000	na
31.806961	0.040461	36.000000	nontarget	5.000000	na
31.847422	0.043158	36.000000	nontarget	6.000000	na
31.890580	0.040799	36.000000	nontarget	7.000000	na
31.931379	0.042042	36.000000	nontarget	8.000000	na
31.973421	0.041331	36.000000	nontarget	9.000000	na
32.014752	0.041414	36.000000	nontarget	10.000000	na
32.056166	0.042081	36.000000	nontarget	11.000000	na
32.098246	0.041807	36.000000	nontarget	12.000000	na
32.140054	0.041127	36.000000	nontarget	13.000000	na
32.181181	0.041550	36.000000	nontarget	14.000000	na
32.222731	0.041869	36.000000	nontarget	15.000000	na
32.264600	0.041943	36.000000	nontarget	16.000000	na
32.306543	0.041385	37.000000	nontarget	1.000000	32.313972
32.347929	0.042761	37.000000	nontarget	2.000000	na
32.390689	0.040454	37.000000	nontarget	3.000000	na
32.431143	0.041926	37.000000	nontarget	4.000000	na
32.473069	0.041924	37.000000	nontarget	5.000000	na
32.514993	0.041741	37.000000	nontarget	6.000000	na
32.556734	0.040737	37.000000	nontarget	7.000000	na
32.597471	0.042003	37.000000	nontarget	8.000000	na
32.639474	0.041764	37.000000	nontarget	9.000000	na
32.681237	0.042117	37.000000	nontarget	10.000000	na
32.723354	0.040537	37.000000	nontarget	11.000000	na
32.763891	0.042862	37.000000	nontarget	12.000000	na
32.806754	0.040531	37.000000	nontarget	13.000000	na
32.847285	0.042766	37.000000	nontarget	14.000000	na
32.890051	0.041009	37.000000	nontarget	15.000000	na
32.931060	0.042858	37.000000	nontarget	16.000000	na
32.973918	0.040595	38.000000	nontarget	1.000000	na
33.014513	0.041784	38.000000	nontarget	2.000000	na
33.056297	0.040992	38.000000	nontarget	3.000000	na
33.097289	0.041907	38.000000	nontarget	4.000000	na
33.139196	0.041268	38.000000	nontarget	5.000000	na
33.180464	0.043271	38.000000	nontarget	6.000000	na
33.223735	0.040642	38.000000	nontarget	7.000000	na
33.264377	0.041564	38.000000	nontarget	8.000000	na
33.305941	0.042539	38.000000	nontarget	9.000000	na
33.348479	0.041851	38.000000	nontarget	10.000000	na
33.390330	0.041147	38.000000	nontarget	11.000000	na
33.431477	0.042193	38.000000	nontarget	12.000000	33.445621
33.473669	0.040358	38.000000	nontarget	13.000000	na
33.514028	0.042866	38.000000	nontarget	14.000000	na
33.556894	0.041123	38.000000	nontarget	15.000000	na
33.598017	0.041829	38.000000	nontarget	16.000000	na
33.639845	0.041583	39.000000	target	1.000000	na
33.681428	0.041533	39.000000	target	2.000000	na
33.722961	0.040711	39.000000	target	3.000000	na
33.763672	0.043069	39.000000	target	4.000000	na
33.806742	0.040526	39.000000	target	5.000000	na
33.847267	0.042926	39.000000	target	6.000000	na
33.890194	0.040880	39.000000	target	7.000000	na
33.931073	0.042428	39.000000	target	8.000000	na
33.973502	0.040800	39.000000	target	9.000000	na
34.014302	0.042451	39.000000	target	10.000000	na
34.056753	0.040589	39.000000	target	11.000000	na
34.097342	0.042113	39.000000	target	12.000000	na
34.139455	0.041900	39.000000	target	13.000000	na
34.181355	0.041102	39.000000	target	14.000000	34.208592
34.222457	0.042150	39.000000	target	15.000000	na
34.264607	0.041909	39.000000	target	16.000000	na
34.306516	0.041648	40.000000	nontarget	1.000000	34.311653
34.348164	0.042045	40.000000	nontarget	2.000000	na
34.390209	0.040615	40.000000	nontarget	3.000000	na
34.430824	0.042319	40.000000	nontarget	4.000000	na
34.473142	0.041036	40.000000	nontarget	5.000000	na
34.514178	0.042354	40.000000	nontarget	6.000000	na
34.556532	0.041433	40.000000	nontarget	7.000000	na
34.597965	0.041974	40.000000	nontarget	8.000000	na
34.639939	0.041633	40.000000	nontarget	9.000000	na
34.681572	0.041665	40.000000	nontarget	10.000000	na
34.723237	0.040711	40.000000	nontarget	11.000000	na
34.763948	0.041880	40.000000	nontarget	12.000000	34.780976
34.805828	0.041446	40.000000	nontarget	13.000000	na
34.847274	0.041785	40.000000	nontarget	14.000000	na
34.889059	0.041774	40.000000	nontarget	15.000000	na
34.930833	0.041896	40.000000	nontarget	16.000000	na
34.972729	0.040941	41.000000	target	1.000000	na
35.013670	0.043041	41.000000	target	2.000000	na
35.056711	0.040631	41.000000	target	3.000000	na
35.097343	0.042560	41.000000	target	4.000000	na
35.139903	0.040674	41.000000	target	5.000000	na
35.180576	0.043062	41.000000	target	6.000000	na
35.223638	0.041344	41.000000	target	7.000000	na
35.264982	0.042031	41.000000	target	8.000000	na
35.307013	0.041023	41.000000	target	9.000000	na
35.348037	0.041308	41.000000	target	10.000000	na
35.389345	0.041973	41.000000	target	11.000000	na
35.431318	0.042038	41.000000	target	12.000000	na
35.473356	0.040707	41.000000	target	13.000000	na
35.514063	0.042033	41.000000	target	14.000000	na
35.556096	0.041157	41.000000	target	15.000000	na
35.597252	0.043009	41.000000	target	16.000000	na
35.640262	0.041066	42.000000	target	1.000000	na
35.681328	0.042344	42.000000	target	2.000000	na
35.723672	0.040068	42.000000	target	3.000000	na
35.763739	0.042101	42.000000	target	4.000000	na
35.805840	0.042180	42.000000	target	5.000000	na
35.848020	0.041857	42.000000	target	6.000000	na
35.889877	0.041621	42.000000	target	7.000000	na
35.931498	0.040894	42.000000	target	8.000000	na
35.972392	0.042248	42.000000	target	9.000000	na
36.014640	0.041034	42.000000	target	10.000000	na
36.055674	0.050481	42.000000	target	11.000000	na
36.106155	0.041854	42.000000	target	12.000000	na
36.148009	0.041322	42.000000	target	13.000000	na
36.189331	0.042105	42.000000	target	14.000000	na
36.231436	0.041131	42.000000	target	15.000000	na
36.272567	0.041857	42.000000	target	16.000000	na
36.314425	0.042036	43.000000	nontarget	1.000000	na
36.356461	0.041592	43.000000	nontarget	2.000000	na
36.398052	0.041229	43.000000	nontarget	3.000000	na
36.439281	0.041144	43.000000	nontarget	4.000000	na
36.480425	0.042742	43.000000	nontarget	5.000000	36.501274
36.523167	0.041011	43.000000	nontarget	6.000000	na
36.564177	0.041836	43.000000	nontarget	7.000000	na
36.606014	0.042085	43.000000	nontarget	8.000000	na
36.648099	0.040735	43.000000	nontarget	9.000000	na
36.688835	0.042064	43.000000	nontarget	10.000000	na
36.730899	0.042212	43.000000	nontarget	11.000000	na
36.773111	0.041067	43.000000	nontarget	12.000000	na
36.814178	0.041828	43.000000	nontarget	13.000000	na
36.856006	0.042002	43.000000	nontarget	14.000000	na
36.898008	0.041679	43.000000	nontarget	15.000000	na
36.939687	0.041886	43.000000	nontarget	16.000000	na
36.981573	0.040756	44.000000	nontarget	1.000000	37.010141
37.022329	0.042578	44.000000	nontarget	2.000000	na
37.064907	0.041439	44.000000	nontarget	3.000000	na
37.106345	0.040811	44.000000	nontarget	4.000000	na
37.147156	0.042282	44.000000	nontarget	5.000000	na
37.189438	0.041253	44.000000	nontarget	6.000000	na
37.230690	0.041655	44.000000	nontarget	7.000000	na
37.272345	0.041868	44.000000	nontarget	8.000000	na
37.314213	0.042243	44.000000	nontarget	9.000000	na
37.356456	0.041820	44.000000	nontarget	10.000000	na
37.398276	0.041201	44.000000	nontarget	11.000000	na
37.439477	0.041064	44.000000	nontarget	12.000000	na
37.480540	0.041692	44.000000	nontarget	13.000000	na
37.522232	0.041841	44.000000	nontarget	14.000000	na
37.564074	0.042635	44.000000	nontarget	15.000000	na
37.606709	0.040413	44.000000	nontarget	16.000000	37.616994
37.647123	0.042656	45.000000	nontarget	1.000000	37.652382
37.689779	0.041248	45.000000	nontarget	2.000000	na
37.731027	0.041047	45.000000	nontarget	3.000000	na
37.772074	0.042595	45.000000	nontarget	4.000000	na
37.814668	0.041602	45.000000	nontarget	5.000000	na
37.856270	0.041698	45.000000	nontarget	6.000000	na
37.897969	0.041497	45.000000	nontarget	7.000000	na
37.939465	0.041824	45.000000	nontarget	8.000000	na
37.981290	0.041549	45.000000	nontarget	9.000000	na
38.022839	0.042136	45.000000	nontarget	10.000000	na
38.064974	0.041507	45.000000	nontarget	11.000000	na
38.106481	0.041261	45.000000	nontarget	12.000000	na
38.147742	0.041606	45.000000	nontarget	13.000000	na
38.189348	0.041334	45.000000	nontarget	14.000000	na
38.230682	0.042395	45.000000	nontarget	15.000000	na
38.273077	0.040958	45.000000	nontarget	16.000000	na
38.314035	0.042088	46.000000	nontarget	1.000000	38.326362
38.356123	0.041284	46.000000	nontarget	2.000000	na
38.397406	0.042425	46.000000	nontarget	3.000000	na
38.439831	0.041558	46.000000	nontarget	4.000000	na
38.481389	0.041061	46.000000	nontarget	5.000000	na
38.522450	0.042231	46.000000	nontarget	6.000000	na
38.564681	0.041850	46.000000	nontarget	7.000000	na
38.606532	0.040758	46.000000	nontarget	8.000000	na
38.647290	0.042175	46.000000	nontarget	9.000000	na
38.689465	0.041221	46.000000	nontarget	10.000000	na
38.730686	0.042145	46.000000	nontarget	11.000000	na
38.772831	0.042248	46.000000	nontarget	12.000000	na
38.815079	0.040531	46.000000	nontarget	13.000000	na
38.855610	0.041912	46.000000	nontarget	14.000000	na
38.897522	0.041842	46.000000	nontarget	15.000000	na
38.939363	0.040903	46.000000	nontarget	16.000000	na
38.980267	0.042616	47.000000	nontarget	1.000000	39.013991
39.022882	0.041222	47.000000	nontarget	2.000000	na
39.064105	0.042371	47.000000	nontarget	3.000000	na
39.106476	0.041472	47.000000	nontarget	4.000000	na
39.147948	0.041900	47.000000	nontarget	5.000000	na
39.189848	0.041313	47.000000	nontarget	6.000000	na
39.231160	0.040960	47.000000	nontarget	7.000000	na
39.272120	0.042571	47.000000	nontarget	8.000000	na
39.314691	0.041075	47.000000	nontarget	9.000000	na
39.355766	0.041698	47.000000	nontarget	10.000000	na
39.397464	0.041642	47.000000	nontarget	11.000000	na
39.439106	0.041824	47.000000	nontarget	12.000000	na
39.480930	0.041606	47.000000	nontarget	13.000000	na
39.522536	0.041858	47.000000	nontarget	14.000000	na
39.564394	0.041255	47.000000	nontarget	15.000000	na
39.605649	0.042409	47.000000	nontarget	16.000000	na
39.648057	0.041548	48.000000	nontarget	1.000000	na
39.689605	0.041517	48.000000	nontarget	2.000000	39.694945
39.731122	0.041075	48.000000	nontarget	3.000000	na
39.772197	0.041479	48.000000	nontarget	4.000000	na
39.813676	0.041687	48.000000	nontarget	5.000000	na
39.855363	0.041679	48.000000	nontarget	6.000000	na
39.897042	0.041840	48.000000	nontarget	7.000000	na
39.938882	0.042523	48.000000	nontarget	8.000000	na
39.981405	0.041509	48.000000	nontarget	9.000000	na
40.022915	0.041797	48.000000	nontarget	10.000000	na
40.064712	0.041361	48.000000	nontarget	11.000000	na
40.106072	0.041185	48.000000	nontarget	12.000000	na
40.147257	0.042050	48.000000	nontarget	13.000000	na
40.189307	0.041282	48.000000	nontarget	14.000000	na
40.230590	0.041668	48.000000	nontarget	15.000000	na
40.272258	0.041483	48.000000	nontarget	16.000000	na
40.313741	0.042029	49.000000	nontarget	1.000000	na
40.355770	0.042008	49.000000	nontarget	2.000000	na
40.397779	0.041648	49.000000	nontarget	3.000000	na
40.439426	0.041854	49.000000	nontarget	4.000000	na
40.481280	0.040864	49.000000	nontarget	5.000000	na
40.522144	0.042008	49.000000	nontarget	6.000000	40.543330
40.564153	0.042410	49.000000	nontarget	7.000000	na
40.606562	0.040649	49.000000	nontarget	8.000000	na
40.647211	0.041745	49.000000	nontarget	9.000000	na
40.688957	0.042462	49.000000	nontarget	10.000000	na
40.731418	0.040505	49.000000	nontarget	11.000000	na
40.771923	0.042689	49.000000	nontarget	12.000000	na
40.814612	0.041726	49.000000	nontarget	13.000000	na
40.856338	0.041594	49.000000	nontarget	14.000000	na
40.897932	0.041560	49.000000	nontarget	15.000000	na
40.939491	0.041842	49.000000	nontarget	16.000000	na
40.981333	0.040783	50.000000	nontarget	1.000000	na
41.022116	0.042649	50.000000	nontarget	2.000000	na
41.064765	0.040783	50.000000	nontarget	3.000000	na
41.105549	0.041752	50.000000	nontarget	4.000000	na
41.147301	0.042199	50.000000	nontarget	5.000000	na
41.189500	0.041470	50.000000	nontarget	6.000000	na
41.230969	0.041440	50.000000	nontarget	7.000000	na
41.272410	0.041447	50.000000	nontarget	8.000000	41.278573
41.313857	0.042228	50.000000	nontarget	9.000000	na
41.356085	0.041884	50.000000	nontarget	10.000000	na
41.397969	0.041429	50.000000	nontarget	11.000000	na
41.439397	0.040969	50.000000	nontarget	12.000000	na
41.480366	0.042458	50.000000	nontarget	13.000000	na
41.522824	0.041029	50.000000	nontarget	14.000000	na
41.563853	0.041569	50.000000	nontarget	15.000000	na
41.605422	0.042335	50.000000	nontarget	16.000000	na
41.647757	0.041012	51.000000	nontarget	1.000000	na
41.688769	0.042621	51.000000	nontarget	2.000000	na
41.731390	0.041526	51.000000	nontarget	3.000000	na
41.772916	0.040897	51.000000	nontarget	4.000000	na
41.813812	0.042406	51.000000	nontarget	5.000000	na
41.856218	0.042058	51.000000	nontarget	6.000000	na
41.898276	0.041025	51.000000	nontarget	7.000000	na
41.939301	0.041246	51.000000	nontarget	8.000000	na
41.980547	0.042245	51.000000	nontarget	9.000000	na
42.022792	0.041801	51.000000	nontarget	10.000000	na
42.064593	0.040867	51.000000	nontarget	11.000000	na
42.105460	0.042332	51.000000	nontarget	12.000000	na
42.147791	0.041500	51.000000	nontarget	13.000000	42.152937
42.189292	0.041870	51.000000	nontarget	14.000000	na
42.231161	0.041560	51.000000	nontarget	15.000000	na
42.272722	0.041272	51.000000	nontarget	16.000000	na
42.313994	0.042111	52.000000	nontarget	1.000000	na
42.356105	0.041178	52.000000	nontarget	2.000000	na
42.397283	0.042110	52.000000	nontarget	3.000000	na
42.439393	0.041589	52.000000	nontarget	4.000000	na
42.480982	0.041704	52.000000	nontarget	5.000000	na
42.522686	0.042016	52.000000	nontarget	6.000000	na
42.564702	0.040833	52.000000	nontarget	7.000000	na
42.605535	0.042096	52.000000	nontarget	8.000000	na
42.647630	0.041617	52.000000	nontarget	9.000000	na
42.689247	0.041125	52.000000	nontarget	10.000000	na
42.730372	0.042444	52.000000	nontarget	11.000000	na
42.772817	0.041901	52.000000	nontarget	12.000000	na
42.814718	0.040487	52.000000	nontarget	13.000000	42.821329
42.855205	0.042043	52.000000	nontarget	14.000000	na
42.897248	0.041461	52.000000	nontarget	15.000000	na
42.938709	0.041615	52.000000	nontarget	16.000000	na
42.980324	0.041655	53.000000	nontarget	1.000000	na
43.021979	0.041894	53.000000	nontarget	2.000000	na
43.063874	0.041539	53.000000	nontarget	3.000000	na
43.105413	0.041949	53.000000	nontarget	4.000000	na
43.147362	0.041987	53.000000	nontarget	5.000000	na
43.189349	0.041606	53.000000	nontarget	6.000000	na
43.230956	0.041657	53.000000	nontarget	7.000000	na
43.272612	0.042368	53.000000	nontarget	8.000000	na
43.314980	0.041088	53.000000	nontarget	9.000000	na
43.356068	0.041899	53.000000	nontarget	10.000000	na
43.397967	0.041210	53.000000	nontarget	11.000000	na
43.439177	0.041467	53.000000	nontarget	12.000000	na
43.480644	0.041408	53.000000	nontarget	13.000000	na
43.522052	0.042618	53.000000	nontarget	14.000000	na
43.564670	0.040962	53.000000	nontarget	15.000000	43.594171
43.605632	0.042050	53.000000	nontarget	16.000000	na
43.647682	0.041657	54.000000	nontarget	1.000000	43.653414
43.689339	0.041549	54.000000	nontarget	2.000000	na
43.730888	0.041232	54.000000	nontarget	3.000000	na
43.772120	0.041741	54.000000	nontarget	4.000000	na
43.813861	0.042083	54.000000	nontarget	5.000000	na
43.855944	0.041612	54.000000	nontarget	6.000000	na
43.897556	0.041865	54.000000	nontarget	7.000000	na
43.939421	0.041186	54.000000	nontarget	8.000000	na
43.980607	0.041401	54.000000	nontarget	9.000000	na
44.022008	0.042837	54.000000	nontarget	10.000000	na
44.064845	0.041156	54.000000	nontarget	11.000000	na
44.106000	0.041819	54.000000	nontarget	12.000000	na
44.147820	0.040814	54.000000	nontarget	13.000000	na
44.188633	0.042175	54.000000	nontarget	14.000000	na
44.230808	0.041586	54.000000	nontarget	15.000000	na
44.272394	0.041843	54.000000	nontarget	16.000000	na
44.314237	0.040957	55.000000	nontarget	1.000000	44.333549
44.355194	0.041919	55.000000	nontarget	2.000000	na
44.397113	0.041555	55.000000	nontarget	3.000000	na
44.438668	0.042468	55.000000	nontarget	4.000000	na
44.481136	0.041010	55.000000	nontarget	5.000000	na
44.522146	0.042539	55.000000	nontarget	6.000000	na
44.564685	0.040262	55.000000	nontarget	7.000000	na
44.604947	0.042593	55.000000	nontarget	8.000000	na
44.647540	0.041747	55.000000	nontarget	9.000000	na
44.689287	0.041288	55.000000	nontarget	10.000000	na
44.730575	0.041160	55.000000	nontarget	11.000000	na
44.771735	0.042805	55.000000	nontarget	12.000000	na
44.814540	0.040981	55.000000	nontarget	13.000000	na
44.855522	0.041554	55.000000	nontarget	14.000000	na
44.897075	0.042421	55.000000	nontarget	15.000000	na
44.939496	0.041135	55.000000	nontarget	16.000000	na
44.980631	0.041827	56.000000	nontarget	1.000000	na
45.022458	0.041421	56.000000	nontarget	2.000000	na
45.063879	0.041965	56.000000	nontarget	3.000000	na
45.105844	0.041420	56.000000	nontarget	4.000000	na
45.147264	0.041305	56.000000	nontarget	5.000000	na
45.188569	0.042625	56.000000	nontarget	6.000000	na
45.231193	0.041679	56.000000	nontarget	7.000000	na
45.272873	0.041009	56.000000	nontarget	8.000000	na
45.313881	0.041839	56.000000	nontarget	9.000000	na
45.355720	0.041754	56.000000	nontarget	10.000000	na
45.397475	0.041138	56.000000	nontarget	11.000000	na
45.438613	0.041823	56.000000	nontarget	12.000000	45.444453
45.480436	0.042129	56.000000	nontarget	13.000000	na
45.522565	0.042119	56.000000	nontarget	14.000000	na
45.564684	0.041079	56.000000	nontarget	15.000000	na
45.605762	0.041888	56.000000	nontarget	16.000000	na
45.647650	0.040955	57.000000	nontarget	1.000000	na
45.688604	0.042378	57.000000	nontarget	2.000000	na
45.730983	0.041748	57.000000	nontarget	3.000000	na
45.772731	0.041540	57.000000	nontarget	4.000000	na
45.814271	0.041147	57.000000	nontarget	5.000000	na
45.855418	0.041415	57.000000	nontarget	6.000000	na
45.896833	0.041663	57.000000	nontarget	7.000000	na
45.938496	0.041894	57.000000	nontarget	8.000000	na
45.980389	0.041940	57.000000	nontarget	9.000000	na
46.022329	0.042245	57.000000	nontarget	10.000000	na
46.064575	0.040923	57.000000	nontarget	11.000000	na
46.105498	0.042372	57.000000	nontarget	12.000000	na
46.147870	0.041207	57.000000	nontarget	13.000000	na
46.189077	0.041590	57.000000	nontarget	14.000000	na
46.230667	0.041913	57.000000	nontarget	15.000000	na
46.272580	0.041854	57.000000	nontarget	16.000000	46.286778
46.314434	0.041240	58.000000	nontarget	1.000000	46.321176
46.355674	0.041269	58.000000	nontarget	2.000000	na
46.396943	0.041500	58.000000	nontarget	3.000000	na
46.438443	0.042968	58.000000	nontarget	4.000000	na
46.481411	0.040181	58.000000	nontarget	5.000000	na
46.521592	0.042904	58.000000	nontarget	6.000000	na
46.564496	0.040452	58.000000	nontarget	7.000000	na
46.604948	0.043234	58.000000	nontarget	8.000000	na
46.648182	0.040201	58.000000	nontarget	9.000000	na
46.688383	0.043065	58.000000	nontarget	10.000000	na
46.731448	0.041122	58.000000	nontarget	11.000000	na
46.772570	0.041767	58.000000	nontarget	12.000000	na
46.814337	0.040973	58.000000	nontarget	13.000000	na
46.855310	0.041976	58.000000	nontarget	14.000000	na
46.897286	0.041803	58.000000	nontarget	15.000000	na
46.939089	0.042327	58.000000	nontarget	16.000000	na
46.981416	0.041103	59.000000	nontarget	1.000000	na
47.022519	0.041638	59.000000	nontarget	2.000000	na
47.064157	0.041557	59.000000	nontarget	3.000000	na
47.105714	0.041430	59.000000	nontarget	4.000000	na
47.147143	0.041888	59.000000	nontarget	5.000000	na
47.189031	0.041475	59.000000	nontarget	6.000000	na
47.230506	0.042401	59.000000	nontarget	7.000000	47.247398
47.272907	0.041268	59.000000	nontarget	8.000000	na
47.314175	0.041569	59.000000	nontarget	9.000000	na
47.355744	0.041632	59.000000	nontarget	10.000000	na
47.397376	0.041444	59.000000	nontarget	11.000000	na
47.438820	0.042331	59.000000	nontarget	12.000000	na
47.481151	0.041324	59.000000	nontarget	13.000000	na
47.522474	0.041824	59.000000	nontarget	14.000000	na
47.564298	0.040885	59.000000	nontarget	15.000000	na
47.605183	0.042582	59.000000	nontarget	16.000000	na
47.647765	0.041660	60.000000	nontarget	1.000000	na
47.689425	0.041216	60.000000	nontarget	2.000000	na
47.730640	0.040980	60.000000	nontarget	3.000000	na
47.771620	0.042849	60.000000	nontarget	4.000000	na
47.814470	0.041137	60.000000	nontarget	5.000000	na
47.855607	0.041674	60.000000	nontarget	6.000000	na
47.897281	0.041490	60.000000	nontarget	7.000000	na
47.938771	0.042510	60.000000	nontarget	8.000000	na
47.981281	0.040423	60.000000	nontarget	9.000000	na
48.021704	0.042647	60.000000	nontarget	10.000000	48.054947
48.064351	0.041341	60.000000	nontarget	11.000000	na
48.105692	0.042036	60.000000	nontarget	12.000000	na
48.147729	0.041506	60.000000	nontarget	13.000000	na
48.189234	0.042065	60.000000	nontarget	14.000000	na
48.231300	0.040503	60.000000	nontarget	15.000000	na
48.271803	0.042335	60.000000	nontarget	16.000000	na
48.314137	0.041553	61.000000	nontarget	1.000000	na
48.355690	0.041722	61.000000	nontarget	2.000000	na
48.397412	0.041304	61.000000	nontarget	3.000000	na
48.438716	0.042451	61.000000	nontarget	4.000000	na
48.481167	0.040760	61.000000	nontarget	5.000000	na
48.521927	0.041930	61.000000	nontarget	6.000000	na
48.563856	0.041865	61.000000	nontarget	7.000000	na
48.605722	0.042003	61.000000	nontarget	8.000000	na
48.647724	0.041396	61.000000	nontarget	9.000000	na
48.689120	0.042141	61.000000	nontarget	10.000000	na
48.731261	0.040675	61.000000	nontarget	11.000000	na
48.771936	0.042725	61.000000	nontarget	12.000000	na
48.814661	0.040983	61.000000	nontarget	13.000000	na
48.855643	0.041792	61.000000	nontarget	14.000000	na
48.897435	0.041171	61.000000	nontarget	15.000000	na
48.938606	0.042147	61.000000	nontarget	16.000000	48.947397
48.980753	0.042031	62.000000	nontarget	1.000000	48.987124
49.022784	0.041446	62.000000	nontarget	2.000000	na
49.064229	0.041780	62.000000	nontarget	3.000000	na
49.106009	0.041695	62.000000	nontarget	4.000000	na
49.147704	0.040569	62.000000	nontarget	5.000000	na
49.188272	0.042831	62.000000	nontarget	6.000000	na
49.231103	0.041537	62.000000	nontarget	7.000000	na
49.272640	0.040985	62.000000	nontarget	8.000000	na
49.313625	0.041460	62.000000	nontarget	9.000000	na
49.355086	0.042276	62.000000	nontarget	10.000000	na
49.397362	0.040937	62.000000	nontarget	11.000000	na
49.438299	0.041838	62.000000	nontarget	12.000000	na
49.480137	0.041634	62.000000	nontarget	13.000000	na
49.521771	0.041963	62.000000	nontarget	14.000000	na
49.563734	0.041691	62.000000	nontarget	15.000000	na
49.605425	0.042084	62.000000	nontarget	16.000000	na
49.647509	0.040632	63.000000	nontarget	1.000000	na
49.688141	0.042895	63.000000	nontarget	2.000000	na
49.731036	0.040631	63.000000	nontarget	3.000000	na
49.771667	0.042981	63.000000	nontarget	4.000000	na
49.814649	0.040932	63.000000	nontarget	5.000000	49.821092
49.855581	0.042240	63.000000	nontarget	6.000000	na
49.897821	0.041476	63.000000	nontarget	7.000000	na
49.939297	0.041144	63.000000	nontarget	8.000000	na
49.980441	0.042338	63.000000	nontarget	9.000000	na
50.022780	0.041731	63.000000	nontarget	10.000000	na
50.064510	0.040676	63.000000	nontarget	11.000000	na
50.105186	0.042114	63.000000	nontarget	12.000000	na
50.147300	0.041582	63.000000	nontarget	13.000000	na
50.188883	0.041487	63.000000	nontarget	14.000000	na
50.230369	0.041890	63.000000	nontarget	15.000000	na
50.272260	0.042055	63.000000	nontarget	16.000000	na
50.314315	0.040782	64.000000	nontarget	1.000000	na
50.355097	0.042593	64.000000	nontarget	2.000000	na
50.397690	0.041092	64.000000	nontarget	3.000000	na
50.438782	0.041665	64.000000	nontarget	4.000000	na
50.480446	0.042118	64.000000	nontarget	5.000000	na
50.522564	0.049565	64.000000	nontarget	6.000000	50.559003
50.572129	0.041647	64.000000	nontarget	7.000000	na
50.613776	0.041380	64.000000	nontarget	8.000000	na
50.655156	0.042697	64.000000	nontarget	9.000000	na
50.697854	0.041077	64.000000	nontarget	10.000000	na
50.738931	0.041528	64.000000	nontarget	11.000000	na
50.780458	0.040928	64.000000	nontarget	12.000000	na
50.821387	0.043100	64.000000	nontarget	13.000000	na
50.864487	0.040493	64.000000	nontarget	14.000000	na
50.904980	0.042985	64.000000	nontarget	15.000000	na
50.947965	0.040913	64.000000	nontarget	16.000000	na
50.988878	0.042610	65.000000	nontarget	1.000000	na
51.031488	0.040470	65.000000	nontarget	2.000000	na
51.071958	0.042267	65.000000	nontarget	3.000000	na
51.114225	0.040997	65.000000	nontarget	4.000000	na
51.155222	0.042212	65.000000	nontarget	5.000000	na
51.197434	0.040965	65.000000	nontarget	6.000000	na
51.238399	0.042657	65.000000	nontarget	7.000000	na
51.281056	0.041076	65.000000	nontarget	8.000000	na
51.322132	0.042290	65.000000	nontarget	9.000000	na
51.364422	0.040279	65.000000	nontarget	10.000000	na
51.404702	0.043560	65.000000	nontarget	11.000000	na
51.448262	0.040463	65.000000	nontarget	12.000000	51.472374
51.488725	0.042116	65.000000	nontarget	13.000000	na
51.530840	0.040482	65.000000	nontarget	14.000000	na
51.571322	0.042619	65.000000	nontarget	15.000000	na
51.613941	0.041554	65.000000	nontarget	16.000000	na
51.655495	0.042628	66.000000	nontarget	1.000000	na
51.698123	0.039845	66.000000	nontarget	2.000000	na
51.737968	0.042177	66.000000	nontarget	3.000000	na
51.780145	0.041153	66.000000	nontarget	4.000000	na
51.821298	0.042970	66.000000	nontarget	5.000000	na
51.864268	0.040459	66.000000	nontarget	6.000000	na
51.904727	0.042953	66.000000	nontarget	7.000000	na
51.947680	0.040281	66.000000	nontarget	8.000000	na
51.987961	0.043375	66.000000	nontarget	9.000000	na
52.031336	0.040744	66.000000	nontarget	10.000000	na
52.072080	0.041607	66.000000	nontarget	11.000000	na
52.113687	0.041005	66.000000	nontarget	12.000000	na
52.154692	0.042693	66.000000	nontarget	13.000000	na
52.197385	0.041113	66.000000	nontarget	14.000000	na
52.238498	0.042158	66.000000	nontarget	15.000000	na
52.280656	0.040716	66.000000	nontarget	16.000000	na
52.321372	0.043044	67.000000	nontarget	1.000000	na
52.364415	0.041040	67.000000	nontarget	2.000000	na
52.405456	0.041946	67.000000	nontarget	3.000000	na
52.447401	0.040993	67.000000	nontarget	4.000000	52.470715
52.488395	0.042201	67.000000	nontarget	5.000000	na
52.530596	0.040917	67.000000	nontarget	6.000000	na
52.571513	0.042910	67.000000	nontarget	7.000000	na
52.614423	0.041071	67.000000	nontarget	8.000000	na
52.655493	0.042378	67.000000	nontarget	9.000000	na
52.697872	0.040769	67.000000	nontarget	10.000000	na
52.738641	0.041621	67.000000	nontarget	11.000000	na
52.780261	0.041854	67.000000	nontarget	12.000000	na
52.822116	0.041906	67.000000	nontarget	13.000000	na
52.864021	0.041037	67.000000	nontarget	14.000000	na
52.905058	0.042595	67.000000	nontarget	15.000000	na
52.947653	0.040837	67.000000	nontarget	16.000000	na
52.988489	0.042751	68.000000	nontarget	1.000000	na
53.031240	0.040920	68.000000	nontarget	2.000000	na
53.072160	0.042528	68.000000	nontarget	3.000000	na
53.114688	0.049771	68.000000	nontarget	4.000000	na
53.164459	0.040938	68.000000	nontarget	5.000000	na
53.205397	0.042128	68.000000	nontarget	6.000000	53.214977
53.247525	0.041049	68.000000	nontarget	7.000000	na
53.288574	0.042320	68.000000	nontarget	8.000000	na
53.330894	0.041518	68.000000	nontarget	9.000000	na
53.372412	0.041459	68.000000	nontarget	10.000000	na
53.413872	0.041533	68.000000	nontarget	11.000000	na
53.455405	0.042342	68.000000	nontarget	12.000000	na
53.497747	0.041311	68.000000	nontarget	13.000000	na
53.539057	0.042403	68.000000	nontarget	14.000000	na
53.581460	0.039781	68.000000	nontarget	15.000000	na
53.621241	0.042978	68.000000	nontarget	16.000000	na
53.664219	0.040891	69.000000	nontarget	1.000000	na
53.705110	0.041860	69.000000	nontarget	2.000000	na
53.746970	0.040775	69.000000	nontarget	3.000000	na
53.787745	0.042876	69.000000	nontarget	4.000000	na
53.830621	0.041426	69.000000	nontarget	5.000000	na
53.872047	0.041595	69.000000	nontarget	6.000000	na
53.913643	0.041723	69.000000	nontarget	7.000000	53.926524
53.955365	0.043742	69.000000	nontarget	8.000000	na
53.999107	0.039555	69.000000	nontarget	9.000000	na
54.038662	0.041686	69.000000	nontarget	10.000000	na
54.080348	0.041935	69.000000	nontarget	11.000000	na
54.122283	0.041176	69.000000	nontarget	12.000000	na
54.163458	0.041981	69.000000	nontarget	13.000000	na
54.205440	0.041950	69.000000	nontarget	14.000000	na
54.247389	0.040288	69.000000	nontarget	15.000000	na
54.287678	0.043284	69.000000	nontarget	16.000000	na
54.330962	0.041006	70.000000	nontarget	1.000000	na
54.371967	0.042674	70.000000	nontarget	2.000000	na
54.414642	0.049878	70.000000	nontarget	3.000000	na
54.464520	0.050001	70.000000	nontarget	4.000000	na
54.514521	0.040718	70.000000	nontarget	5.000000	na
54.555239	0.042498	70.000000	nontarget	6.000000	na
54.597737	0.040665	70.000000	nontarget	7.000000	na
54.638402	0.042350	70.000000	nontarget	8.000000	na
54.680752	0.041156	70.000000	nontarget	9.000000	na
54.721908	0.041689	70.000000	nontarget	10.000000	na
54.763597	0.041679	70.000000	nontarget	11.000000	na
54.805276	0.041791	70.000000	nontarget	12.000000	na
54.847067	0.041528	70.000000	nontarget	13.000000	na
54.888595	0.042625	70.000000	nontarget	14.000000	na
54.931220	0.040542	70.000000	nontarget	15.000000	54.942252
54.971761	0.042444	70.000000	nontarget	16.000000	na
55.014205	0.041397	71.000000	nontarget	1.000000	55.019418
55.055602	0.042216	71.000000	nontarget	2.000000	na
55.097818	0.040808	71.000000	nontarget	3.000000	na
55.138626	0.041529	71.000000	nontarget	4.000000	na
55.180155	0.041803	71.000000	nontarget	5.000000	na
55.221958	0.041635	71.000000	nontarget	6.000000	na
55.263593	0.041856	71.000000	nontarget	7.000000	na
55.305449	0.041252	71.000000	nontarget	8.000000	na
55.346702	0.041914	71.000000	nontarget	9.000000	na
55.388615	0.041791	71.000000	nontarget	10.000000	na
55.430407	0.041476	71.000000	nontarget	11.000000	na
55.471882	0.041736	71.000000	nontarget	12.000000	na
55.513618	0.040786	71.000000	nontarget	13.000000	na
55.554404	0.043098	71.000000	nontarget	14.000000	na
55.597503	0.041078	71.000000	nontarget	15.000000	na
55.638580	0.042473	71.000000	nontarget	16.000000	na
55.681053	0.040471	72.000000	nontarget	1.000000	na
55.721524	0.042967	72.000000	nontarget	2.000000	na
55.764491	0.040648	72.000000	nontarget	3.000000	na
55.805139	0.042754	72.000000	nontarget	4.000000	55.811758
55.847893	0.040988	72.000000	nontarget	5.000000	na
55.888881	0.042059	72.000000	nontarget	6.000000	na
55.930940	0.040690	72.000000	nontarget	7.000000	na
55.971630	0.042669	72.000000	nontarget	8.000000	na
56.014299	0.040946	72.000000	nontarget	9.000000	na
56.055245	0.042606	72.000000	nontarget	10.000000	na
56.097850	0.040966	72.000000	nontarget	11.000000	na
56.138816	0.042048	72.000000	nontarget	12.000000	na
56.180864	0.040510	72.000000	nontarget	13.000000	na
56.221374	0.043063	72.000000	nontarget	14.000000	na
56.264437	0.040147	72.000000	nontarget	15.000000	na
56.304584	0.043223	72.000000	nontarget	16.000000	na
56.347807	0.040595	73.000000	nontarget	1.000000	na
56.388402	0.041734	73.000000	nontarget	2.000000	na
56.430136	0.041744	73.000000	nontarget	3.000000	na
56.471880	0.042289	73.000000	nontarget	4.000000	na
56.514170	0.040349	73.000000	nontarget	5.000000	na
56.554519	0.042490	73.000000	nontarget	6.000000	na
56.597009	0.040690	73.000000	nontarget	7.000000	na
56.637699	0.042817	73.000000	nontarget	8.000000	na
56.680516	0.041663	73.000000	nontarget	9.000000	na
56.722180	0.042496	73.000000	nontarget	10.000000	56.727532
56.764675	0.040045	73.000000	nontarget	11.000000	na
56.804721	0.042787	73.000000	nontarget	12.000000	na
56.847508	0.040471	73.000000	nontarget	13.000000	na
56.887979	0.043336	73.000000	nontarget	14.000000	na
56.931315	0.039749	73.000000	nontarget	15.000000	na
56.971065	0.043667	73.000000	nontarget	16.000000	na
57.014732	0.040440	74.000000	nontarget	1.000000	na
57.055172	0.042750	74.000000	nontarget	2.000000	na
57.097922	0.041000	74.000000	nontarget	3.000000	na
57.138921	0.042238	74.000000	nontarget	4.000000	na
57.181159	0.040683	74.000000	nontarget	5.000000	na
57.221842	0.042486	74.000000	nontarget	6.000000	na
57.264329	0.041181	74.000000	nontarget	7.000000	na
57.305510	0.042194	74.000000	nontarget	8.000000	na
57.347704	0.040867	74.000000	nontarget	9.000000	na
57.388571	0.042035	74.000000	nontarget	10.000000	na
57.430605	0.040736	74.000000	nontarget	11.000000	na
57.471341	0.042962	74.000000	nontarget	12.000000	na
57.514303	0.040892	74.000000	nontarget	13.000000	na
57.555195	0.042208	74.000000	nontarget	14.000000	na
57.597403	0.040626	74.000000	nontarget	15.000000	na
57.638029	0.043102	74.000000	nontarget	16.000000	57.655843
57.681131	0.040634	75.000000	nontarget	1.000000	57.686919
57.721765	0.042577	75.000000	nontarget	2.000000	na
57.764343	0.040524	75.000000	nontarget	3.000000	na
57.804866	0.042756	75.000000	nontarget	4.000000	na
57.847622	0.040547	75.000000	nontarget	5.000000	na
57.888169	0.042488	75.000000	nontarget	6.000000	na
57.930657	0.040297	75.000000	nontarget	7.000000	na
57.970954	0.042529	75.000000	nontarget	8.000000	na
58.013483	0.041981	75.000000	nontarget	9.000000	na
58.055464	0.042212	75.000000	nontarget	10.000000	na
58.097677	0.049884	75.000000	nontarget	11.000000	na
58.147561	0.041285	75.000000	nontarget	12.000000	na
58.188845	0.041891	75.000000	nontarget	13.000000	na
58.230736	0.041114	75.000000	nontarget	14.000000	na
58.271850	0.042631	75.000000	nontarget	15.000000	na
58.314481	0.040438	75.000000	nontarget	16.000000	na
58.354919	0.042299	76.000000	nontarget	1.000000	na
58.397218	0.040310	76.000000	nontarget	2.000000	na
58.437527	0.043515	76.000000	nontarget	3.000000	na
58.481043	0.040723	76.000000	nontarget	4.000000	na
58.521766	0.042324	76.000000	nontarget	5.000000	na
58.564090	0.041195	76.000000	nontarget	6.000000	58.570635
58.605285	0.041919	76.000000	nontarget	7.000000	na
58.647204	0.041109	76.000000	nontarget	8.000000	na
58.688313	0.041920	76.000000	nontarget	9.000000	na
58.730233	0.041509	76.000000	nontarget	10.000000	na
58.771742	0.041908	76.000000	nontarget	11.000000	na
58.813650	0.041404	76.000000	nontarget	12.000000	na
58.855054	0.042773	76.000000	nontarget	13.000000	na
58.897826	0.040591	76.000000	nontarget	14.000000	na
58.938417	0.042209	76.000000	nontarget	15.000000	na
58.980626	0.041272	76.000000	nontarget	16.000000	na
59.021898	0.041575	77.000000	nontarget	1.000000	na
59.063473	0.041579	77.000000	nontarget	2.000000	na
59.105052	0.041741	77.000000	nontarget	3.000000	na
59.146794	0.041862	77.000000	nontarget	4.000000	na
59.188655	0.041444	77.000000	nontarget	5.000000	na
59.230099	0.041730	77.000000	nontarget	6.000000	na
59.271829	0.041616	77.000000	nontarget	7.000000	na
59.313445	0.042095	77.000000	nontarget	8.000000	na
59.355540	0.041925	77.000000	nontarget	9.000000	na
59.397465	0.040236	77.000000	nontarget	10.000000	na
59.437701	0.042997	77.000000	nontarget	11.000000	na
59.480698	0.040512	77.000000	nontarget	12.000000	59.508355
59.521210	0.043152	77.000000	nontarget	13.000000	na
59.564361	0.040584	77.000000	nontarget	14.000000	na
59.604946	0.043002	77.000000	nontarget	15.000000	na
59.647948	0.039861	77.000000	nontarget	16.000000	na
59.687809	0.043191	78.000000	target	1.000000	na
59.731000	0.040160	78.000000	target	2.000000	na
59.771160	0.043242	78.000000	target	3.000000	na
59.814402	0.040424	78.000000	target	4.000000	na
59.854826	0.042772	78.000000	target	5.000000	na
59.897598	0.039917	78.000000	target	6.000000	na
59.937515	0.043366	78.000000	target	7.000000	na
59.980881	0.040883	78.000000	target	8.000000	na
60.021764	0.041970	78.000000	target	9.000000	na
60.063734	0.040805	78.000000	target	10.000000	na
60.104539	0.043111	78.000000	target	11.000000	na
60.147650	0.040959	78.000000	target	12.000000	na
60.188609	0.042116	78.000000	target	13.000000	na
60.230725	0.041226	78.000000	target	14.000000	na
60.271951	0.042028	78.000000	target	15.000000	na
60.313979	0.040978	78.000000	target	16.000000	na
60.354957	0.042484	79.000000	nontarget	1.000000	na
60.397440	0.040151	79.000000	nontarget	2.000000	na
60.437591	0.042713	79.000000	nontarget	3.000000	na
60.480304	0.041638	79.000000	nontarget	4.000000	na
60.521942	0.042223	79.000000	nontarget	5.000000	na
60.564165	0.040366	79.000000	nontarget	6.000000	na
60.604531	0.043213	79.000000	nontarget	7.000000	na
60.647744	0.049241	79.000000	nontarget	8.000000	na
60.696985	0.040692	79.000000	nontarget	9.000000	na
60.737677	0.043232	79.000000	nontarget	10.000000	60.750975
60.780909	0.048048	79.000000	nontarget	11.000000	na
60.828957	0.042935	79.000000	nontarget	12.000000	na
60.871892	0.042396	79.000000	nontarget	13.000000	na
60.914288	0.040987	79.000000	nontarget	14.000000	na
60.955276	0.043696	79.000000	nontarget	15.000000	na
60.998972	0.047889	79.000000	nontarget	16.000000	na
61.046861	0.041468	80.000000	nontarget	1.000000	na
61.088329	0.041854	80.000000	nontarget	2.000000	na
61.130183	0.041038	80.000000	nontarget	3.000000	na
61.171221	0.043427	80.000000	nontarget	4.000000	na
61.214648	0.040180	80.000000	nontarget	5.000000	na
61.254828	0.041940	80.000000	nontarget	6.000000	na
61.296768	0.041920	80.000000	nontarget	7.000000	na
61.338688	0.041924	80.000000	nontarget	8.000000	na
61.380612	0.041034	80.000000	nontarget	9.000000	na
61.421646	0.041930	80.000000	nontarget	10.000000	na
61.463576	0.040891	80.000000	nontarget	11.000000	na
61.504467	0.043615	80.000000	nontarget	12.000000	na
61.548082	0.039304	80.000000	nontarget	13.000000	na
61.587386	0.043740	80.000000	nontarget	14.000000	na
61.631127	0.040264	80.000000	nontarget	15.000000	na
61.671390	0.049711	80.000000	nontarget	16.000000	na
61.721102	0.043341	81.000000	nontarget	1.000000	na
61.764443	0.040633	81.000000	nontarget	2.000000	na
61.805075	0.042940	81.000000	nontarget	3.000000	na
61.848015	0.039266	81.000000	nontarget	4.000000	na
61.887281	0.050578	81.000000	nontarget	5.000000	61.923121
61.937859	0.043257	81.000000	nontarget	6.000000	na
61.981116	0.040296	81.000000	nontarget	7.000000	na
62.021412	0.042488	81.000000	nontarget	8.000000	na
62.063900	0.040183	81.000000	nontarget	9.000000	na
62.104083	0.042810	81.000000	nontarget	10.000000	na
62.146893	0.040571	81.000000	nontarget	11.000000	na
62.187464	0.042887	81.000000	nontarget	12.000000	na
62.230352	0.040543	81.000000	nontarget	13.000000	na
62.270895	0.042839	81.000000	nontarget	14.000000	na
62.313733	0.040409	81.000000	nontarget	15.000000	na
62.354142	0.043493	81.000000	nontarget	16.000000	na
62.397636	0.049610	82.000000	nontarget	1.000000	na
62.447245	0.040652	82.000000	nontarget	2.000000	na
62.487897	0.043063	82.000000	nontarget	3.000000	na
62.530961	0.050142	82.000000	nontarget	4.000000	na
62.581103	0.040621	82.000000	nontarget	5.000000	na
62.621724	0.041635	82.000000	nontarget	6.000000	na
62.663359	0.041736	82.000000	nontarget	7.000000	na
62.705095	0.041699	82.000000	nontarget	8.000000	na
62.746794	0.041431	82.000000	nontarget	9.000000	na
62.788225	0.042388	82.000000	nontarget	10.000000	na
62.830614	0.040595	82.000000	nontarget	11.000000	na
62.871208	0.042396	82.000000	nontarget	12.000000	na
62.913604	0.041178	82.000000	nontarget	13.000000	62.926859
62.954782	0.043905	82.000000	nontarget	14.000000	na
62.998687	0.048224	82.000000	nontarget	15.000000	na
63.046910	0.040546	82.000000	nontarget	16.000000	na
63.087456	0.042727	83.000000	nontarget	1.000000	na
63.130183	0.040565	83.000000	nontarget	2.000000	na
63.170748	0.043657	83.000000	nontarget	3.000000	na
63.214405	0.040233	83.000000	nontarget	4.000000	na
63.254638	0.043257	83.000000	nontarget	5.000000	na
63.297895	0.049851	83.000000	nontarget	6.000000	na
63.347746	0.040273	83.000000	nontarget	7.000000	na
63.388019	0.042900	83.000000	nontarget	8.000000	na
63.430920	0.039827	83.000000	nontarget	9.000000	na
63.470747	0.042527	83.000000	nontarget	10.000000	na
63.513273	0.041433	83.000000	nontarget	11.000000	na
63.554706	0.042963	83.000000	nontarget	12.000000	na
63.597669	0.049928	83.000000	nontarget	13.000000	na
63.647597	0.039483	83.000000	nontarget	14.000000	na
63.687080	0.043865	83.000000	nontarget	15.000000	na
63.730945	0.050137	83.000000	nontarget	16.000000	na
63.781082	0.040260	84.000000	nontarget	1.000000	na
63.821341	0.042914	84.000000	nontarget	2.000000	na
63.864256	0.050463	84.000000	nontarget	3.000000	63.870549
63.914718	0.040316	84.000000	nontarget	4.000000	na
63.955035	0.044530	84.000000	nontarget	5.000000	na
63.999564	0.047493	84.000000	nontarget	6.000000	na
64.047058	0.040822	84.000000	nontarget	7.000000	na
64.087879	0.042867	84.000000	nontarget	8.000000	na
64.130746	0.050591	84.000000	nontarget	9.000000	na
64.181337	0.039633	84.000000	nontarget	10.000000	na
64.220970	0.043169	84.000000	nontarget	11.000000	na
64.264139	0.039663	84.000000	nontarget	12.000000	na
64.303802	0.043230	84.000000	nontarget	13.000000	na
64.347032	0.040698	84.000000	nontarget	14.000000	na
64.387730	0.043139	84.000000	nontarget	15.000000	na
64.430869	0.049531	84.000000	nontarget	16.000000	na
64.480400	0.041259	85.000000	nontarget	1.000000	na
64.521659	0.041828	85.000000	nontarget	2.000000	na
64.563487	0.040269	85.000000	nontarget	3.000000	na
64.603755	0.043763	85.000000	nontarget	4.000000	na
64.647518	0.040125	85.000000	nontarget	5.000000	na
64.687643	0.042617	85.000000	nontarget	6.000000	na
64.730261	0.040409	85.000000	nontarget	7.000000	na
64.770670	0.044301	85.000000	nontarget	8.000000	64.805334
64.814971	0.049427	85.000000	nontarget	9.000000	na
64.864397	0.039575	85.000000	nontarget	10.000000	na
64.903973	0.043761	85.000000	nontarget	11.000000	na
64.947733	0.039412	85.000000	nontarget	12.000000	na
64.987145	0.043297	85.000000	nontarget	13.000000	na
65.030443	0.040919	85.000000	nontarget	14.000000	na
65.071361	0.042361	85.000000	nontarget	15.000000	na
65.113723	0.040916	85.000000	nontarget	16.000000	na
65.154639	0.043022	86.000000	nontarget	1.000000	na
65.197661	0.040320	86.000000	nontarget	2.000000	na
65.237981	0.043160	86.000000	nontarget	3.000000	na
65.281141	0.048974	86.000000	nontarget	4.000000	na
65.330115	0.040310	86.000000	nontarget	5.000000	na
65.370425	0.043842	86.000000	nontarget	6.000000	na
65.414267	0.040748	86.000000	nontarget	7.000000	na
65.455015	0.042523	86.000000	nontarget	8.000000	na
65.497538	0.040318	86.000000	nontarget	9.000000	na
65.537855	0.043055	86.000000	nontarget	10.000000	na
65.580910	0.039744	86.000000	nontarget	11.000000	na
65.620654	0.043664	86.000000	nontarget	12.000000	na
65.664318	0.040286	86.000000	nontarget	13.000000	na
65.704604	0.042047	86.000000	nontarget	14.000000	na
65.746651	0.040523	86.000000	nontarget	15.000000	na
65.787174	0.042645	86.000000	nontarget	16.000000	na
65.829819	0.041070	87.000000	nontarget	1.000000	65.837427
65.870889	0.042624	87.000000	nontarget	2.000000	na
65.913513	0.040833	87.000000	nontarget	3.000000	na
65.954346	0.044014	87.000000	nontarget	4.000000	na
65.998361	0.038716	87.000000	nontarget	5.000000	na
66.037076	0.043933	87.000000	nontarget	6.000000	na
66.081009	0.040171	87.000000	nontarget	7.000000	na
66.121180	0.043086	87.000000	nontarget	8.000000	na
66.164266	0.040114	87.000000	nontarget	9.000000	na
66.204380	0.042497	87.000000	nontarget	10.000000	na
66.246877	0.040734	87.000000	nontarget	11.000000	na
66.287611	0.043103	87.000000	nontarget	12.000000	na
66.330714	0.049878	87.000000	nontarget	13.000000	na
66.380592	0.040429	87.000000	nontarget	14.000000	na
66.421021	0.043406	87.000000	nontarget	15.000000	na
66.464427	0.039881	87.000000	nontarget	16.000000	na
66.504308	0.042473	88.000000	nontarget	1.000000	na
66.546781	0.040794	88.000000	nontarget	2.000000	na
66.587575	0.043125	88.000000	nontarget	3.000000	66.597132
66.630699	0.040376	88.000000	nontarget	4.000000	na
66.671075	0.042220	88.000000	nontarget	5.000000	na
66.713296	0.040953	88.000000	nontarget	6.000000	na
66.754248	0.043462	88.000000	nontarget	7.000000	na
66.797710	0.039429	88.000000	nontarget	8.000000	na
66.837140	0.043923	88.000000	nontarget	9.000000	na
66.881063	0.040083	88.000000	nontarget	10.000000	na
66.921145	0.043320	88.000000	nontarget	11.000000	na
66.964465	0.040189	88.000000	nontarget	12.000000	na
67.004654	0.042891	88.000000	nontarget	13.000000	na
67.047544	0.039918	88.000000	nontarget	14.000000	na
67.087462	0.043325	88.000000	nontarget	15.000000	na
67.130787	0.039838	88.000000	nontarget	16.000000	na
67.170625	0.043004	89.000000	nontarget	1.000000	na
67.213629	0.040490	89.000000	nontarget	2.000000	na
67.254119	0.042560	89.000000	nontarget	3.000000	na
67.296678	0.041524	89.000000	nontarget	4.000000	67.317926
67.338202	0.042854	89.000000	nontarget	5.000000	na
67.381056	0.049868	89.000000	nontarget	6.000000	na
67.430925	0.039580	89.000000	nontarget	7.000000	na
67.470504	0.043807	89.000000	nontarget	8.000000	na
67.514311	0.040631	89.000000	nontarget	9.000000	na
67.554942	0.042771	89.000000	nontarget	10.000000	na
67.597713	0.039579	89.000000	nontarget	11.000000	na
67.637292	0.043173	89.000000	nontarget	12.000000	na
67.680465	0.040004	89.000000	nontarget	13.000000	na
67.720469	0.044234	89.000000	nontarget	14.000000	na
67.764703	0.048792	89.000000	nontarget	15.000000	na
67.813495	0.041283	89.000000	nontarget	16.000000	na
67.854779	0.042836	90.000000	target	1.000000	na
67.897615	0.039567	90.000000	target	2.000000	na
67.937182	0.043761	90.000000	target	3.000000	na
67.980943	0.039281	90.000000	target	4.000000	na
68.020225	0.043208	90.000000	target	5.000000	na
68.063432	0.050947	90.000000	target	6.000000	na
68.114379	0.040018	90.000000	target	7.000000	na
68.154397	0.042321	90.000000	target	8.000000	na
68.196718	0.040706	90.000000	target	9.000000	na
68.237424	0.043387	90.000000	target	10.000000	na
68.280811	0.039623	90.000000	target	11.000000	na
68.320435	0.043946	90.000000	target	12.000000	na
68.364380	0.039588	90.000000	target	13.000000	na
68.403968	0.043576	90.000000	target	14.000000	na
68.447544	0.040140	90.000000	target	15.000000	na
68.487684	0.043257	90.000000	target	16.000000	na
68.530941	0.040109	91.000000	nontarget	1.000000	68.553430
68.571050	0.043135	91.000000	nontarget	2.000000	na
68.614185	0.039597	91.000000	nontarget	3.000000	na
68.653782	0.042880	91.000000	nontarget	4.000000	na
68.696661	0.041117	91.000000	nontarget	5.000000	na
68.737779	0.043116	91.000000	nontarget	6.000000	na
68.780895	0.050098	91.000000	nontarget	7.000000	na
68.830992	0.039960	91.000000	nontarget	8.000000	na
68.870952	0.043094	91.000000	nontarget	9.000000	na
68.914046	0.040366	91.000000	nontarget	10.000000	na
68.954412	0.043881	91.000000	nontarget	11.000000	na
68.998293	0.039866	91.000000	nontarget	12.000000	na
69.038160	0.042205	91.000000	nontarget	13.000000	na
69.080365	0.041157	91.000000	nontarget	14.000000	na
69.121521	0.042437	91.000000	nontarget	15.000000	na
69.163959	0.040764	91.000000	nontarget	16.000000	na
69.204723	0.042947	92.000000	target	1.000000	na
69.247670	0.050158	92.000000	target	2.000000	na
69.297828	0.049974	92.000000	target	3.000000	na
69.347802	0.039871	92.000000	target	4.000000	na
69.387672	0.042940	92.000000	target	5.000000	na
69.430612	0.050493	92.000000	target	6.000000	na
69.481105	0.048993	92.000000	target	7.000000	na
69.530098	0.041328	92.000000	target	8.000000	na
69.571426	0.042479	92.000000	target	9.000000	na
69.613905	0.040505	92.000000	target	10.000000	na
69.654410	0.043281	92.000000	target	11.000000	na
69.697690	0.049962	92.000000	target	12.000000	na
69.747652	0.039652	92.000000	target	13.000000	na
69.787304	0.043477	92.000000	target	14.000000	na
69.830781	0.049359	92.000000	target	15.000000	na
69.880140	0.040355	92.000000	target	16.000000	na
69.920496	0.042949	93.000000	nontarget	1.000000	na
69.963445	0.040262	93.000000	nontarget	2.000000	na
70.003707	0.043854	93.000000	nontarget	3.000000	na
70.047562	0.039228	93.000000	nontarget	4.000000	na
70.086790	0.044220	93.000000	nontarget	5.000000	na
70.131010	0.050186	93.000000	nontarget	6.000000	70.150754
70.181196	0.049570	93.000000	nontarget	7.000000	na
70.230766	0.050392	93.000000	nontarget	8.000000	na
70.281158	0.049915	93.000000	nontarget	9.000000	na
70.331073	0.039617	93.000000	nontarget	10.000000	na
70.370690	0.043409	93.000000	nontarget	11.000000	na
70.414099	0.050196	93.000000	nontarget	12.000000	na
70.464295	0.050304	93.000000	nontarget	13.000000	na
70.514600	0.039384	93.000000	nontarget	14.000000	na
70.553984	0.043358	93.000000	nontarget	15.000000	na
70.597342	0.039581	93.000000	nontarget	16.000000	na
70.636923	0.043909	94.000000	nontarget	1.000000	na
70.680832	0.050414	94.000000	nontarget	2.000000	na
70.731246	0.039755	94.000000	nontarget	3.000000	na
70.771002	0.042333	94.000000	nontarget	4.000000	na
70.813335	0.040858	94.000000	nontarget	5.000000	na
70.854193	0.043331	94.000000	nontarget	6.000000	na
70.897524	0.039236	94.000000	nontarget	7.000000	na
70.936760	0.043364	94.000000	nontarget	8.000000	na
70.980124	0.040239	94.000000	nontarget	9.000000	70.990618
71.020363	0.043457	94.000000	nontarget	10.000000	na
71.063820	0.040044	94.000000	nontarget	11.000000	na
71.103864	0.043838	94.000000	nontarget	12.000000	na
71.147702	0.049229	94.000000	nontarget	13.000000	na
71.196931	0.039802	94.000000	nontarget	14.000000	na
71.236733	0.043564	94.000000	nontarget	15.000000	na
71.280298	0.039926	94.000000	nontarget	16.000000	na
71.320224	0.043496	95.000000	nontarget	1.000000	na
71.363720	0.040480	95.000000	nontarget	2.000000	na
71.404200	0.043750	95.000000	nontarget	3.000000	na
71.447950	0.040007	95.000000	nontarget	4.000000	na
71.487957	0.043011	95.000000	nontarget	5.000000	na
71.530968	0.040222	95.000000	nontarget	6.000000	na
71.571189	0.042984	95.000000	nontarget	7.000000	na
71.614173	0.040042	95.000000	nontarget	8.000000	na
71.654214	0.043245	95.000000	nontarget	9.000000	na
71.697460	0.039890	95.000000	nontarget	10.000000	na
71.737350	0.042665	95.000000	nontarget	11.000000	na
71.780015	0.040959	95.000000	nontarget	12.000000	na
71.820974	0.042981	95.000000	nontarget	13.000000	na
71.863955	0.039400	95.000000	nontarget	14.000000	71.885383
71.903355	0.044160	95.000000	nontarget	15.000000	na
71.947515	0.039401	95.000000	nontarget	16.000000	na
71.986916	0.043383	96.000000	nontarget	1.000000	71.992690
72.030299	0.040414	96.000000	nontarget	2.000000	na
72.070713	0.042946	96.000000	nontarget	3.000000	na
72.113659	0.039950	96.000000	nontarget	4.000000	na
72.153609	0.044401	96.000000	nontarget	5.000000	na
72.198010	0.039145	96.000000	nontarget	6.000000	na
72.237155	0.044094	96.000000	nontarget	7.000000	na
72.281249	0.039386	96.000000	nontarget	8.000000	na
72.320635	0.043835	96.000000	nontarget	9.000000	na
72.364470	0.039057	96.000000	nontarget	10.000000	na
72.403527	0.043392	96.000000	nontarget	11.000000	na
72.446919	0.050624	96.000000	nontarget	12.000000	na
72.497542	0.039257	96.000000	nontarget	13.000000	na
72.536799	0.044154	96.000000	nontarget	14.000000	na
72.580953	0.039631	96.000000	nontarget	15.000000	na
72.620584	0.042982	96.000000	nontarget	16.000000	na
72.663567	0.039555	97.000000	nontarget	1.000000	na
72.703121	0.044547	97.000000	nontarget	2.000000	na
72.747668	0.039602	97.000000	nontarget	3.000000	72.774602
72.787270	0.043170	97.000000	nontarget	4.000000	na
72.830440	0.050499	97.000000	nontarget	5.000000	na
72.880938	0.050210	97.000000	nontarget	6.000000	na
72.931148	0.039670	97.000000	nontarget	7.000000	na
72.970819	0.042485	97.000000	nontarget	8.000000	na
73.013304	0.051031	97.000000	nontarget	9.000000	na
73.064335	0.038892	97.000000	nontarget	10.000000	na
73.103227	0.044167	97.000000	nontarget	11.000000	na
73.147394	0.039344	97.000000	nontarget	12.000000	na
73.186737	0.043785	97.000000	nontarget	13.000000	na
73.230522	0.040046	97.000000	nontarget	14.000000	na
73.270568	0.043572	97.000000	nontarget	15.000000	na
73.314140	0.050475	97.000000	nontarget	16.000000	na
73.364615	0.038533	98.000000	nontarget	1.000000	na
73.403148	0.044438	98.000000	nontarget	2.000000	na
73.447586	0.049840	98.000000	nontarget	3.000000	na
73.497426	0.039066	98.000000	nontarget	4.000000	na
73.536493	0.043619	98.000000	nontarget	5.000000	na
73.580111	0.040384	98.000000	nontarget	6.000000	73.587631
73.620496	0.042977	98.000000	nontarget	7.000000	na
73.663472	0.040350	98.000000	nontarget	8.000000	na
73.703823	0.043105	98.000000	nontarget	9.000000	na
73.746928	0.040712	98.000000	nontarget	10.000000	na
73.787640	0.043028	98.000000	nontarget	11.000000	na
73.830668	0.039200	98.000000	nontarget	12.000000	na
73.869868	0.044089	98.000000	nontarget	13.000000	na
73.913957	0.039980	98.000000	nontarget	14.000000	na
73.953938	0.045307	98.000000	nontarget	15.000000	na
73.999245	0.037793	98.000000	nontarget	16.000000	na
74.037038	0.043363	99.000000	nontarget	1.000000	na
74.080401	0.039487	99.000000	nontarget	2.000000	na
74.119887	0.044494	99.000000	nontarget	3.000000	na
74.164381	0.039750	99.000000	nontarget	4.000000	na
74.204131	0.050156	99.000000	nontarget	5.000000	74.240757
74.254288	0.043272	99.000000	nontarget	6.000000	na
74.297560	0.039165	99.000000	nontarget	7.000000	na
74.336725	0.044177	99.000000	nontarget	8.000000	na
74.380902	0.039764	99.000000	nontarget	9.000000	na
74.420666	0.043080	99.000000	nontarget	10.000000	na
74.463746	0.039778	99.000000	nontarget	11.000000	na
74.503525	0.044346	99.000000	nontarget	12.000000	na
74.547871	0.039007	99.000000	nontarget	13.000000	na
74.586877	0.044103	99.000000	nontarget	14.000000	na
74.630980	0.038995	99.000000	nontarget	15.000000	na
74.669975	0.043935	99.000000	nontarget	16.000000	na
74.713910	0.039119	100.000000	nontarget	1.000000	na
74.753029	0.044824	100.000000	nontarget	2.000000	na
74.797854	0.038544	100.000000	nontarget	3.000000	na
74.836398	0.044469	100.000000	nontarget	4.000000	na
74.880867	0.050063	100.000000	nontarget	5.000000	na
74.930931	0.038746	100.000000	nontarget	6.000000	na
74.969676	0.043850	100.000000	nontarget	7.000000	na
75.013527	0.040561	100.000000	nontarget	8.000000	na
75.054088	0.042941	100.000000	nontarget	9.000000	na
75.097029	0.039592	100.000000	nontarget	10.000000	na
75.136621	0.044409	100.000000	nontarget	11.000000	na
75.181030	0.038674	100.000000	nontarget	12.000000	na
75.219704	0.044424	100.000000	nontarget	13.000000	75.225588
75.264128	0.039971	100.000000	nontarget	14.000000	na
75.304098	0.043376	100.000000	nontarget	15.000000	na
75.347474	0.039549	100.000000	nontarget	16.000000	na
75.387023	0.043699	101.000000	nontarget	1.000000	na
75.430723	0.049331	101.000000	nontarget	2.000000	na
75.480053	0.039892	101.000000	nontarget	3.000000	na
75.519945	0.044392	101.000000	nontarget	4.000000	na
75.564337	0.050293	101.000000	nontarget	5.000000	na
75.614630	0.049499	101.000000	nontarget	6.000000	na
75.664129	0.039145	101.000000	nontarget	7.000000	na
75.703275	0.043846	101.000000	nontarget	8.000000	na
75.747121	0.039313	101.000000	nontarget	9.000000	na
75.786434	0.043997	101.000000	nontarget	10.000000	na
75.830431	0.039881	101.000000	nontarget	11.000000	na
75.870311	0.043966	101.000000	nontarget	12.000000	na
75.914277	0.039637	101.000000	nontarget	13.000000	na
75.953914	0.045231	101.000000	nontarget	14.000000	75.967517
75.999145	0.048000	101.000000	nontarget	15.000000	na
76.047146	0.050332	101.000000	nontarget	16.000000	na
76.097477	0.039032	102.000000	nontarget	1.000000	76.103957
76.136510	0.043852	102.000000	nontarget	2.000000	na
76.180361	0.040197	102.000000	nontarget	3.000000	na
76.220559	0.043568	102.000000	nontarget	4.000000	na
76.264126	0.039978	102.000000	nontarget	5.000000	na
76.304104	0.043803	102.000000	nontarget	6.000000	na
76.347907	0.049662	102.000000	nontarget	7.000000	na
76.397569	0.038968	102.000000	nontarget	8.000000	na
76.436537	0.043876	102.000000	nontarget	9.000000	na
76.480413	0.040226	102.000000	nontarget	10.000000	na
76.520640	0.043398	102.000000	nontarget	11.000000	na
76.564038	0.039892	102.000000	nontarget	12.000000	na
76.603929	0.043560	102.000000	nontarget	13.000000	na
76.647489	0.050276	102.000000	nontarget	14.000000	76.654544
76.697765	0.039247	102.000000	nontarget	15.000000	na
76.737012	0.043726	102.000000	nontarget	16.000000	na
76.780737	0.039815	103.000000	nontarget	1.000000	76.787247
76.820552	0.043646	103.000000	nontarget	2.000000	na
76.864199	0.038774	103.000000	nontarget	3.000000	na
76.902973	0.043797	103.000000	nontarget	4.000000	na
76.946770	0.039610	103.000000	nontarget	5.000000	na
76.986380	0.044310	103.000000	nontarget	6.000000	na
77.030690	0.040138	103.000000	nontarget	7.000000	na
77.070828	0.043234	103.000000	nontarget	8.000000	na
77.114062	0.050166	103.000000	nontarget	9.000000	na
77.164229	0.049353	103.000000	nontarget	10.000000	na
77.213581	0.039542	103.000000	nontarget	11.000000	na
77.253123	0.043875	103.000000	nontarget	12.000000	na
77.296998	0.040423	103.000000	nontarget	13.000000	na
77.337421	0.042639	103.000000	nontarget	14.000000	77.367110
77.380060	0.040228	103.000000	nontarget	15.000000	na
77.420288	0.043609	103.000000	nontarget	16.000000	na
77.463898	0.039785	104.000000	nontarget	1.000000	77.469573
77.503683	0.043832	104.000000	nontarget	2.000000	na
77.547515	0.039605	104.000000	nontarget	3.000000	na
77.587120	0.043919	104.000000	nontarget	4.000000	na
77.631039	0.038554	104.000000	nontarget	5.000000	na
77.669593	0.044241	104.000000	nontarget	6.000000	na
77.713835	0.039641	104.000000	nontarget	7.000000	na
77.753476	0.043580	104.000000	nontarget	8.000000	na
77.797056	0.039293	104.000000	nontarget	9.000000	na
77.836349	0.044250	104.000000	nontarget	10.000000	na
77.880599	0.039119	104.000000	nontarget	11.000000	na
77.919717	0.044725	104.000000	nontarget	12.000000	na
77.964442	0.039097	104.000000	nontarget	13.000000	na
78.003540	0.043363	104.000000	nontarget	14.000000	na
78.046902	0.039875	104.000000	nontarget	15.000000	na
78.086777	0.043429	104.000000	nontarget	16.000000	na
78.130207	0.039563	105.000000	nontarget	1.000000	na
78.169770	0.044403	105.000000	nontarget	2.000000	na
78.214173	0.038980	105.000000	nontarget	3.000000	na
78.253153	0.044247	105.000000	nontarget	4.000000	78.262370
78.297400	0.039939	105.000000	nontarget	5.000000	na
78.337339	0.042817	105.000000	nontarget	6.000000	na
78.380156	0.049798	105.000000	nontarget	7.000000	na
78.429954	0.039555	105.000000	nontarget	8.000000	na
78.469509	0.043825	105.000000	nontarget	9.000000	na
78.513334	0.039591	105.000000	nontarget	10.000000	na
78.552925	0.044324	105.000000	nontarget	11.000000	na
78.597249	0.039112	105.000000	nontarget	12.000000	na
78.636361	0.044114	105.000000	nontarget	13.000000	na
78.680476	0.040050	105.000000	nontarget	14.000000	na
78.720525	0.042825	105.000000	nontarget	15.000000	na
78.763350	0.039619	105.000000	nontarget	16.000000	na
78.802969	0.044540	106.000000	target	1.000000	na
78.847509	0.038614	106.000000	target	2.000000	na
78.886123	0.044994	106.000000	target	3.000000	na
78.931117	0.039329	106.000000	target	4.000000	na
78.970446	0.043078	106.000000	target	5.000000	na
79.013524	0.039865	106.000000	target	6.000000	na
79.053389	0.044391	106.000000	target	7.000000	na
79.097780	0.038976	106.000000	target	8.000000	na
79.136756	0.044353	106.000000	target	9.000000	na
79.181109	0.038537	106.000000	target	10.000000	na
79.219646	0.044509	106.000000	target	11.000000	na
79.264155	0.039562	106.000000	target	12.000000	na
79.303717	0.043688	106.000000	target	13.000000	na
79.347406	0.038907	106.000000	target	14.000000	na
79.386313	0.043645	106.000000	target	15.000000	na
79.429958	0.050790	106.000000	target	16.000000	79.437176
79.480748	0.050145	107.000000	nontarget	1.000000	79.487308
79.530893	0.049315	107.000000	nontarget	2.000000	na
79.580208	0.040153	107.000000	nontarget	3.000000	na
79.620361	0.043332	107.000000	nontarget	4.000000	na
79.663693	0.039908	107.000000	nontarget	5.000000	na
79.703601	0.043314	107.000000	nontarget	6.000000	na
79.746915	0.039835	107.000000	nontarget	7.000000	na
79.786751	0.043893	107.000000	nontarget	8.000000	na
79.830644	0.038845	107.000000	nontarget	9.000000	na
79.869488	0.043730	107.000000	nontarget	10.000000	na
79.913218	0.040643	107.000000	nontarget	11.000000	na
79.953861	0.046212	107.000000	nontarget	12.000000	na
80.000073	0.047340	107.000000	nontarget	13.000000	na
80.047413	0.038768	107.000000	nontarget	14.000000	na
80.086180	0.044696	107.000000	nontarget	15.000000	na
80.130876	0.039057	107.000000	nontarget	16.000000	na
80.169934	0.044314	108.000000	nontarget	1.000000	na
80.214248	0.039459	108.000000	nontarget	2.000000	na
80.253707	0.043601	108.000000	nontarget	3.000000	80.270775
80.297308	0.039815	108.000000	nontarget	4.000000	na
80.337123	0.043611	108.000000	nontarget	5.000000	na
80.380734	0.038617	108.000000	nontarget	6.000000	na
80.419351	0.044677	108.000000	nontarget	7.000000	na
80.464028	0.039512	108.000000	nontarget	8.000000	na
80.503540	0.043669	108.000000	nontarget	9.000000	na
80.547209	0.050453	108.000000	nontarget	10.000000	na
80.597661	0.049476	108.000000	nontarget	11.000000	na
80.647137	0.040115	108.000000	nontarget	12.000000	na
80.687252	0.042875	108.000000	nontarget	13.000000	na
80.730127	0.050243	108.000000	nontarget	14.000000	na
80.780370	0.039641	108.000000	nontarget	15.000000	na
80.820011	0.043902	108.000000	nontarget	16.000000	na
80.863913	0.050273	109.000000	nontarget	1.000000	na
80.914186	0.039402	109.000000	nontarget	2.000000	na
80.953587	0.045732	109.000000	nontarget	3.000000	na
80.999319	0.047422	109.000000	nontarget	4.000000	na
81.046741	0.039389	109.000000	nontarget	5.000000	na
81.086130	0.044258	109.000000	nontarget	6.000000	na
81.130388	0.039057	109.000000	nontarget	7.000000	na
81.169445	0.044619	109.000000	nontarget	8.000000	81.197834
81.214064	0.038795	109.000000	nontarget	9.000000	na
81.252858	0.044937	109.000000	nontarget	10.000000	na
81.297796	0.049840	109.000000	nontarget	11.000000	na
81.347635	0.039330	109.000000	nontarget	12.000000	na
81.386966	0.043031	109.000000	nontarget	13.000000	na
81.429997	0.040576	109.000000	nontarget	14.000000	na
81.470573	0.043520	109.000000	nontarget	15.000000	na
81.514093	0.039767	109.000000	nontarget	16.000000	na
81.553860	0.043006	110.000000	target	1.000000	na
81.596866	0.049947	110.000000	target	2.000000	na
81.646813	0.040218	110.000000	target	3.000000	na
81.687031	0.043426	110.000000	target	4.000000	na
81.730458	0.039825	110.000000	target	5.000000	na
81.770283	0.043664	110.000000	target	6.000000	na
81.813947	0.039883	110.000000	target	7.000000	na
81.853830	0.043529	110.000000	target	8.000000	na
81.897360	0.038573	110.000000	target	9.000000	na
81.935932	0.044666	110.000000	target	10.000000	na
81.980598	0.049652	110.000000	target	11.000000	na
82.030251	0.039398	110.000000	target	12.000000	na
82.069649	0.043892	110.000000	target	13.000000	na
82.113541	0.039060	110.000000	target	14.000000	na
82.152601	0.044160	110.000000	target	15.000000	na
82.196761	0.040336	110.000000	target	16.000000	82.205904
82.237097	0.042896	111.000000	nontarget	1.000000	82.242809
82.279993	0.040003	111.000000	nontarget	2.000000	na
82.319996	0.044344	111.000000	nontarget	3.000000	na
82.364341	0.039075	111.000000	nontarget	4.000000	na
82.403416	0.043995	111.000000	nontarget	5.000000	na
82.447411	0.038834	111.000000	nontarget	6.000000	na
82.486245	0.044792	111.000000	nontarget	7.000000	na
82.531037	0.038397	111.000000	nontarget	8.000000	na
82.569434	0.044639	111.000000	nontarget	9.000000	na
82.614073	0.038517	111.000000	nontarget	10.000000	na
82.652590	0.044931	111.000000	nontarget	11.000000	na
82.697522	0.038956	111.000000	nontarget	12.000000	na
82.736477	0.043383	111.000000	nontarget	13.000000	na
82.779860	0.039592	111.000000	nontarget	14.000000	na
82.819452	0.044688	111.000000	nontarget	15.000000	na
82.864140	0.039151	111.000000	nontarget	16.000000	na
82.903290	0.044499	112.000000	nontarget	1.000000	na
82.947790	0.038242	112.000000	nontarget	2.000000	na
82.986031	0.044657	112.000000	nontarget	3.000000	na
83.030688	0.049489	112.000000	nontarget	4.000000	83.054450
83.080177	0.050414	112.000000	nontarget	5.000000	na
83.130590	0.050238	112.000000	nontarget	6.000000	na
83.180829	0.050061	112.000000	nontarget	7.000000	na
83.230890	0.049921	112.000000	nontarget	8.000000	na
83.280811	0.038423	112.000000	nontarget	9.000000	na
83.319234	0.044189	112.000000	nontarget	10.000000	na
83.363423	0.039981	112.000000	nontarget	11.000000	na
83.403405	0.044050	112.000000	nontarget	12.000000	na
83.447454	0.049937	112.000000	nontarget	13.000000	na
83.497391	0.049667	112.000000	nontarget	14.000000	na
83.547058	0.050272	112.000000	nontarget	15.000000	na
83.597330	0.050107	112.000000	nontarget	16.000000	na
83.647437	0.038936	113.000000	target	1.000000	na
83.686374	0.044070	113.000000	target	2.000000	na
83.730444	0.039118	113.000000	target	3.000000	na
83.769562	0.043899	113.000000	target	4.000000	na
83.813461	0.039899	113.000000	target	5.000000	na
83.853360	0.043884	113.000000	target	6.000000	na
83.897244	0.049514	113.000000	target	7.000000	na
83.946758	0.039986	113.000000	target	8.000000	na
83.986745	0.043464	113.000000	target	9.000000	na
84.030209	0.039043	113.000000	target	10.000000	na
84.069251	0.044887	113.000000	target	11.000000	na
84.114139	0.039415	113.000000	target	12.000000	na
84.153553	0.043629	113.000000	target	13.000000	na
84.197182	0.039247	113.000000	target	14.000000	na
84.236429	0.044043	113.000000	target	15.000000	na
84.280473	0.038767	113.000000	target	16.000000	na
84.319240	0.045161	114.000000	nontarget	1.000000	na
84.364401	0.038383	114.000000	nontarget	2.000000	na
84.402784	0.044661	114.000000	nontarget	3.000000	na
84.447445	0.038886	114.000000	nontarget	4.000000	na
84.486331	0.043979	114.000000	nontarget	5.000000	na
84.530310	0.039787	114.000000	nontarget	6.000000	na
84.570097	0.043821	114.000000	nontarget	7.000000	84.575983
84.613918	0.050106	114.000000	nontarget	8.000000	na
84.664024	0.038974	114.000000	nontarget	9.000000	na
84.702998	0.044049	114.000000	nontarget	10.000000	na
84.747047	0.039831	114.000000	nontarget	11.000000	na
84.786878	0.043983	114.000000	nontarget	12.000000	na
84.830861	0.039386	114.000000	nontarget	13.000000	na
84.870247	0.043079	114.000000	nontarget	14.000000	na
84.913327	0.039722	114.000000	nontarget	15.000000	na
84.953049	0.046150	114.000000	nontarget	16.000000	na
84.999199	0.047343	115.000000	nontarget	1.000000	na
85.046542	0.039937	115.000000	nontarget	2.000000	na
85.086479	0.043505	115.000000	nontarget	3.000000	na
85.129984	0.050609	115.000000	nontarget	4.000000	na
85.180594	0.049494	115.000000	nontarget	5.000000	na
85.230088	0.050674	115.000000	nontarget	6.000000	na
85.280762	0.049197	115.000000	nontarget	7.000000	na
85.329959	0.040159	115.000000	nontarget	8.000000	na
85.370118	0.043880	115.000000	nontarget	9.000000	85.387813
85.413998	0.039382	115.000000	nontarget	10.000000	na
85.453380	0.043258	115.000000	nontarget	11.000000	na
85.496638	0.039974	115.000000	nontarget	12.000000	na
85.536611	0.044193	115.000000	nontarget	13.000000	na
85.580804	0.038468	115.000000	nontarget	14.000000	na
85.619272	0.044121	115.000000	nontarget	15.000000	na
85.663393	0.040181	115.000000	nontarget	16.000000	na
85.703574	0.043826	116.000000	nontarget	1.000000	na
85.747400	0.038456	116.000000	nontarget	2.000000	na
85.785856	0.044727	116.000000	nontarget	3.000000	na
85.830583	0.038638	116.000000	nontarget	4.000000	na
85.869221	0.045099	116.000000	nontarget	5.000000	na
85.914320	0.049768	116.000000	nontarget	6.000000	na
85.964088	0.038644	116.000000	nontarget	7.000000	na
86.002732	0.044109	116.000000	nontarget	8.000000	na
86.046840	0.039737	116.000000	nontarget	9.000000	na
86.086577	0.043712	116.000000	nontarget	10.000000	na
86.130289	0.039785	116.000000	nontarget	11.000000	na
86.170075	0.043616	116.000000	nontarget	12.000000	na
86.213691	0.050266	116.000000	nontarget	13.000000	86.233395
86.263957	0.049415	116.000000	nontarget	14.000000	na
86.313372	0.039324	116.000000	nontarget	15.000000	na
86.352696	0.044164	116.000000	nontarget	16.000000	na
86.396860	0.039785	117.000000	nontarget	1.000000	na
86.436644	0.043503	117.000000	nontarget	2.000000	na
86.480148	0.039573	117.000000	nontarget	3.000000	na
86.519721	0.044153	117.000000	nontarget	4.000000	na
86.563874	0.038414	117.000000	nontarget	5.000000	na
86.602287	0.044397	117.000000	nontarget	6.000000	na
86.646684	0.039968	117.000000	nontarget	7.000000	na
86.686652	0.043217	117.000000	nontarget	8.000000	na
86.729869	0.039226	117.000000	nontarget	9.000000	na
86.769095	0.044393	117.000000	nontarget	10.000000	na
86.813488	0.038751	117.000000	nontarget	11.000000	na
86.852239	0.045188	117.000000	nontarget	12.000000	na
86.897427	0.038310	117.000000	nontarget	13.000000	na
86.935737	0.044617	117.000000	nontarget	14.000000	na
86.980354	0.050343	117.000000	nontarget	15.000000	na
87.030696	0.049939	117.000000	nontarget	16.000000	na
87.080635	0.050416	118.000000	nontarget	1.000000	na
87.131051	0.049805	118.000000	nontarget	2.000000	na
87.180856	0.049916	118.000000	nontarget	3.000000	na
87.230772	0.049228	118.000000	nontarget	4.000000	87.261488
87.280000	0.038953	118.000000	nontarget	5.000000	na
87.318953	0.045163	118.000000	nontarget	6.000000	na
87.364115	0.038182	118.000000	nontarget	7.000000	na
87.402297	0.044192	118.000000	nontarget	8.000000	na
87.446489	0.040358	118.000000	nontarget	9.000000	na
87.486847	0.043422	118.000000	nontarget	10.000000	na
87.530269	0.039375	118.000000	nontarget	11.000000	na
87.569644	0.043597	118.000000	nontarget	12.000000	na
87.613240	0.039691	118.000000	nontarget	13.000000	na
87.652931	0.044457	118.000000	nontarget	14.000000	na
87.697389	0.038425	118.000000	nontarget	15.000000	na
87.735814	0.044669	118.000000	nontarget	16.000000	na
87.780483	0.038906	119.000000	nontarget	1.000000	na
87.819389	0.043885	119.000000	nontarget	2.000000	na
87.863274	0.039646	119.000000	nontarget	3.000000	na
87.902920	0.044490	119.000000	nontarget	4.000000	na
87.947410	0.039387	119.000000	nontarget	5.000000	na
87.986797	0.043961	119.000000	nontarget	6.000000	88.010340
88.030758	0.038920	119.000000	nontarget	7.000000	na
88.069678	0.044020	119.000000	nontarget	8.000000	na
88.113698	0.050412	119.000000	nontarget	9.000000	na
88.164110	0.038631	119.000000	nontarget	10.000000	na
88.202741	0.044605	119.000000	nontarget	11.000000	na
88.247347	0.038698	119.000000	nontarget	12.000000	na
88.286045	0.043871	119.000000	nontarget	13.000000	na
88.329916	0.040128	119.000000	nontarget	14.000000	na
88.370044	0.043402	119.000000	nontarget	15.000000	na
88.413446	0.039176	119.000000	nontarget	16.000000	na
88.452622	0.044675	120.000000	nontarget	1.000000	na
88.497297	0.039053	120.000000	nontarget	2.000000	na
88.536350	0.043844	120.000000	nontarget	3.000000	na
88.580194	0.039574	120.000000	nontarget	4.000000	na
88.619768	0.044190	120.000000	nontarget	5.000000	na
88.663958	0.038404	120.000000	nontarget	6.000000	na
88.702362	0.045045	120.000000	nontarget	7.000000	na
88.747407	0.049610	120.000000	nontarget	8.000000	88.770444
88.797017	0.049762	120.000000	nontarget	9.000000	na
88.846778	0.039031	120.000000	nontarget	10.000000	na
88.885810	0.044661	120.000000	nontarget	11.000000	na
88.930471	0.038691	120.000000	nontarget	12.000000	na
88.969161	0.044843	120.000000	nontarget	13.000000	na
89.014004	0.050048	120.000000	nontarget	14.000000	na
89.064052	0.050022	120.000000	nontarget	15.000000	na
89.114074	0.049890	120.000000	nontarget	16.000000	na
89.163964	0.050198	121.000000	nontarget	1.000000	na
89.214162	0.049993	121.000000	nontarget	2.000000	na
89.264155	0.038212	121.000000	nontarget	3.000000	na
89.302367	0.044869	121.000000	nontarget	4.000000	na
89.347236	0.039132	121.000000	nontarget	5.000000	na
89.386368	0.044103	121.000000	nontarget	6.000000	na
89.430471	0.038968	121.000000	nontarget	7.000000	na
89.469439	0.044415	121.000000	nontarget	8.000000	na
89.513854	0.039242	121.000000	nontarget	9.000000	na
89.553096	0.043708	121.000000	nontarget	10.000000	na
89.596803	0.038584	121.000000	nontarget	11.000000	na
89.635387	0.044954	121.000000	nontarget	12.000000	na
89.680341	0.039482	121.000000	nontarget	13.000000	na
89.719823	0.044357	121.000000	nontarget	14.000000	na
89.764180	0.049292	121.000000	nontarget	15.000000	89.798993
89.813472	0.039787	121.000000	nontarget	16.000000	na
