onset	duration	trial_number	stim_type	trial_type	accuracy	response_time
13.049016	0.999950	1.000000	face	nontarget	correct	0.486536
14.048966	0.999822	1.000000	fixation	nontarget	na	na
15.048787	1.000023	2.000000	face	nontarget	correct	0.470569
16.048811	0.999824	2.000000	fixation	nontarget	na	na
17.048634	1.000027	3.000000	face	nontarget	correct	0.603787
18.048662	0.999824	3.000000	fixation	nontarget	na	na
19.048486	0.999920	4.000000	face	target	correct	 NaN
20.048406	0.999926	4.000000	fixation	target	na	na
21.048332	0.999924	5.000000	face	target	correct	 NaN
22.048256	0.999926	5.000000	fixation	target	na	na
23.048182	1.000019	6.000000	face	nontarget	correct	0.628126
24.048201	0.999831	6.000000	fixation	nontarget	na	na
25.048032	1.000021	7.000000	face	nontarget	correct	0.742184
26.048053	0.999825	7.000000	fixation	nontarget	na	na
27.047878	1.000050	8.000000	face	nontarget	correct	0.540143
28.047927	0.999801	8.000000	fixation	nontarget	na	na
29.047729	1.000028	9.000000	face	nontarget	correct	0.476646
30.047757	0.999820	9.000000	fixation	nontarget	na	na
31.047577	1.000035	10.000000	face	nontarget	correct	0.520481
32.047612	0.999816	10.000000	fixation	nontarget	na	na
33.047428	1.000026	11.000000	face	nontarget	correct	0.411411
34.047454	0.999822	11.000000	fixation	nontarget	na	na
35.047275	1.000026	12.000000	face	nontarget	correct	0.523627
36.047301	0.999825	12.000000	fixation	nontarget	na	na
37.047126	1.000027	13.000000	face	nontarget	correct	0.390605
38.047153	0.999823	13.000000	fixation	nontarget	na	na
39.046976	1.000050	14.000000	face	nontarget	correct	0.511706
40.047026	0.999800	14.000000	fixation	nontarget	na	na
41.046826	1.000029	15.000000	face	nontarget	correct	0.601944
42.046855	0.999819	15.000000	fixation	nontarget	na	na
43.046674	0.999981	16.000000	face	nontarget	correct	0.755959
44.046654	0.999867	16.000000	fixation	nontarget	na	na
45.046521	1.000051	17.000000	face	nontarget	correct	0.615007
46.046572	0.999800	17.000000	fixation	nontarget	na	na
47.046372	1.000050	18.000000	face	nontarget	correct	0.548819
48.046422	0.999800	18.000000	fixation	nontarget	na	na
49.046222	1.000015	19.000000	face	nontarget	correct	0.411240
50.046238	0.999854	19.000000	fixation	nontarget	na	na
51.046092	0.999902	20.000000	face	target	correct	 NaN
52.045994	0.999923	20.000000	fixation	target	na	na
53.045917	1.000026	21.000000	face	nontarget	correct	0.441522
54.045943	0.999824	21.000000	fixation	nontarget	na	na
55.045768	1.000016	22.000000	face	nontarget	correct	0.491238
56.045783	0.999833	22.000000	fixation	nontarget	na	na
57.045616	1.000030	23.000000	face	nontarget	correct	0.568933
58.045647	0.999820	23.000000	fixation	nontarget	na	na
59.045466	1.000048	24.000000	face	nontarget	correct	0.561725
60.045514	0.999801	24.000000	fixation	nontarget	na	na
61.045316	0.999997	25.000000	face	nontarget	correct	0.484795
62.045312	0.999953	25.000000	fixation	nontarget	na	na
63.045266	0.999924	26.000000	face	nontarget	correct	0.607113
64.045190	0.999823	26.000000	fixation	nontarget	na	na
65.045013	1.000024	27.000000	face	nontarget	correct	0.537346
66.045037	0.999826	27.000000	fixation	nontarget	na	na
67.044862	0.999965	28.000000	face	nontarget	correct	0.758052
68.044827	0.999883	28.000000	fixation	nontarget	na	na
69.044711	1.000008	29.000000	face	nontarget	correct	0.749249
70.044719	0.999837	29.000000	fixation	nontarget	na	na
71.044556	1.000030	30.000000	face	nontarget	correct	0.579335
72.044586	0.999823	30.000000	fixation	nontarget	na	na
73.044409	1.000048	31.000000	face	nontarget	correct	0.602392
74.044457	0.999804	31.000000	fixation	nontarget	na	na
75.044261	1.000023	32.000000	face	nontarget	correct	0.655477
76.044284	0.999828	32.000000	fixation	nontarget	na	na
77.044112	1.000039	33.000000	face	nontarget	correct	0.526630
78.044151	0.999813	33.000000	fixation	nontarget	na	na
79.043964	1.000020	34.000000	face	nontarget	correct	0.738787
80.043983	0.999825	34.000000	fixation	nontarget	na	na
81.043808	1.000048	35.000000	face	nontarget	correct	0.712726
82.043856	0.999800	35.000000	fixation	nontarget	na	na
83.043656	0.999925	36.000000	face	target	correct	 NaN
84.043582	0.999918	36.000000	fixation	target	na	na
85.043500	1.000058	37.000000	face	nontarget	correct	0.388014
86.043558	0.999800	37.000000	fixation	nontarget	na	na
87.043357	1.000036	38.000000	face	nontarget	correct	0.454040
88.043393	0.999822	38.000000	fixation	nontarget	na	na
89.043215	1.000024	39.000000	face	nontarget	correct	0.640534
90.043240	0.999813	39.000000	fixation	nontarget	na	na
91.043052	1.000028	40.000000	face	nontarget	correct	0.512251
92.043080	0.999931	40.000000	fixation	nontarget	na	na
93.043010	0.999927	41.000000	face	nontarget	correct	0.472198
94.042937	0.999918	41.000000	fixation	nontarget	na	na
95.042855	0.999923	42.000000	face	nontarget	correct	0.544288
96.042778	0.999823	42.000000	fixation	nontarget	na	na
97.042601	0.999923	43.000000	face	target	correct	 NaN
98.042524	0.999940	43.000000	fixation	target	na	na
99.042464	1.000018	44.000000	face	nontarget	correct	0.448090
100.042483	0.999816	44.000000	fixation	nontarget	na	na
101.042299	1.000024	45.000000	face	nontarget	correct	0.492498
102.042322	0.999826	45.000000	fixation	nontarget	na	na
103.042148	0.999963	46.000000	face	nontarget	correct	0.520949
104.042111	0.999885	46.000000	fixation	nontarget	na	na
105.041996	1.000027	47.000000	face	nontarget	correct	0.575250
106.042024	0.999821	47.000000	fixation	nontarget	na	na
107.041845	0.999922	48.000000	face	nontarget	incorrect	 NaN
108.041766	0.999921	48.000000	fixation	nontarget	na	na
109.041687	1.000034	49.000000	face	target	incorrect	0.274405
110.041721	0.999822	49.000000	fixation	target	na	na
111.041542	1.000024	50.000000	face	nontarget	correct	0.522284
112.041566	0.999826	50.000000	fixation	nontarget	na	na
113.041393	0.999925	51.000000	face	target	correct	 NaN
114.041317	0.999925	51.000000	fixation	target	na	na
115.041242	1.000052	52.000000	face	nontarget	correct	0.508404
116.041294	0.999797	52.000000	fixation	nontarget	na	na
117.041091	1.000031	53.000000	face	nontarget	correct	0.539628
118.041122	0.999816	53.000000	fixation	nontarget	na	na
119.040938	1.000025	54.000000	face	nontarget	correct	0.536693
120.040963	0.999824	54.000000	fixation	nontarget	na	na
121.040787	1.000026	55.000000	face	nontarget	correct	0.499711
122.040813	0.999823	55.000000	fixation	nontarget	na	na
123.040636	1.000024	56.000000	face	nontarget	correct	0.546090
124.040660	0.999825	56.000000	fixation	nontarget	na	na
125.040485	1.000027	57.000000	face	nontarget	correct	0.737898
126.040512	0.999823	57.000000	fixation	nontarget	na	na
127.040335	1.000034	58.000000	face	nontarget	correct	0.592991
128.040368	0.999815	58.000000	fixation	nontarget	na	na
129.040183	0.999930	59.000000	face	nontarget	correct	0.642976
130.040113	0.999919	59.000000	fixation	nontarget	na	na
131.040032	1.000025	60.000000	face	nontarget	correct	0.689787
132.040057	0.999824	60.000000	fixation	nontarget	na	na
133.039881	1.000054	61.000000	face	nontarget	correct	0.748319
134.039934	0.999796	61.000000	fixation	nontarget	na	na
135.039731	1.000050	62.000000	face	nontarget	correct	0.717359
136.039781	0.999814	62.000000	fixation	nontarget	na	na
137.039594	1.000041	63.000000	face	nontarget	correct	0.604564
138.039636	0.999793	63.000000	fixation	nontarget	na	na
139.039428	0.999923	64.000000	face	target	correct	 NaN
140.039351	0.999928	64.000000	fixation	target	na	na
141.039279	1.000048	65.000000	face	nontarget	correct	0.485673
142.039327	0.999801	65.000000	fixation	nontarget	na	na
143.039128	0.999922	66.000000	face	nontarget	incorrect	 NaN
144.039050	0.999926	66.000000	fixation	nontarget	na	na
145.038976	1.000009	67.000000	face	target	incorrect	0.384024
146.038985	0.999839	67.000000	fixation	target	na	na
147.038824	1.000024	68.000000	face	nontarget	correct	0.520535
148.038847	0.999826	68.000000	fixation	nontarget	na	na
149.038673	1.000047	69.000000	face	nontarget	correct	0.593140
150.038720	0.999801	69.000000	fixation	nontarget	na	na
151.038521	0.999956	70.000000	face	nontarget	correct	0.646128
152.038477	0.999896	70.000000	fixation	nontarget	na	na
153.038373	1.000021	71.000000	face	nontarget	correct	0.684219
154.038395	0.999824	71.000000	fixation	nontarget	na	na
155.038219	1.000033	72.000000	face	nontarget	correct	0.523176
156.038252	0.999819	72.000000	fixation	nontarget	na	na
157.038071	1.000025	73.000000	face	nontarget	correct	0.702432
158.038096	0.999819	73.000000	fixation	nontarget	na	na
159.037916	1.000052	74.000000	face	nontarget	correct	0.867538
160.037967	0.999800	74.000000	fixation	nontarget	na	na
161.037768	1.000021	75.000000	face	nontarget	correct	0.810683
162.037789	0.999827	75.000000	fixation	nontarget	na	na
163.037615	1.000025	76.000000	face	nontarget	correct	0.606484
164.037641	0.999826	76.000000	fixation	nontarget	na	na
165.037467	0.999922	77.000000	face	nontarget	correct	1.135790
166.037388	1.000054	77.000000	fixation	nontarget	na	na
167.037442	0.999893	78.000000	face	nontarget	correct	0.666857
168.037336	0.999825	78.000000	fixation	nontarget	na	na
169.037161	1.000023	79.000000	face	nontarget	correct	0.645171
170.037184	0.999826	79.000000	fixation	nontarget	na	na
171.037010	1.000054	80.000000	face	nontarget	correct	0.675262
172.037064	0.999795	80.000000	fixation	nontarget	na	na
173.036859	1.000044	81.000000	face	nontarget	correct	0.504186
174.036902	0.999822	81.000000	fixation	nontarget	na	na
175.036724	1.000051	82.000000	face	nontarget	correct	0.569404
176.036775	0.999782	82.000000	fixation	nontarget	na	na
177.036558	1.000023	83.000000	face	nontarget	correct	0.544537
178.036581	0.999821	83.000000	fixation	nontarget	na	na
179.036402	1.000030	84.000000	face	nontarget	correct	0.681971
180.036432	0.999822	84.000000	fixation	nontarget	na	na
181.036255	1.000027	85.000000	face	nontarget	correct	0.645592
182.036282	0.999822	85.000000	fixation	nontarget	na	na
183.036103	1.000050	86.000000	face	nontarget	correct	0.829847
184.036153	0.999805	86.000000	fixation	nontarget	na	na
185.035958	1.000032	87.000000	face	nontarget	correct	0.702905
186.035991	0.999810	87.000000	fixation	nontarget	na	na
187.035801	1.000036	88.000000	face	nontarget	correct	0.628241
188.035837	0.999813	88.000000	fixation	nontarget	na	na
189.035649	1.000048	89.000000	face	nontarget	correct	0.678104
190.035697	0.999803	89.000000	fixation	nontarget	na	na
191.035501	1.000050	90.000000	face	nontarget	correct	0.679894
192.035551	5.999522	90.000000	fixation	nontarget	na	na
198.035073	0.999945	91.000000	scene	nontarget	correct	0.486459
199.035018	0.999802	91.000000	fixation	nontarget	na	na
200.034820	1.000049	92.000000	scene	nontarget	correct	0.420545
201.034869	0.999801	92.000000	fixation	nontarget	na	na
202.034670	1.000048	93.000000	scene	nontarget	correct	0.540866
203.034718	0.999810	93.000000	fixation	nontarget	na	na
204.034527	1.000015	94.000000	scene	nontarget	correct	0.547718
205.034542	0.999823	94.000000	fixation	nontarget	na	na
206.034366	1.000024	95.000000	scene	nontarget	correct	0.442950
207.034389	0.999823	95.000000	fixation	nontarget	na	na
208.034213	1.000050	96.000000	scene	nontarget	correct	0.533064
209.034263	0.999801	96.000000	fixation	nontarget	na	na
210.034064	1.000028	97.000000	scene	target	incorrect	0.611003
211.034092	0.999822	97.000000	fixation	target	na	na
212.033914	1.000014	98.000000	scene	nontarget	correct	0.568810
213.033928	0.999857	98.000000	fixation	nontarget	na	na
214.033785	1.000024	99.000000	scene	nontarget	correct	0.512214
215.033809	0.999798	99.000000	fixation	nontarget	na	na
216.033607	1.000050	100.000000	scene	nontarget	correct	0.644397
217.033657	0.999800	100.000000	fixation	nontarget	na	na
218.033457	1.000050	101.000000	scene	nontarget	correct	0.849478
219.033507	0.999801	101.000000	fixation	nontarget	na	na
220.033308	1.000024	102.000000	scene	nontarget	correct	0.874586
221.033332	0.999827	102.000000	fixation	nontarget	na	na
222.033159	1.000018	103.000000	scene	nontarget	correct	0.807918
223.033177	0.999828	103.000000	fixation	nontarget	na	na
224.033005	1.000047	104.000000	scene	nontarget	correct	0.656104
225.033052	0.999800	104.000000	fixation	nontarget	na	na
226.032852	1.000052	105.000000	scene	nontarget	correct	0.561925
227.032904	0.999797	105.000000	fixation	nontarget	na	na
228.032700	1.000048	106.000000	scene	nontarget	correct	0.749030
229.032748	0.999786	106.000000	fixation	nontarget	na	na
230.032534	1.000043	107.000000	scene	nontarget	correct	0.795119
231.032578	0.999856	107.000000	fixation	nontarget	na	na
232.032434	0.999997	108.000000	scene	nontarget	correct	0.655341
233.032431	0.999816	108.000000	fixation	nontarget	na	na
234.032246	1.000049	109.000000	scene	nontarget	correct	0.697207
235.032295	0.999804	109.000000	fixation	nontarget	na	na
236.032099	1.000028	110.000000	scene	nontarget	correct	0.830409
237.032128	0.999817	110.000000	fixation	nontarget	na	na
238.031945	0.999925	111.000000	scene	nontarget	correct	0.974358
239.031870	1.000013	111.000000	fixation	nontarget	na	na
240.031883	0.999833	112.000000	scene	target	correct	 NaN
241.031716	0.999936	112.000000	fixation	target	na	na
242.031652	1.000050	113.000000	scene	nontarget	correct	0.515559
243.031702	0.999794	113.000000	fixation	nontarget	na	na
244.031496	1.000022	114.000000	scene	nontarget	correct	0.696762
245.031518	0.999822	114.000000	fixation	nontarget	na	na
246.031340	1.000049	115.000000	scene	nontarget	correct	0.599701
247.031389	0.999799	115.000000	fixation	nontarget	na	na
248.031188	1.000031	116.000000	scene	nontarget	correct	0.627995
249.031219	0.999817	116.000000	fixation	nontarget	na	na
250.031035	1.000028	117.000000	scene	nontarget	correct	0.789924
251.031063	0.999816	117.000000	fixation	nontarget	na	na
252.030879	1.000036	118.000000	scene	nontarget	correct	0.649223
253.030915	0.999816	118.000000	fixation	nontarget	na	na
254.030731	0.999902	119.000000	scene	target	correct	 NaN
255.030633	0.999950	119.000000	fixation	target	na	na
256.030583	1.000034	120.000000	scene	target	incorrect	0.396615
257.030617	0.999814	120.000000	fixation	target	na	na
258.030431	0.999925	121.000000	scene	target	correct	 NaN
259.030356	0.999923	121.000000	fixation	target	na	na
260.030280	1.000014	122.000000	scene	nontarget	correct	0.396664
261.030293	0.999835	122.000000	fixation	nontarget	na	na
262.030128	1.000047	123.000000	scene	nontarget	correct	0.460112
263.030175	0.999802	123.000000	fixation	nontarget	na	na
264.029977	1.000048	124.000000	scene	nontarget	correct	0.853762
265.030025	0.999800	124.000000	fixation	nontarget	na	na
266.029825	1.000025	125.000000	scene	nontarget	correct	0.644700
267.029850	0.999825	125.000000	fixation	nontarget	na	na
268.029675	1.000058	126.000000	scene	nontarget	correct	0.595831
269.029733	0.999826	126.000000	fixation	nontarget	na	na
270.029559	1.000015	127.000000	scene	nontarget	correct	0.574995
271.029574	0.999801	127.000000	fixation	nontarget	na	na
272.029375	1.000021	128.000000	scene	nontarget	correct	0.691173
273.029397	0.999826	128.000000	fixation	nontarget	na	na
274.029222	1.000046	129.000000	scene	nontarget	correct	0.535233
275.029268	0.999802	129.000000	fixation	nontarget	na	na
276.029069	1.000050	130.000000	scene	nontarget	correct	0.507314
277.029119	0.999797	130.000000	fixation	nontarget	na	na
278.028916	1.000053	131.000000	scene	nontarget	correct	0.448475
279.028969	0.999812	131.000000	fixation	nontarget	na	na
280.028781	0.999912	132.000000	scene	nontarget	correct	0.970376
281.028693	0.999922	132.000000	fixation	nontarget	na	na
282.028615	1.000024	133.000000	scene	nontarget	correct	0.776836
283.028639	0.999826	133.000000	fixation	nontarget	na	na
284.028464	1.000025	134.000000	scene	nontarget	correct	0.761692
285.028489	0.999824	134.000000	fixation	nontarget	na	na
286.028313	0.999925	135.000000	scene	target	correct	 NaN
287.028238	0.999927	135.000000	fixation	target	na	na
288.028165	0.999934	136.000000	scene	target	correct	 NaN
289.028099	0.999921	136.000000	fixation	target	na	na
290.028020	1.000014	137.000000	scene	nontarget	correct	0.420005
291.028035	0.999827	137.000000	fixation	nontarget	na	na
292.027862	1.000046	138.000000	scene	target	incorrect	0.511989
293.027908	0.999802	138.000000	fixation	target	na	na
294.027710	1.000049	139.000000	scene	nontarget	correct	0.665093
295.027758	0.999800	139.000000	fixation	nontarget	na	na
296.027558	1.000028	140.000000	scene	nontarget	correct	0.782294
297.027586	0.999821	140.000000	fixation	nontarget	na	na
298.027407	1.000029	141.000000	scene	nontarget	correct	0.499623
299.027436	0.999821	141.000000	fixation	nontarget	na	na
300.027257	1.000045	142.000000	scene	nontarget	correct	0.527891
301.027301	0.999802	142.000000	fixation	nontarget	na	na
302.027103	0.999963	143.000000	scene	nontarget	correct	0.699603
303.027066	0.999870	143.000000	fixation	nontarget	na	na
304.026936	1.000042	144.000000	scene	nontarget	correct	0.571597
305.026978	0.999821	144.000000	fixation	nontarget	na	na
306.026799	1.000050	145.000000	scene	nontarget	correct	0.752866
307.026850	0.999796	145.000000	fixation	nontarget	na	na
308.026646	1.000058	146.000000	scene	nontarget	correct	0.737899
309.026704	0.999791	146.000000	fixation	nontarget	na	na
310.026495	1.000055	147.000000	scene	nontarget	correct	0.914964
311.026550	0.999794	147.000000	fixation	nontarget	na	na
312.026344	1.000025	148.000000	scene	nontarget	correct	0.596008
313.026369	0.999825	148.000000	fixation	nontarget	na	na
314.026194	1.000050	149.000000	scene	nontarget	correct	0.771036
315.026244	0.999801	149.000000	fixation	nontarget	na	na
316.026045	1.000047	150.000000	scene	nontarget	correct	0.545213
317.026092	0.999821	150.000000	fixation	nontarget	na	na
318.025913	1.000036	151.000000	scene	nontarget	correct	0.581238
319.025948	0.999792	151.000000	fixation	nontarget	na	na
320.025741	1.000024	152.000000	scene	nontarget	correct	0.897477
321.025764	0.999824	152.000000	fixation	nontarget	na	na
322.025588	1.000048	153.000000	scene	nontarget	correct	0.625535
323.025636	0.999800	153.000000	fixation	nontarget	na	na
324.025437	1.000029	154.000000	scene	nontarget	correct	0.643566
325.025466	0.999820	154.000000	fixation	nontarget	na	na
326.025286	1.000068	155.000000	scene	nontarget	correct	0.660999
327.025353	0.999789	155.000000	fixation	nontarget	na	na
328.025143	1.000013	156.000000	scene	nontarget	correct	0.501550
329.025155	0.999827	156.000000	fixation	nontarget	na	na
330.024982	1.000024	157.000000	scene	nontarget	correct	0.545878
331.025006	0.999824	157.000000	fixation	nontarget	na	na
332.024830	1.000028	158.000000	scene	nontarget	correct	0.598912
333.024858	0.999822	158.000000	fixation	nontarget	na	na
334.024680	0.999925	159.000000	scene	nontarget	incorrect	 NaN
335.024604	0.999922	159.000000	fixation	nontarget	na	na
336.024527	1.000059	160.000000	scene	nontarget	correct	0.656238
337.024585	0.999793	160.000000	fixation	nontarget	na	na
338.024378	1.000025	161.000000	scene	nontarget	correct	0.604208
339.024404	0.999820	161.000000	fixation	nontarget	na	na
340.024223	1.000039	162.000000	scene	nontarget	correct	0.491299
341.024263	0.999810	162.000000	fixation	nontarget	na	na
342.024073	1.000052	163.000000	scene	nontarget	correct	0.463059
343.024125	0.999798	163.000000	fixation	nontarget	na	na
344.023923	0.999958	164.000000	scene	nontarget	correct	0.654879
345.023881	0.999890	164.000000	fixation	nontarget	na	na
346.023771	1.000054	165.000000	scene	nontarget	correct	0.664686
347.023825	0.999794	165.000000	fixation	nontarget	na	na
348.023619	1.000027	166.000000	scene	nontarget	correct	0.727802
349.023645	0.999822	166.000000	fixation	nontarget	na	na
350.023468	1.000027	167.000000	scene	nontarget	correct	0.605906
351.023495	0.999821	167.000000	fixation	nontarget	na	na
352.023315	1.000053	168.000000	scene	nontarget	correct	0.524902
353.023368	0.999799	168.000000	fixation	nontarget	na	na
354.023167	1.000048	169.000000	scene	nontarget	correct	0.633144
355.023215	0.999800	169.000000	fixation	nontarget	na	na
356.023015	1.000053	170.000000	scene	nontarget	correct	0.513072
357.023069	0.999792	170.000000	fixation	nontarget	na	na
358.022861	1.000022	171.000000	scene	nontarget	correct	0.784235
359.022883	0.999829	171.000000	fixation	nontarget	na	na
360.022712	1.000023	172.000000	scene	nontarget	correct	0.914479
361.022735	0.999824	172.000000	fixation	nontarget	na	na
362.022559	0.999923	173.000000	scene	target	correct	 NaN
363.022482	0.999928	173.000000	fixation	target	na	na
364.022410	1.000024	174.000000	scene	nontarget	correct	0.510496
365.022433	0.999826	174.000000	fixation	nontarget	na	na
366.022259	1.000021	175.000000	scene	nontarget	correct	0.705636
367.022279	0.999821	175.000000	fixation	nontarget	na	na
368.022101	0.999966	176.000000	scene	nontarget	correct	0.823665
369.022066	0.999885	176.000000	fixation	nontarget	na	na
370.021952	0.999925	177.000000	scene	nontarget	correct	1.019771
371.021876	1.000030	177.000000	fixation	nontarget	na	na
372.021906	0.999947	178.000000	scene	nontarget	correct	0.618091
373.021853	0.999798	178.000000	fixation	nontarget	na	na
374.021651	1.000038	179.000000	scene	nontarget	correct	0.758141
375.021689	0.999912	179.000000	fixation	nontarget	na	na
376.021601	0.999922	180.000000	scene	nontarget	correct	0.740987
377.021523	0.966108	180.000000	fixation	nontarget	na	na
