onset	duration	trial_number	trial_type	frame_number	time_of_response
8.065446	0.050244	1.000000	nontarget	1.000000	na
8.115690	0.049580	1.000000	nontarget	2.000000	na
8.165270	0.050390	1.000000	nontarget	3.000000	na
8.215660	0.049954	1.000000	nontarget	4.000000	na
8.265614	0.050073	1.000000	nontarget	5.000000	na
8.315686	0.050229	1.000000	nontarget	6.000000	na
8.365916	0.049685	1.000000	nontarget	7.000000	na
8.415601	0.049893	1.000000	nontarget	8.000000	na
8.465494	0.049920	1.000000	nontarget	9.000000	na
8.515414	0.050239	1.000000	nontarget	10.000000	na
8.565653	0.049809	1.000000	nontarget	11.000000	na
8.615462	0.050150	1.000000	nontarget	12.000000	na
8.665612	0.050031	1.000000	nontarget	13.000000	na
8.715644	0.049676	1.000000	nontarget	14.000000	8.751954
8.765320	0.049772	1.000000	nontarget	15.000000	na
8.815092	0.050551	1.000000	nontarget	16.000000	na
8.865643	0.050004	2.000000	nontarget	1.000000	8.872518
8.915647	0.049744	2.000000	nontarget	2.000000	na
8.965391	0.049792	2.000000	nontarget	3.000000	na
9.015182	0.050440	2.000000	nontarget	4.000000	na
9.065623	0.049911	2.000000	nontarget	5.000000	na
9.115534	0.050090	2.000000	nontarget	6.000000	na
9.165624	0.050011	2.000000	nontarget	7.000000	na
9.215635	0.049373	2.000000	nontarget	8.000000	na
9.265008	0.050342	2.000000	nontarget	9.000000	na
9.315349	0.050285	2.000000	nontarget	10.000000	na
9.365634	0.049335	2.000000	nontarget	11.000000	na
9.414970	0.050626	2.000000	nontarget	12.000000	na
9.465596	0.049661	2.000000	nontarget	13.000000	9.484811
9.515257	0.050425	2.000000	nontarget	14.000000	na
9.565681	0.049970	2.000000	nontarget	15.000000	na
9.615652	0.049890	2.000000	nontarget	16.000000	na
9.665542	0.050079	3.000000	nontarget	1.000000	na
9.715621	0.050002	3.000000	nontarget	2.000000	na
9.765623	0.049959	3.000000	nontarget	3.000000	na
9.815582	0.050005	3.000000	nontarget	4.000000	na
9.865588	0.050133	3.000000	nontarget	5.000000	na
9.915720	0.049425	3.000000	nontarget	6.000000	na
9.965146	0.050272	3.000000	nontarget	7.000000	na
10.015417	0.050268	3.000000	nontarget	8.000000	na
10.065685	0.049859	3.000000	nontarget	9.000000	na
10.115545	0.049710	3.000000	nontarget	10.000000	na
10.165255	0.050318	3.000000	nontarget	11.000000	na
10.215573	0.049362	3.000000	nontarget	12.000000	10.239348
10.264935	0.050600	3.000000	nontarget	13.000000	na
10.315535	0.050029	3.000000	nontarget	14.000000	na
10.365564	0.049921	3.000000	nontarget	15.000000	na
10.415484	0.049577	3.000000	nontarget	16.000000	na
10.465062	0.050613	4.000000	nontarget	1.000000	na
10.515675	0.049979	4.000000	nontarget	2.000000	na
10.565654	0.049912	4.000000	nontarget	3.000000	na
10.615565	0.050001	4.000000	nontarget	4.000000	na
10.665566	0.049481	4.000000	nontarget	5.000000	na
10.715047	0.050113	4.000000	nontarget	6.000000	na
10.765160	0.050406	4.000000	nontarget	7.000000	na
10.815567	0.050036	4.000000	nontarget	8.000000	na
10.865602	0.049731	4.000000	nontarget	9.000000	na
10.915334	0.049320	4.000000	nontarget	10.000000	na
10.964654	0.050506	4.000000	nontarget	11.000000	10.973423
11.015160	0.050461	4.000000	nontarget	12.000000	na
11.065622	0.049751	4.000000	nontarget	13.000000	na
11.115373	0.049384	4.000000	nontarget	14.000000	na
11.164756	0.050800	4.000000	nontarget	15.000000	na
11.215556	0.049524	4.000000	nontarget	16.000000	na
11.265080	0.050558	5.000000	nontarget	1.000000	na
11.315638	0.049922	5.000000	nontarget	2.000000	na
11.365560	0.050302	5.000000	nontarget	3.000000	na
11.415862	0.049713	5.000000	nontarget	4.000000	na
11.465575	0.050096	5.000000	nontarget	5.000000	na
11.515671	0.049687	5.000000	nontarget	6.000000	na
11.565358	0.050232	5.000000	nontarget	7.000000	na
11.615591	0.050061	5.000000	nontarget	8.000000	na
11.665652	0.049915	5.000000	nontarget	9.000000	na
11.715567	0.049430	5.000000	nontarget	10.000000	11.725481
11.764997	0.050286	5.000000	nontarget	11.000000	na
11.815284	0.050009	5.000000	nontarget	12.000000	na
11.865293	0.049849	5.000000	nontarget	13.000000	na
11.915141	0.050356	5.000000	nontarget	14.000000	na
11.965497	0.050235	5.000000	nontarget	15.000000	na
12.015732	0.049769	5.000000	nontarget	16.000000	na
12.065501	0.049632	6.000000	nontarget	1.000000	na
12.115133	0.049889	6.000000	nontarget	2.000000	na
12.165022	0.050108	6.000000	nontarget	3.000000	na
12.215130	0.050068	6.000000	nontarget	4.000000	na
12.265198	0.049806	6.000000	nontarget	5.000000	na
12.315004	0.050166	6.000000	nontarget	6.000000	na
12.365170	0.050098	6.000000	nontarget	7.000000	na
12.415268	0.050200	6.000000	nontarget	8.000000	na
12.465468	0.050129	6.000000	nontarget	9.000000	12.484664
12.515597	0.050008	6.000000	nontarget	10.000000	na
12.565605	0.050054	6.000000	nontarget	11.000000	na
12.615660	0.049775	6.000000	nontarget	12.000000	na
12.665435	0.050082	6.000000	nontarget	13.000000	na
12.715516	0.049503	6.000000	nontarget	14.000000	na
12.765019	0.049967	6.000000	nontarget	15.000000	na
12.814986	0.050329	6.000000	nontarget	16.000000	na
12.865315	0.049303	7.000000	nontarget	1.000000	na
12.914618	0.050943	7.000000	nontarget	2.000000	na
12.965561	0.049915	7.000000	nontarget	3.000000	na
13.015476	0.050095	7.000000	nontarget	4.000000	na
13.065572	0.049880	7.000000	nontarget	5.000000	na
13.115451	0.049653	7.000000	nontarget	6.000000	na
13.165104	0.050435	7.000000	nontarget	7.000000	na
13.215539	0.049995	7.000000	nontarget	8.000000	na
13.265534	0.050016	7.000000	nontarget	9.000000	na
13.315550	0.049548	7.000000	nontarget	10.000000	na
13.365099	0.050439	7.000000	nontarget	11.000000	na
13.415537	0.049804	7.000000	nontarget	12.000000	13.447407
13.465341	0.049460	7.000000	nontarget	13.000000	na
13.514801	0.050680	7.000000	nontarget	14.000000	na
13.565481	0.049996	7.000000	nontarget	15.000000	na
13.615477	0.049490	7.000000	nontarget	16.000000	na
13.664967	0.050402	8.000000	nontarget	1.000000	na
13.715369	0.050167	8.000000	nontarget	2.000000	na
13.765536	0.049937	8.000000	nontarget	3.000000	na
13.815473	0.050094	8.000000	nontarget	4.000000	na
13.865567	0.049917	8.000000	nontarget	5.000000	na
13.915484	0.049722	8.000000	nontarget	6.000000	na
13.965206	0.050383	8.000000	nontarget	7.000000	na
14.015589	0.049614	8.000000	nontarget	8.000000	na
14.065204	0.049661	8.000000	nontarget	9.000000	na
14.114864	0.050675	8.000000	nontarget	10.000000	na
14.165540	0.049205	8.000000	nontarget	11.000000	na
14.214745	0.050087	8.000000	nontarget	12.000000	na
14.264832	0.050872	8.000000	nontarget	13.000000	na
14.315704	0.049448	8.000000	nontarget	14.000000	na
14.365152	0.055284	8.000000	nontarget	15.000000	na
14.420436	0.044275	8.000000	nontarget	16.000000	14.427716
14.464710	0.050681	9.000000	nontarget	1.000000	14.470369
14.515392	0.049348	9.000000	nontarget	2.000000	na
14.564740	0.050525	9.000000	nontarget	3.000000	na
14.615265	0.049946	9.000000	nontarget	4.000000	na
14.665211	0.050297	9.000000	nontarget	5.000000	na
14.715508	0.050038	9.000000	nontarget	6.000000	na
14.765546	0.049984	9.000000	nontarget	7.000000	na
14.815530	0.049376	9.000000	nontarget	8.000000	na
14.864907	0.050610	9.000000	nontarget	9.000000	na
14.915517	0.050018	9.000000	nontarget	10.000000	na
14.965535	0.049988	9.000000	nontarget	11.000000	na
15.015523	0.050164	9.000000	nontarget	12.000000	na
15.065687	0.049135	9.000000	nontarget	13.000000	na
15.114822	0.050692	9.000000	nontarget	14.000000	na
15.165514	0.049993	9.000000	nontarget	15.000000	na
15.215507	0.049263	9.000000	nontarget	16.000000	15.222270
15.264770	0.050072	10.000000	nontarget	1.000000	15.271439
15.314842	0.050475	10.000000	nontarget	2.000000	na
15.365317	0.049625	10.000000	nontarget	3.000000	na
15.414942	0.050321	10.000000	nontarget	4.000000	na
15.465263	0.050311	10.000000	nontarget	5.000000	na
15.515574	0.049547	10.000000	nontarget	6.000000	na
15.565121	0.050552	10.000000	nontarget	7.000000	na
15.615673	0.049880	10.000000	nontarget	8.000000	na
15.665553	0.049951	10.000000	nontarget	9.000000	na
15.715504	0.050238	10.000000	nontarget	10.000000	na
15.765742	0.049711	10.000000	nontarget	11.000000	na
15.815453	0.050058	10.000000	nontarget	12.000000	na
15.865511	0.049956	10.000000	nontarget	13.000000	na
15.915467	0.049995	10.000000	nontarget	14.000000	na
15.965462	0.050128	10.000000	nontarget	15.000000	15.976963
16.015590	0.050058	10.000000	nontarget	16.000000	na
16.065648	0.049730	11.000000	nontarget	1.000000	16.072292
16.115378	0.050165	11.000000	nontarget	2.000000	na
16.165544	0.049968	11.000000	nontarget	3.000000	na
16.215511	0.050129	11.000000	nontarget	4.000000	na
16.265640	0.049436	11.000000	nontarget	5.000000	na
16.315076	0.050348	11.000000	nontarget	6.000000	na
16.365425	0.050119	11.000000	nontarget	7.000000	na
16.415543	0.050074	11.000000	nontarget	8.000000	na
16.465617	0.049888	11.000000	nontarget	9.000000	na
16.515505	0.049824	11.000000	nontarget	10.000000	na
16.565329	0.050293	11.000000	nontarget	11.000000	na
16.615622	0.049891	11.000000	nontarget	12.000000	na
16.665513	0.049928	11.000000	nontarget	13.000000	na
16.715442	0.050071	11.000000	nontarget	14.000000	na
16.765513	0.049964	11.000000	nontarget	15.000000	na
16.815477	0.050019	11.000000	nontarget	16.000000	na
16.865496	0.049175	12.000000	nontarget	1.000000	na
16.914671	0.050696	12.000000	nontarget	2.000000	na
16.965367	0.050178	12.000000	nontarget	3.000000	16.974151
17.015545	0.049266	12.000000	nontarget	4.000000	na
17.064810	0.050725	12.000000	nontarget	5.000000	na
17.115535	0.049783	12.000000	nontarget	6.000000	na
17.165318	0.049770	12.000000	nontarget	7.000000	na
17.215088	0.050337	12.000000	nontarget	8.000000	na
17.265425	0.050136	12.000000	nontarget	9.000000	na
17.315561	0.049939	12.000000	nontarget	10.000000	na
17.365500	0.049332	12.000000	nontarget	11.000000	na
17.414831	0.050774	12.000000	nontarget	12.000000	na
17.465606	0.049259	12.000000	nontarget	13.000000	na
17.514865	0.050246	12.000000	nontarget	14.000000	na
17.565111	0.050356	12.000000	nontarget	15.000000	na
17.615467	0.049998	12.000000	nontarget	16.000000	na
17.665465	0.049934	13.000000	nontarget	1.000000	na
17.715399	0.049888	13.000000	nontarget	2.000000	na
17.765288	0.050477	13.000000	nontarget	3.000000	na
17.815765	0.049708	13.000000	nontarget	4.000000	na
17.865473	0.049199	13.000000	nontarget	5.000000	na
17.914672	0.050857	13.000000	nontarget	6.000000	17.924282
17.965529	0.050045	13.000000	nontarget	7.000000	na
18.015574	0.050137	13.000000	nontarget	8.000000	na
18.065711	0.049318	13.000000	nontarget	9.000000	na
18.115029	0.050403	13.000000	nontarget	10.000000	na
18.165432	0.049925	13.000000	nontarget	11.000000	na
18.215357	0.049885	13.000000	nontarget	12.000000	na
18.265243	0.050191	13.000000	nontarget	13.000000	na
18.315434	0.050164	13.000000	nontarget	14.000000	na
18.365598	0.049584	13.000000	nontarget	15.000000	na
18.415182	0.050282	13.000000	nontarget	16.000000	na
18.465464	0.049773	14.000000	nontarget	1.000000	na
18.515237	0.050049	14.000000	nontarget	2.000000	na
18.565286	0.050166	14.000000	nontarget	3.000000	na
18.615452	0.049517	14.000000	nontarget	4.000000	na
18.664969	0.050515	14.000000	nontarget	5.000000	na
18.715484	0.049615	14.000000	nontarget	6.000000	na
18.765099	0.050249	14.000000	nontarget	7.000000	na
18.815348	0.052591	14.000000	nontarget	8.000000	na
18.867939	0.046934	14.000000	nontarget	9.000000	18.873904
18.914874	0.050176	14.000000	nontarget	10.000000	na
18.965050	0.050655	14.000000	nontarget	11.000000	na
19.015705	0.050079	14.000000	nontarget	12.000000	na
19.065784	0.049558	14.000000	nontarget	13.000000	na
19.115342	0.050248	14.000000	nontarget	14.000000	na
19.165590	0.049328	14.000000	nontarget	15.000000	na
19.214918	0.050188	14.000000	nontarget	16.000000	na
19.265105	0.050336	15.000000	nontarget	1.000000	na
19.315441	0.050186	15.000000	nontarget	2.000000	na
19.365627	0.050126	15.000000	nontarget	3.000000	na
19.415753	0.049713	15.000000	nontarget	4.000000	na
19.465466	0.049756	15.000000	nontarget	5.000000	na
19.515221	0.050256	15.000000	nontarget	6.000000	na
19.565477	0.050179	15.000000	nontarget	7.000000	na
19.615656	0.049290	15.000000	nontarget	8.000000	na
19.664946	0.050700	15.000000	nontarget	9.000000	na
19.715647	0.049321	15.000000	nontarget	10.000000	na
19.764968	0.050570	15.000000	nontarget	11.000000	na
19.815538	0.049672	15.000000	nontarget	12.000000	na
19.865210	0.050522	15.000000	nontarget	13.000000	19.871941
19.915731	0.049775	15.000000	nontarget	14.000000	na
19.965507	0.054620	15.000000	nontarget	15.000000	na
20.020127	0.044533	15.000000	nontarget	16.000000	na
20.064659	0.050938	16.000000	nontarget	1.000000	na
20.115597	0.049331	16.000000	nontarget	2.000000	na
20.164929	0.050513	16.000000	nontarget	3.000000	na
20.215442	0.049784	16.000000	nontarget	4.000000	na
20.265226	0.050095	16.000000	nontarget	5.000000	na
20.315321	0.050120	16.000000	nontarget	6.000000	na
20.365441	0.049690	16.000000	nontarget	7.000000	na
20.415131	0.050146	16.000000	nontarget	8.000000	na
20.465278	0.050339	16.000000	nontarget	9.000000	na
20.515616	0.049072	16.000000	nontarget	10.000000	na
20.564688	0.050732	16.000000	nontarget	11.000000	na
20.615420	0.049562	16.000000	nontarget	12.000000	na
20.664982	0.050506	16.000000	nontarget	13.000000	na
20.715488	0.049647	16.000000	nontarget	14.000000	na
20.765135	0.049819	16.000000	nontarget	15.000000	na
20.814954	0.050612	16.000000	nontarget	16.000000	na
20.865566	0.050000	17.000000	target	1.000000	na
20.915566	0.049834	17.000000	target	2.000000	na
20.965400	0.050095	17.000000	target	3.000000	na
21.015495	0.049749	17.000000	target	4.000000	na
21.065244	0.050060	17.000000	target	5.000000	na
21.115304	0.050389	17.000000	target	6.000000	na
21.165693	0.049730	17.000000	target	7.000000	na
21.215423	0.050005	17.000000	target	8.000000	na
21.265428	0.050173	17.000000	target	9.000000	na
21.315601	0.049334	17.000000	target	10.000000	na
21.364935	0.050412	17.000000	target	11.000000	na
21.415347	0.050160	17.000000	target	12.000000	na
21.465507	0.050020	17.000000	target	13.000000	na
21.515527	0.050181	17.000000	target	14.000000	21.539207
21.565708	0.049989	17.000000	target	15.000000	na
21.615697	0.049753	17.000000	target	16.000000	na
21.665450	0.049346	18.000000	nontarget	1.000000	21.672101
21.714797	0.050787	18.000000	nontarget	2.000000	na
21.765584	0.049406	18.000000	nontarget	3.000000	na
21.814990	0.050666	18.000000	nontarget	4.000000	na
21.865656	0.049431	18.000000	nontarget	5.000000	na
21.915087	0.050091	18.000000	nontarget	6.000000	na
21.965178	0.049536	18.000000	nontarget	7.000000	na
22.014715	0.050745	18.000000	nontarget	8.000000	na
22.065459	0.049985	18.000000	nontarget	9.000000	na
22.115444	0.049971	18.000000	nontarget	10.000000	na
22.165415	0.050139	18.000000	nontarget	11.000000	na
22.215554	0.049777	18.000000	nontarget	12.000000	na
22.265331	0.050211	18.000000	nontarget	13.000000	na
22.315542	0.049824	18.000000	nontarget	14.000000	na
22.365366	0.049878	18.000000	nontarget	15.000000	na
22.415243	0.050021	18.000000	nontarget	16.000000	na
22.465264	0.049965	19.000000	nontarget	1.000000	na
22.515230	0.050252	19.000000	nontarget	2.000000	na
22.565481	0.050014	19.000000	nontarget	3.000000	22.596572
22.615495	0.049575	19.000000	nontarget	4.000000	na
22.665070	0.050371	19.000000	nontarget	5.000000	na
22.715441	0.049038	19.000000	nontarget	6.000000	na
22.764479	0.050505	19.000000	nontarget	7.000000	na
22.814984	0.049607	19.000000	nontarget	8.000000	na
22.864591	0.050789	19.000000	nontarget	9.000000	na
22.915381	0.049921	19.000000	nontarget	10.000000	na
22.965301	0.050051	19.000000	nontarget	11.000000	na
23.015352	0.050090	19.000000	nontarget	12.000000	na
23.065442	0.049578	19.000000	nontarget	13.000000	na
23.115020	0.050235	19.000000	nontarget	14.000000	na
23.165255	0.049373	19.000000	nontarget	15.000000	na
23.214628	0.049975	19.000000	nontarget	16.000000	na
23.264603	0.051019	20.000000	nontarget	1.000000	na
23.315622	0.049156	20.000000	nontarget	2.000000	na
23.364779	0.050577	20.000000	nontarget	3.000000	na
23.415355	0.050024	20.000000	nontarget	4.000000	na
23.465380	0.049271	20.000000	nontarget	5.000000	na
23.514651	0.050562	20.000000	nontarget	6.000000	23.546389
23.565213	0.049432	20.000000	nontarget	7.000000	na
23.614644	0.050795	20.000000	nontarget	8.000000	na
23.665439	0.049906	20.000000	nontarget	9.000000	na
23.715345	0.049803	20.000000	nontarget	10.000000	na
23.765148	0.050150	20.000000	nontarget	11.000000	na
23.815299	0.050053	20.000000	nontarget	12.000000	na
23.865351	0.050005	20.000000	nontarget	13.000000	na
23.915356	0.049815	20.000000	nontarget	14.000000	na
23.965171	0.050247	20.000000	nontarget	15.000000	na
24.015418	0.049230	20.000000	nontarget	16.000000	na
24.064648	0.050778	21.000000	target	1.000000	na
24.115425	0.049647	21.000000	target	2.000000	na
24.165072	0.049375	21.000000	target	3.000000	na
24.214447	0.051123	21.000000	target	4.000000	na
24.265571	0.049914	21.000000	target	5.000000	na
24.315485	0.049869	21.000000	target	6.000000	na
24.365353	0.049974	21.000000	target	7.000000	na
24.415327	0.050024	21.000000	target	8.000000	na
24.465351	0.049836	21.000000	target	9.000000	na
24.515188	0.049739	21.000000	target	10.000000	na
24.564927	0.050514	21.000000	target	11.000000	na
24.615441	0.049635	21.000000	target	12.000000	na
24.665075	0.050403	21.000000	target	13.000000	na
24.715479	0.049909	21.000000	target	14.000000	na
24.765388	0.049559	21.000000	target	15.000000	na
24.814947	0.049741	21.000000	target	16.000000	na
24.864688	0.050934	22.000000	target	1.000000	na
24.915622	0.049793	22.000000	target	2.000000	24.926699
24.965415	0.049770	22.000000	target	3.000000	na
25.015185	0.050201	22.000000	target	4.000000	na
25.065386	0.049778	22.000000	target	5.000000	na
25.115164	0.049866	22.000000	target	6.000000	na
25.165030	0.050295	22.000000	target	7.000000	na
25.215325	0.049281	22.000000	target	8.000000	na
25.264605	0.050497	22.000000	target	9.000000	na
25.315102	0.050035	22.000000	target	10.000000	na
25.365137	0.049792	22.000000	target	11.000000	na
25.414929	0.050249	22.000000	target	12.000000	na
25.465178	0.049960	22.000000	target	13.000000	na
25.515139	0.050195	22.000000	target	14.000000	na
25.565334	0.049356	22.000000	target	15.000000	na
25.614690	0.050672	22.000000	target	16.000000	na
25.665363	0.049617	23.000000	nontarget	1.000000	na
25.714979	0.050403	23.000000	nontarget	2.000000	na
25.765383	0.049992	23.000000	nontarget	3.000000	na
25.815375	0.049672	23.000000	nontarget	4.000000	na
25.865047	0.050268	23.000000	nontarget	5.000000	na
25.915316	0.049666	23.000000	nontarget	6.000000	na
25.964982	0.050371	23.000000	nontarget	7.000000	na
26.015353	0.049671	23.000000	nontarget	8.000000	na
26.065023	0.050525	23.000000	nontarget	9.000000	26.071748
26.115548	0.049536	23.000000	nontarget	10.000000	na
26.165084	0.049557	23.000000	nontarget	11.000000	na
26.214641	0.050696	23.000000	nontarget	12.000000	na
26.265337	0.049538	23.000000	nontarget	13.000000	na
26.314875	0.050272	23.000000	nontarget	14.000000	na
26.365147	0.049636	23.000000	nontarget	15.000000	na
26.414784	0.050325	23.000000	nontarget	16.000000	na
26.465109	0.050162	24.000000	nontarget	1.000000	na
26.515271	0.050200	24.000000	nontarget	2.000000	na
26.565471	0.049861	24.000000	nontarget	3.000000	na
26.615332	0.050147	24.000000	nontarget	4.000000	na
26.665479	0.050063	24.000000	nontarget	5.000000	na
26.715542	0.048950	24.000000	nontarget	6.000000	na
26.764491	0.050458	24.000000	nontarget	7.000000	na
26.814949	0.050302	24.000000	nontarget	8.000000	na
26.865251	0.049993	24.000000	nontarget	9.000000	na
26.915244	0.050068	24.000000	nontarget	10.000000	na
26.965312	0.049776	24.000000	nontarget	11.000000	na
27.015088	0.050245	24.000000	nontarget	12.000000	na
27.065333	0.049636	24.000000	nontarget	13.000000	na
27.114969	0.050117	24.000000	nontarget	14.000000	na
27.165085	0.050073	24.000000	nontarget	15.000000	na
27.215158	0.049483	24.000000	nontarget	16.000000	27.238301
27.264641	0.050223	25.000000	nontarget	1.000000	27.271296
27.314864	0.050611	25.000000	nontarget	2.000000	na
27.365475	0.049184	25.000000	nontarget	3.000000	na
27.414659	0.050426	25.000000	nontarget	4.000000	na
27.465085	0.049938	25.000000	nontarget	5.000000	na
27.515023	0.049869	25.000000	nontarget	6.000000	na
27.564892	0.049698	25.000000	nontarget	7.000000	na
27.614589	0.050116	25.000000	nontarget	8.000000	na
27.664705	0.050558	25.000000	nontarget	9.000000	na
27.715263	0.049126	25.000000	nontarget	10.000000	na
27.764389	0.050890	25.000000	nontarget	11.000000	na
27.815279	0.050029	25.000000	nontarget	12.000000	na
27.865309	0.049998	25.000000	nontarget	13.000000	na
27.915307	0.050213	25.000000	nontarget	14.000000	na
27.965519	0.049997	25.000000	nontarget	15.000000	na
28.015517	0.049485	25.000000	nontarget	16.000000	na
28.065002	0.050357	26.000000	nontarget	1.000000	na
28.115359	0.049946	26.000000	nontarget	2.000000	na
28.165304	0.049663	26.000000	nontarget	3.000000	na
28.214968	0.050496	26.000000	nontarget	4.000000	na
28.265464	0.049831	26.000000	nontarget	5.000000	na
28.315295	0.049788	26.000000	nontarget	6.000000	28.351231
28.365083	0.050259	26.000000	nontarget	7.000000	na
28.415342	0.049336	26.000000	nontarget	8.000000	na
28.464678	0.050644	26.000000	nontarget	9.000000	na
28.515322	0.049911	26.000000	nontarget	10.000000	na
28.565234	0.050046	26.000000	nontarget	11.000000	na
28.615280	0.049997	26.000000	nontarget	12.000000	na
28.665277	0.050025	26.000000	nontarget	13.000000	na
28.715302	0.049994	26.000000	nontarget	14.000000	na
28.765296	0.050007	26.000000	nontarget	15.000000	na
28.815303	0.050203	26.000000	nontarget	16.000000	na
28.865506	0.049269	27.000000	nontarget	1.000000	na
28.914775	0.050522	27.000000	nontarget	2.000000	na
28.965296	0.049312	27.000000	nontarget	3.000000	na
29.014608	0.050724	27.000000	nontarget	4.000000	na
29.065332	0.049998	27.000000	nontarget	5.000000	na
29.115330	0.050036	27.000000	nontarget	6.000000	na
29.165366	0.049740	27.000000	nontarget	7.000000	na
29.215106	0.050013	27.000000	nontarget	8.000000	29.221891
29.265119	0.049853	27.000000	nontarget	9.000000	na
29.314971	0.050298	27.000000	nontarget	10.000000	na
29.365269	0.049459	27.000000	nontarget	11.000000	na
29.414729	0.050303	27.000000	nontarget	12.000000	na
29.465032	0.049618	27.000000	nontarget	13.000000	na
29.514650	0.050444	27.000000	nontarget	14.000000	na
29.565094	0.050187	27.000000	nontarget	15.000000	na
29.615281	0.049984	27.000000	nontarget	16.000000	na
29.665265	0.049732	28.000000	nontarget	1.000000	na
29.714997	0.050227	28.000000	nontarget	2.000000	na
29.765224	0.048933	28.000000	nontarget	3.000000	na
29.814157	0.050534	28.000000	nontarget	4.000000	na
29.864692	0.050569	28.000000	nontarget	5.000000	na
29.915261	0.049848	28.000000	nontarget	6.000000	na
29.965109	0.050394	28.000000	nontarget	7.000000	na
30.015504	0.049484	28.000000	nontarget	8.000000	na
30.064987	0.050223	28.000000	nontarget	9.000000	na
30.115210	0.050033	28.000000	nontarget	10.000000	na
30.165243	0.050219	28.000000	nontarget	11.000000	na
30.215463	0.049995	28.000000	nontarget	12.000000	na
30.265458	0.054698	28.000000	nontarget	13.000000	na
30.320155	0.043909	28.000000	nontarget	14.000000	30.325324
30.364064	0.051080	28.000000	nontarget	15.000000	na
30.415144	0.049934	28.000000	nontarget	16.000000	na
30.465078	0.050228	29.000000	nontarget	1.000000	30.471547
30.515307	0.049766	29.000000	nontarget	2.000000	na
30.565072	0.050174	29.000000	nontarget	3.000000	na
30.615246	0.049999	29.000000	nontarget	4.000000	na
30.665246	0.050053	29.000000	nontarget	5.000000	na
30.715298	0.049950	29.000000	nontarget	6.000000	na
30.765249	0.050035	29.000000	nontarget	7.000000	na
30.815284	0.050019	29.000000	nontarget	8.000000	na
30.865303	0.049841	29.000000	nontarget	9.000000	na
30.915143	0.049877	29.000000	nontarget	10.000000	na
30.965020	0.049437	29.000000	nontarget	11.000000	na
31.014457	0.050850	29.000000	nontarget	12.000000	na
31.065307	0.049281	29.000000	nontarget	13.000000	na
31.114587	0.050651	29.000000	nontarget	14.000000	na
31.165239	0.050108	29.000000	nontarget	15.000000	na
31.215347	0.049594	29.000000	nontarget	16.000000	na
31.264941	0.049698	30.000000	nontarget	1.000000	na
31.314639	0.050394	30.000000	nontarget	2.000000	na
31.365032	0.049937	30.000000	nontarget	3.000000	na
31.414969	0.050326	30.000000	nontarget	4.000000	31.427422
31.465295	0.049998	30.000000	nontarget	5.000000	na
31.515293	0.049914	30.000000	nontarget	6.000000	na
31.565207	0.050036	30.000000	nontarget	7.000000	na
31.615243	0.049952	30.000000	nontarget	8.000000	na
31.665195	0.050267	30.000000	nontarget	9.000000	na
31.715462	0.048948	30.000000	nontarget	10.000000	na
31.764410	0.050214	30.000000	nontarget	11.000000	na
31.814624	0.050781	30.000000	nontarget	12.000000	na
31.865405	0.049825	30.000000	nontarget	13.000000	na
31.915231	0.049945	30.000000	nontarget	14.000000	na
31.965176	0.050190	30.000000	nontarget	15.000000	na
32.015366	0.049286	30.000000	nontarget	16.000000	na
32.064652	0.050620	31.000000	nontarget	1.000000	na
32.115272	0.049868	31.000000	nontarget	2.000000	na
32.165139	0.050025	31.000000	nontarget	3.000000	na
32.215164	0.049967	31.000000	nontarget	4.000000	na
32.265132	0.050240	31.000000	nontarget	5.000000	32.271808
32.315371	0.050150	31.000000	nontarget	6.000000	na
32.365521	0.049193	31.000000	nontarget	7.000000	na
32.414714	0.050566	31.000000	nontarget	8.000000	na
32.465280	0.050156	31.000000	nontarget	9.000000	na
32.515436	0.049982	31.000000	nontarget	10.000000	na
32.565418	0.049922	31.000000	nontarget	11.000000	na
32.615339	0.050309	31.000000	nontarget	12.000000	na
32.665649	0.049654	31.000000	nontarget	13.000000	na
32.715302	0.049852	31.000000	nontarget	14.000000	na
32.765154	0.050234	31.000000	nontarget	15.000000	na
32.815388	0.049310	31.000000	nontarget	16.000000	na
32.864698	0.050547	32.000000	nontarget	1.000000	na
32.915245	0.049979	32.000000	nontarget	2.000000	na
32.965224	0.050213	32.000000	nontarget	3.000000	na
33.015437	0.049836	32.000000	nontarget	4.000000	na
33.065274	0.050361	32.000000	nontarget	5.000000	na
33.115635	0.049960	32.000000	nontarget	6.000000	na
33.165594	0.049641	32.000000	nontarget	7.000000	na
33.215235	0.050097	32.000000	nontarget	8.000000	33.221951
33.265333	0.050005	32.000000	nontarget	9.000000	na
33.315337	0.049588	32.000000	nontarget	10.000000	na
33.364926	0.049696	32.000000	nontarget	11.000000	na
33.414621	0.050601	32.000000	nontarget	12.000000	na
33.465222	0.049817	32.000000	nontarget	13.000000	na
33.515039	0.049637	32.000000	nontarget	14.000000	na
33.564676	0.050424	32.000000	nontarget	15.000000	na
33.615100	0.050319	32.000000	nontarget	16.000000	na
33.665419	0.049814	33.000000	nontarget	1.000000	na
33.715233	0.050059	33.000000	nontarget	2.000000	na
33.765292	0.049908	33.000000	nontarget	3.000000	na
33.815200	0.050386	33.000000	nontarget	4.000000	na
33.865586	0.049645	33.000000	nontarget	5.000000	na
33.915231	0.050068	33.000000	nontarget	6.000000	na
33.965300	0.049972	33.000000	nontarget	7.000000	na
34.015272	0.049355	33.000000	nontarget	8.000000	na
34.064627	0.050839	33.000000	nontarget	9.000000	na
34.115465	0.049861	33.000000	nontarget	10.000000	na
34.165326	0.049776	33.000000	nontarget	11.000000	na
34.215102	0.049663	33.000000	nontarget	12.000000	na
34.264765	0.050449	33.000000	nontarget	13.000000	na
34.315214	0.050023	33.000000	nontarget	14.000000	34.326708
34.365237	0.049746	33.000000	nontarget	15.000000	na
34.414983	0.050215	33.000000	nontarget	16.000000	na
34.465198	0.050161	34.000000	nontarget	1.000000	34.471815
34.515360	0.050260	34.000000	nontarget	2.000000	na
34.565620	0.049937	34.000000	nontarget	3.000000	na
34.615557	0.050092	34.000000	nontarget	4.000000	na
34.665649	0.049703	34.000000	nontarget	5.000000	na
34.715351	0.049703	34.000000	nontarget	6.000000	na
34.765054	0.050446	34.000000	nontarget	7.000000	na
34.815501	0.049508	34.000000	nontarget	8.000000	na
34.865009	0.050218	34.000000	nontarget	9.000000	na
34.915227	0.049718	34.000000	nontarget	10.000000	na
34.964945	0.050416	34.000000	nontarget	11.000000	na
35.015361	0.049732	34.000000	nontarget	12.000000	na
35.065094	0.050047	34.000000	nontarget	13.000000	na
35.115141	0.049441	34.000000	nontarget	14.000000	na
35.164581	0.050921	34.000000	nontarget	15.000000	na
35.215503	0.049670	34.000000	nontarget	16.000000	na
35.265172	0.050088	35.000000	nontarget	1.000000	na
35.315261	0.049938	35.000000	nontarget	2.000000	na
35.365198	0.049840	35.000000	nontarget	3.000000	35.376486
35.415038	0.050035	35.000000	nontarget	4.000000	na
35.465073	0.050438	35.000000	nontarget	5.000000	na
35.515512	0.050017	35.000000	nontarget	6.000000	na
35.565528	0.049680	35.000000	nontarget	7.000000	na
35.615209	0.049974	35.000000	nontarget	8.000000	na
35.665183	0.050018	35.000000	nontarget	9.000000	na
35.715201	0.050234	35.000000	nontarget	10.000000	na
35.765436	0.049968	35.000000	nontarget	11.000000	na
35.815403	0.049468	35.000000	nontarget	12.000000	na
35.864872	0.050661	35.000000	nontarget	13.000000	na
35.915533	0.049067	35.000000	nontarget	14.000000	na
35.964600	0.050747	35.000000	nontarget	15.000000	na
36.015347	0.049983	35.000000	nontarget	16.000000	na
36.065331	0.049362	36.000000	nontarget	1.000000	na
36.114692	0.050491	36.000000	nontarget	2.000000	na
36.165183	0.050034	36.000000	nontarget	3.000000	na
36.215218	0.050175	36.000000	nontarget	4.000000	na
36.265393	0.050255	36.000000	nontarget	5.000000	na
36.315648	0.049417	36.000000	nontarget	6.000000	na
36.365065	0.050245	36.000000	nontarget	7.000000	na
36.415310	0.049866	36.000000	nontarget	8.000000	36.422210
36.465176	0.050098	36.000000	nontarget	9.000000	na
36.515275	0.049593	36.000000	nontarget	10.000000	na
36.564868	0.050541	36.000000	nontarget	11.000000	na
36.615409	0.050117	36.000000	nontarget	12.000000	na
36.665526	0.049450	36.000000	nontarget	13.000000	na
36.714976	0.049895	36.000000	nontarget	14.000000	na
36.764871	0.050280	36.000000	nontarget	15.000000	na
36.815151	0.050027	36.000000	nontarget	16.000000	na
36.865179	0.050180	37.000000	nontarget	1.000000	na
36.915358	0.049671	37.000000	nontarget	2.000000	na
36.965029	0.050001	37.000000	nontarget	3.000000	na
37.015029	0.050196	37.000000	nontarget	4.000000	na
37.065225	0.049768	37.000000	nontarget	5.000000	na
37.114993	0.050069	37.000000	nontarget	6.000000	na
37.165062	0.054493	37.000000	nontarget	7.000000	na
37.219555	0.046038	37.000000	nontarget	8.000000	37.226601
37.265593	0.049731	37.000000	nontarget	9.000000	na
37.315324	0.049405	37.000000	nontarget	10.000000	na
37.364729	0.050466	37.000000	nontarget	11.000000	na
37.415195	0.049522	37.000000	nontarget	12.000000	na
37.464717	0.050571	37.000000	nontarget	13.000000	na
37.515288	0.049063	37.000000	nontarget	14.000000	na
37.564351	0.050854	37.000000	nontarget	15.000000	na
37.615205	0.049961	37.000000	nontarget	16.000000	na
37.665166	0.050115	38.000000	nontarget	1.000000	na
37.715281	0.049866	38.000000	nontarget	2.000000	na
37.765147	0.049353	38.000000	nontarget	3.000000	na
37.814500	0.050656	38.000000	nontarget	4.000000	na
37.865157	0.049795	38.000000	nontarget	5.000000	na
37.914951	0.050089	38.000000	nontarget	6.000000	na
37.965040	0.050001	38.000000	nontarget	7.000000	na
38.015041	0.049828	38.000000	nontarget	8.000000	38.046384
38.064868	0.050430	38.000000	nontarget	9.000000	na
38.115298	0.049997	38.000000	nontarget	10.000000	na
38.165295	0.049942	38.000000	nontarget	11.000000	na
38.215237	0.049772	38.000000	nontarget	12.000000	na
38.265009	0.049443	38.000000	nontarget	13.000000	na
38.314452	0.050709	38.000000	nontarget	14.000000	na
38.365162	0.049498	38.000000	nontarget	15.000000	na
38.414660	0.049655	38.000000	nontarget	16.000000	na
38.464315	0.050957	39.000000	nontarget	1.000000	na
38.515272	0.050073	39.000000	nontarget	2.000000	na
38.565345	0.049469	39.000000	nontarget	3.000000	na
38.614815	0.050340	39.000000	nontarget	4.000000	na
38.665155	0.049977	39.000000	nontarget	5.000000	na
38.715132	0.049256	39.000000	nontarget	6.000000	na
38.764387	0.050596	39.000000	nontarget	7.000000	na
38.814984	0.049502	39.000000	nontarget	8.000000	na
38.864485	0.050830	39.000000	nontarget	9.000000	38.892239
38.915316	0.049311	39.000000	nontarget	10.000000	na
38.964627	0.050306	39.000000	nontarget	11.000000	na
39.014932	0.049851	39.000000	nontarget	12.000000	na
39.064783	0.050412	39.000000	nontarget	13.000000	na
39.115195	0.050096	39.000000	nontarget	14.000000	na
39.165292	0.049039	39.000000	nontarget	15.000000	na
39.214331	0.050786	39.000000	nontarget	16.000000	na
39.265116	0.050084	40.000000	nontarget	1.000000	na
39.315200	0.049907	40.000000	nontarget	2.000000	na
39.365108	0.050031	40.000000	nontarget	3.000000	na
39.415139	0.049877	40.000000	nontarget	4.000000	na
39.465016	0.049273	40.000000	nontarget	5.000000	na
39.514289	0.050961	40.000000	nontarget	6.000000	na
39.565250	0.049925	40.000000	nontarget	7.000000	na
39.615175	0.049939	40.000000	nontarget	8.000000	na
39.665114	0.050168	40.000000	nontarget	9.000000	na
39.715282	0.049064	40.000000	nontarget	10.000000	na
39.764346	0.050808	40.000000	nontarget	11.000000	na
39.815154	0.049965	40.000000	nontarget	12.000000	na
39.865118	0.050017	40.000000	nontarget	13.000000	na
39.915135	0.049857	40.000000	nontarget	14.000000	na
39.964992	0.049414	40.000000	nontarget	15.000000	na
40.014406	0.050559	40.000000	nontarget	16.000000	na
40.064965	0.049391	41.000000	target	1.000000	na
40.114356	0.050717	41.000000	target	2.000000	na
40.165074	0.049795	41.000000	target	3.000000	na
40.214869	0.050341	41.000000	target	4.000000	na
40.265210	0.049938	41.000000	target	5.000000	na
40.315148	0.049354	41.000000	target	6.000000	na
40.364502	0.050578	41.000000	target	7.000000	na
40.415081	0.049433	41.000000	target	8.000000	na
40.464513	0.049935	41.000000	target	9.000000	na
40.514448	0.050641	41.000000	target	10.000000	na
40.565089	0.049644	41.000000	target	11.000000	na
40.614733	0.050266	41.000000	target	12.000000	na
40.665000	0.050292	41.000000	target	13.000000	na
40.715292	0.049999	41.000000	target	14.000000	na
40.765290	0.049045	41.000000	target	15.000000	na
40.814335	0.050632	41.000000	target	16.000000	na
40.864967	0.050319	42.000000	nontarget	1.000000	na
40.915286	0.049369	42.000000	nontarget	2.000000	na
40.964655	0.050092	42.000000	nontarget	3.000000	na
41.014748	0.050572	42.000000	nontarget	4.000000	41.021816
41.065320	0.049322	42.000000	nontarget	5.000000	na
41.114642	0.049640	42.000000	nontarget	6.000000	na
41.164282	0.050823	42.000000	nontarget	7.000000	na
41.215105	0.049582	42.000000	nontarget	8.000000	na
41.264687	0.050351	42.000000	nontarget	9.000000	na
41.315038	0.050016	42.000000	nontarget	10.000000	na
41.365054	0.050144	42.000000	nontarget	11.000000	na
41.415198	0.049897	42.000000	nontarget	12.000000	na
41.465095	0.050008	42.000000	nontarget	13.000000	na
41.515103	0.050009	42.000000	nontarget	14.000000	na
41.565112	0.049153	42.000000	nontarget	15.000000	na
41.614265	0.050723	42.000000	nontarget	16.000000	na
41.664988	0.049858	43.000000	nontarget	1.000000	na
41.714846	0.050260	43.000000	nontarget	2.000000	na
41.765106	0.049995	43.000000	nontarget	3.000000	na
41.815101	0.049997	43.000000	nontarget	4.000000	na
41.865098	0.050022	43.000000	nontarget	5.000000	na
41.915120	0.049982	43.000000	nontarget	6.000000	na
41.965103	0.049374	43.000000	nontarget	7.000000	41.998612
42.014477	0.050702	43.000000	nontarget	8.000000	na
42.065179	0.049709	43.000000	nontarget	9.000000	na
42.114889	0.050120	43.000000	nontarget	10.000000	na
42.165008	0.050079	43.000000	nontarget	11.000000	na
42.215087	0.049837	43.000000	nontarget	12.000000	na
42.264924	0.050186	43.000000	nontarget	13.000000	na
42.315110	0.050030	43.000000	nontarget	14.000000	na
42.365140	0.049833	43.000000	nontarget	15.000000	na
42.414973	0.049725	43.000000	nontarget	16.000000	na
42.464698	0.050153	44.000000	nontarget	1.000000	na
42.514852	0.050180	44.000000	nontarget	2.000000	na
42.565031	0.049964	44.000000	nontarget	3.000000	na
42.614995	0.049959	44.000000	nontarget	4.000000	na
42.664954	0.050020	44.000000	nontarget	5.000000	na
42.714974	0.050127	44.000000	nontarget	6.000000	na
42.765101	0.049770	44.000000	nontarget	7.000000	na
42.814871	0.050226	44.000000	nontarget	8.000000	na
42.865097	0.049988	44.000000	nontarget	9.000000	na
42.915084	0.050055	44.000000	nontarget	10.000000	42.939025
42.965139	0.050143	44.000000	nontarget	11.000000	na
43.015282	0.049044	44.000000	nontarget	12.000000	na
43.064326	0.050792	44.000000	nontarget	13.000000	na
43.115118	0.049958	44.000000	nontarget	14.000000	na
43.165076	0.050140	44.000000	nontarget	15.000000	na
43.215216	0.049942	44.000000	nontarget	16.000000	na
43.265158	0.049955	45.000000	nontarget	1.000000	na
43.315112	0.049951	45.000000	nontarget	2.000000	na
43.365063	0.050014	45.000000	nontarget	3.000000	na
43.415077	0.050124	45.000000	nontarget	4.000000	na
43.465202	0.049577	45.000000	nontarget	5.000000	na
43.514779	0.050326	45.000000	nontarget	6.000000	na
43.565105	0.049867	45.000000	nontarget	7.000000	na
43.614972	0.050122	45.000000	nontarget	8.000000	na
43.665094	0.049986	45.000000	nontarget	9.000000	na
43.715080	0.049950	45.000000	nontarget	10.000000	na
43.765029	0.050001	45.000000	nontarget	11.000000	na
43.815031	0.050009	45.000000	nontarget	12.000000	na
43.865040	0.050039	45.000000	nontarget	13.000000	na
43.915078	0.050017	45.000000	nontarget	14.000000	na
43.965095	0.049929	45.000000	nontarget	15.000000	43.996490
44.015024	0.050078	45.000000	nontarget	16.000000	na
44.065103	0.050005	46.000000	nontarget	1.000000	44.071693
44.115108	0.049762	46.000000	nontarget	2.000000	na
44.164870	0.050314	46.000000	nontarget	3.000000	na
44.215184	0.049916	46.000000	nontarget	4.000000	na
44.265100	0.049991	46.000000	nontarget	5.000000	na
44.315091	0.049936	46.000000	nontarget	6.000000	na
44.365027	0.050083	46.000000	nontarget	7.000000	na
44.415110	0.049880	46.000000	nontarget	8.000000	na
44.464990	0.049976	46.000000	nontarget	9.000000	na
44.514966	0.050189	46.000000	nontarget	10.000000	na
44.565155	0.049844	46.000000	nontarget	11.000000	na
44.614998	0.050088	46.000000	nontarget	12.000000	na
44.665087	0.050110	46.000000	nontarget	13.000000	na
44.715196	0.049869	46.000000	nontarget	14.000000	na
44.765065	0.049892	46.000000	nontarget	15.000000	na
44.814957	0.050052	46.000000	nontarget	16.000000	na
44.865009	0.050064	47.000000	target	1.000000	na
44.915073	0.049563	47.000000	target	2.000000	na
44.964636	0.050476	47.000000	target	3.000000	na
45.015112	0.049732	47.000000	target	4.000000	na
45.064844	0.049483	47.000000	target	5.000000	na
45.114327	0.050662	47.000000	target	6.000000	na
45.164989	0.050058	47.000000	target	7.000000	na
45.215048	0.050004	47.000000	target	8.000000	na
45.265052	0.050013	47.000000	target	9.000000	na
45.315064	0.049569	47.000000	target	10.000000	na
45.364633	0.050273	47.000000	target	11.000000	na
45.414906	0.049322	47.000000	target	12.000000	na
45.464229	0.050639	47.000000	target	13.000000	na
45.514867	0.050010	47.000000	target	14.000000	na
45.564878	0.050154	47.000000	target	15.000000	na
45.615032	0.049981	47.000000	target	16.000000	na
45.665012	0.050025	48.000000	nontarget	1.000000	na
45.715037	0.050059	48.000000	nontarget	2.000000	45.726756
45.765097	0.049857	48.000000	nontarget	3.000000	na
45.814953	0.049054	48.000000	nontarget	4.000000	na
45.864008	0.050419	48.000000	nontarget	5.000000	na
45.914426	0.050625	48.000000	nontarget	6.000000	na
45.965051	0.049221	48.000000	nontarget	7.000000	na
46.014273	0.050379	48.000000	nontarget	8.000000	na
46.064652	0.050427	48.000000	nontarget	9.000000	na
46.115079	0.049414	48.000000	nontarget	10.000000	na
46.164493	0.050168	48.000000	nontarget	11.000000	na
46.214661	0.050380	48.000000	nontarget	12.000000	na
46.265041	0.049971	48.000000	nontarget	13.000000	na
46.315013	0.050023	48.000000	nontarget	14.000000	na
46.365036	0.050103	48.000000	nontarget	15.000000	na
46.415139	0.049630	48.000000	nontarget	16.000000	na
46.464768	0.050113	49.000000	nontarget	1.000000	na
46.514882	0.049909	49.000000	nontarget	2.000000	na
46.564790	0.050180	49.000000	nontarget	3.000000	na
46.614970	0.049832	49.000000	nontarget	4.000000	na
46.664802	0.049998	49.000000	nontarget	5.000000	46.671556
46.714799	0.049664	49.000000	nontarget	6.000000	na
46.764463	0.050679	49.000000	nontarget	7.000000	na
46.815143	0.049980	49.000000	nontarget	8.000000	na
46.865123	0.049908	49.000000	nontarget	9.000000	na
46.915031	0.049937	49.000000	nontarget	10.000000	na
46.964968	0.050111	49.000000	nontarget	11.000000	na
47.015079	0.049941	49.000000	nontarget	12.000000	na
47.065020	0.050127	49.000000	nontarget	13.000000	na
47.115147	0.049859	49.000000	nontarget	14.000000	na
47.165007	0.049809	49.000000	nontarget	15.000000	na
47.214815	0.050256	49.000000	nontarget	16.000000	na
47.265071	0.050108	50.000000	nontarget	1.000000	na
47.315179	0.050067	50.000000	nontarget	2.000000	na
47.365246	0.049368	50.000000	nontarget	3.000000	na
47.414613	0.050013	50.000000	nontarget	4.000000	na
47.464626	0.050033	50.000000	nontarget	5.000000	na
47.514659	0.050355	50.000000	nontarget	6.000000	na
47.565014	0.049971	50.000000	nontarget	7.000000	na
47.614985	0.049997	50.000000	nontarget	8.000000	na
47.664982	0.049936	50.000000	nontarget	9.000000	na
47.714918	0.050249	50.000000	nontarget	10.000000	na
47.765167	0.049334	50.000000	nontarget	11.000000	na
47.814501	0.050576	50.000000	nontarget	12.000000	na
47.865077	0.050279	50.000000	nontarget	13.000000	na
47.915356	0.049708	50.000000	nontarget	14.000000	na
47.965063	0.050271	50.000000	nontarget	15.000000	na
48.015335	0.049651	50.000000	nontarget	16.000000	na
48.064986	0.050039	51.000000	target	1.000000	na
48.115026	0.050007	51.000000	target	2.000000	na
48.165032	0.050151	51.000000	target	3.000000	na
48.215183	0.049790	51.000000	target	4.000000	na
48.264973	0.050057	51.000000	target	5.000000	na
48.315030	0.050287	51.000000	target	6.000000	na
48.365318	0.049502	51.000000	target	7.000000	na
48.414820	0.049847	51.000000	target	8.000000	na
48.464667	0.050017	51.000000	target	9.000000	na
48.514684	0.050345	51.000000	target	10.000000	na
48.565029	0.050155	51.000000	target	11.000000	na
48.615184	0.049813	51.000000	target	12.000000	na
48.664998	0.049976	51.000000	target	13.000000	na
48.714973	0.050002	51.000000	target	14.000000	na
48.764975	0.050091	51.000000	target	15.000000	na
48.815067	0.053040	51.000000	target	16.000000	na
48.868107	0.046735	52.000000	nontarget	1.000000	48.874984
48.914842	0.050232	52.000000	nontarget	2.000000	na
48.965074	0.049656	52.000000	nontarget	3.000000	na
49.014729	0.049635	52.000000	nontarget	4.000000	na
49.064365	0.049959	52.000000	nontarget	5.000000	na
49.114324	0.050790	52.000000	nontarget	6.000000	na
49.165113	0.049738	52.000000	nontarget	7.000000	na
49.214852	0.050005	52.000000	nontarget	8.000000	na
49.264857	0.049740	52.000000	nontarget	9.000000	na
49.314597	0.049719	52.000000	nontarget	10.000000	na
49.364316	0.050838	52.000000	nontarget	11.000000	na
49.415154	0.049820	52.000000	nontarget	12.000000	na
49.464973	0.050184	52.000000	nontarget	13.000000	na
49.515158	0.049708	52.000000	nontarget	14.000000	na
49.564866	0.049760	52.000000	nontarget	15.000000	na
49.614626	0.050368	52.000000	nontarget	16.000000	na
49.664993	0.049988	53.000000	nontarget	1.000000	na
49.714981	0.049298	53.000000	nontarget	2.000000	na
49.764279	0.050687	53.000000	nontarget	3.000000	na
49.814966	0.050283	53.000000	nontarget	4.000000	na
49.865249	0.049480	53.000000	nontarget	5.000000	na
49.914730	0.050690	53.000000	nontarget	6.000000	na
49.965420	0.049829	53.000000	nontarget	7.000000	na
50.015249	0.049908	53.000000	nontarget	8.000000	50.021444
50.065157	0.049960	53.000000	nontarget	9.000000	na
50.115116	0.049296	53.000000	nontarget	10.000000	na
50.164413	0.050513	53.000000	nontarget	11.000000	na
50.214926	0.050020	53.000000	nontarget	12.000000	na
50.264946	0.050388	53.000000	nontarget	13.000000	na
50.315335	0.048999	53.000000	nontarget	14.000000	na
50.364334	0.050360	53.000000	nontarget	15.000000	na
50.414694	0.050090	53.000000	nontarget	16.000000	na
50.464784	0.050112	54.000000	nontarget	1.000000	na
50.514895	0.050149	54.000000	nontarget	2.000000	na
50.565044	0.049938	54.000000	nontarget	3.000000	na
50.614982	0.049748	54.000000	nontarget	4.000000	na
50.664730	0.050021	54.000000	nontarget	5.000000	na
50.714751	0.049333	54.000000	nontarget	6.000000	na
50.764084	0.050833	54.000000	nontarget	7.000000	na
50.814917	0.049545	54.000000	nontarget	8.000000	na
50.864462	0.050795	54.000000	nontarget	9.000000	na
50.915256	0.049741	54.000000	nontarget	10.000000	na
50.964997	0.050321	54.000000	nontarget	11.000000	na
51.015318	0.049646	54.000000	nontarget	12.000000	na
51.064965	0.049311	54.000000	nontarget	13.000000	na
51.114275	0.050618	54.000000	nontarget	14.000000	51.123012
51.164894	0.050044	54.000000	nontarget	15.000000	na
51.214938	0.050469	54.000000	nontarget	16.000000	na
51.265406	0.049562	55.000000	nontarget	1.000000	51.271979
51.314968	0.050105	55.000000	nontarget	2.000000	na
51.365073	0.049161	55.000000	nontarget	3.000000	na
51.414235	0.050872	55.000000	nontarget	4.000000	na
51.465106	0.049866	55.000000	nontarget	5.000000	na
51.514972	0.050162	55.000000	nontarget	6.000000	na
51.565134	0.050076	55.000000	nontarget	7.000000	na
51.615210	0.049785	55.000000	nontarget	8.000000	na
51.664995	0.050040	55.000000	nontarget	9.000000	na
51.715035	0.049825	55.000000	nontarget	10.000000	na
51.764861	0.049336	55.000000	nontarget	11.000000	na
51.814197	0.050772	55.000000	nontarget	12.000000	na
51.864969	0.049994	55.000000	nontarget	13.000000	na
51.914963	0.049988	55.000000	nontarget	14.000000	na
51.964951	0.050018	55.000000	nontarget	15.000000	na
52.014969	0.049909	55.000000	nontarget	16.000000	na
52.064878	0.050089	56.000000	nontarget	1.000000	na
52.114967	0.053046	56.000000	nontarget	2.000000	na
52.168013	0.046937	56.000000	nontarget	3.000000	52.173585
52.214949	0.050302	56.000000	nontarget	4.000000	na
52.265252	0.048946	56.000000	nontarget	5.000000	na
52.314198	0.050822	56.000000	nontarget	6.000000	na
52.365019	0.050087	56.000000	nontarget	7.000000	na
52.415107	0.049747	56.000000	nontarget	8.000000	na
52.464854	0.049991	56.000000	nontarget	9.000000	na
52.514845	0.050219	56.000000	nontarget	10.000000	na
52.565065	0.049095	56.000000	nontarget	11.000000	na
52.614160	0.050130	56.000000	nontarget	12.000000	na
52.664290	0.050513	56.000000	nontarget	13.000000	na
52.714803	0.050321	56.000000	nontarget	14.000000	na
52.765123	0.049650	56.000000	nontarget	15.000000	na
52.814773	0.050197	56.000000	nontarget	16.000000	na
52.864970	0.049887	57.000000	nontarget	1.000000	na
52.914858	0.050034	57.000000	nontarget	2.000000	na
52.964891	0.049124	57.000000	nontarget	3.000000	na
53.014016	0.050211	57.000000	nontarget	4.000000	53.023616
53.064227	0.050874	57.000000	nontarget	5.000000	na
53.115100	0.049941	57.000000	nontarget	6.000000	na
53.165042	0.049605	57.000000	nontarget	7.000000	na
53.214646	0.049728	57.000000	nontarget	8.000000	na
53.264374	0.050577	57.000000	nontarget	9.000000	na
53.314951	0.050060	57.000000	nontarget	10.000000	na
53.365011	0.050035	57.000000	nontarget	11.000000	na
53.415046	0.049936	57.000000	nontarget	12.000000	na
53.464982	0.049118	57.000000	nontarget	13.000000	na
53.514100	0.050511	57.000000	nontarget	14.000000	na
53.564610	0.050157	57.000000	nontarget	15.000000	na
53.614768	0.050264	57.000000	nontarget	16.000000	na
53.665031	0.049853	58.000000	nontarget	1.000000	na
53.714884	0.050071	58.000000	nontarget	2.000000	na
53.764955	0.049523	58.000000	nontarget	3.000000	na
53.814477	0.050147	58.000000	nontarget	4.000000	na
53.864624	0.049794	58.000000	nontarget	5.000000	53.888873
53.914419	0.050760	58.000000	nontarget	6.000000	na
53.965178	0.049734	58.000000	nontarget	7.000000	na
54.014913	0.050097	58.000000	nontarget	8.000000	na
54.065010	0.049941	58.000000	nontarget	9.000000	na
54.114951	0.050052	58.000000	nontarget	10.000000	na
54.165003	0.049859	58.000000	nontarget	11.000000	na
54.214862	0.050256	58.000000	nontarget	12.000000	na
54.265118	0.049257	58.000000	nontarget	13.000000	na
54.314376	0.050572	58.000000	nontarget	14.000000	na
54.364948	0.049993	58.000000	nontarget	15.000000	na
54.414940	0.049138	58.000000	nontarget	16.000000	na
54.464078	0.050841	59.000000	nontarget	1.000000	na
54.514919	0.049992	59.000000	nontarget	2.000000	na
54.564911	0.049412	59.000000	nontarget	3.000000	na
54.614323	0.050624	59.000000	nontarget	4.000000	na
54.664946	0.050040	59.000000	nontarget	5.000000	na
54.714987	0.049212	59.000000	nontarget	6.000000	na
54.764199	0.049714	59.000000	nontarget	7.000000	na
54.813913	0.050095	59.000000	nontarget	8.000000	na
54.864008	0.050266	59.000000	nontarget	9.000000	54.875721
54.914274	0.050381	59.000000	nontarget	10.000000	na
54.964655	0.049585	59.000000	nontarget	11.000000	na
55.014241	0.050727	59.000000	nontarget	12.000000	na
55.064968	0.050000	59.000000	nontarget	13.000000	na
55.114968	0.050012	59.000000	nontarget	14.000000	na
55.164980	0.049927	59.000000	nontarget	15.000000	na
55.214907	0.050126	59.000000	nontarget	16.000000	na
55.265033	0.050140	60.000000	nontarget	1.000000	na
55.315174	0.049796	60.000000	nontarget	2.000000	na
55.364969	0.049995	60.000000	nontarget	3.000000	na
55.414965	0.049108	60.000000	nontarget	4.000000	na
55.464073	0.050801	60.000000	nontarget	5.000000	na
55.514874	0.050050	60.000000	nontarget	6.000000	na
55.564924	0.049353	60.000000	nontarget	7.000000	na
55.614277	0.050636	60.000000	nontarget	8.000000	na
55.664912	0.049958	60.000000	nontarget	9.000000	na
55.714870	0.050072	60.000000	nontarget	10.000000	na
55.764942	0.050034	60.000000	nontarget	11.000000	na
55.814976	0.049093	60.000000	nontarget	12.000000	na
55.864069	0.050793	60.000000	nontarget	13.000000	na
55.914862	0.050176	60.000000	nontarget	14.000000	na
55.965038	0.049634	60.000000	nontarget	15.000000	55.971849
56.014672	0.050444	60.000000	nontarget	16.000000	na
56.065117	0.049922	61.000000	nontarget	1.000000	56.071739
56.115038	0.050061	61.000000	nontarget	2.000000	na
56.165099	0.049790	61.000000	nontarget	3.000000	na
56.214890	0.049993	61.000000	nontarget	4.000000	na
56.264883	0.050197	61.000000	nontarget	5.000000	na
56.315080	0.049988	61.000000	nontarget	6.000000	na
56.365068	0.049904	61.000000	nontarget	7.000000	na
56.414972	0.049912	61.000000	nontarget	8.000000	na
56.464883	0.049554	61.000000	nontarget	9.000000	na
56.514437	0.050526	61.000000	nontarget	10.000000	na
56.564963	0.049925	61.000000	nontarget	11.000000	na
56.614887	0.050226	61.000000	nontarget	12.000000	na
56.665113	0.049646	61.000000	nontarget	13.000000	na
56.714759	0.049917	61.000000	nontarget	14.000000	na
56.764676	0.050274	61.000000	nontarget	15.000000	na
56.814950	0.050093	61.000000	nontarget	16.000000	na
56.865043	0.049389	62.000000	nontarget	1.000000	na
56.914431	0.050278	62.000000	nontarget	2.000000	na
56.964709	0.050253	62.000000	nontarget	3.000000	na
57.014962	0.050081	62.000000	nontarget	4.000000	57.030739
57.065043	0.049883	62.000000	nontarget	5.000000	na
57.114925	0.049367	62.000000	nontarget	6.000000	na
57.164292	0.050351	62.000000	nontarget	7.000000	na
57.214643	0.050291	62.000000	nontarget	8.000000	na
57.264934	0.049919	62.000000	nontarget	9.000000	na
57.314853	0.049610	62.000000	nontarget	10.000000	na
57.364463	0.050411	62.000000	nontarget	11.000000	na
57.414874	0.050116	62.000000	nontarget	12.000000	na
57.464990	0.049877	62.000000	nontarget	13.000000	na
57.514867	0.050095	62.000000	nontarget	14.000000	na
57.564961	0.050030	62.000000	nontarget	15.000000	na
57.614991	0.049373	62.000000	nontarget	16.000000	na
57.664364	0.050608	63.000000	nontarget	1.000000	na
57.714973	0.049993	63.000000	nontarget	2.000000	na
57.764966	0.050024	63.000000	nontarget	3.000000	na
57.814990	0.049875	63.000000	nontarget	4.000000	na
57.864865	0.050038	63.000000	nontarget	5.000000	na
57.914902	0.050064	63.000000	nontarget	6.000000	57.938207
57.964967	0.049278	63.000000	nontarget	7.000000	na
58.014245	0.050595	63.000000	nontarget	8.000000	na
58.064840	0.049998	63.000000	nontarget	9.000000	na
58.114838	0.050063	63.000000	nontarget	10.000000	na
58.164901	0.049292	63.000000	nontarget	11.000000	na
58.214193	0.050719	63.000000	nontarget	12.000000	na
58.264912	0.049977	63.000000	nontarget	13.000000	na
58.314889	0.049551	63.000000	nontarget	14.000000	na
58.364440	0.050413	63.000000	nontarget	15.000000	na
58.414853	0.050021	63.000000	nontarget	16.000000	na
58.464873	0.049971	64.000000	nontarget	1.000000	na
58.514844	0.050159	64.000000	nontarget	2.000000	na
58.565003	0.049425	64.000000	nontarget	3.000000	na
58.614428	0.049606	64.000000	nontarget	4.000000	na
58.664034	0.050996	64.000000	nontarget	5.000000	na
58.715030	0.050008	64.000000	nontarget	6.000000	na
58.765038	0.049709	64.000000	nontarget	7.000000	na
58.814747	0.050292	64.000000	nontarget	8.000000	na
58.865039	0.049815	64.000000	nontarget	9.000000	na
58.914854	0.050012	64.000000	nontarget	10.000000	na
58.964866	0.050012	64.000000	nontarget	11.000000	na
59.014877	0.049377	64.000000	nontarget	12.000000	na
59.064255	0.049708	64.000000	nontarget	13.000000	na
59.113963	0.050915	64.000000	nontarget	14.000000	na
59.164878	0.049993	64.000000	nontarget	15.000000	na
59.214871	0.055488	64.000000	nontarget	16.000000	na
59.270358	0.043819	65.000000	nontarget	1.000000	59.275313
59.314177	0.049619	65.000000	nontarget	2.000000	na
59.363796	0.051019	65.000000	nontarget	3.000000	na
59.414815	0.050035	65.000000	nontarget	4.000000	na
59.464850	0.050137	65.000000	nontarget	5.000000	na
59.514988	0.050018	65.000000	nontarget	6.000000	na
59.565006	0.049878	65.000000	nontarget	7.000000	na
59.614884	0.049964	65.000000	nontarget	8.000000	na
59.664848	0.049899	65.000000	nontarget	9.000000	na
59.714747	0.049964	65.000000	nontarget	10.000000	na
59.764711	0.050103	65.000000	nontarget	11.000000	na
59.814814	0.050043	65.000000	nontarget	12.000000	na
59.864857	0.050096	65.000000	nontarget	13.000000	na
59.914953	0.049757	65.000000	nontarget	14.000000	na
59.964710	0.049959	65.000000	nontarget	15.000000	na
60.014669	0.049427	65.000000	nontarget	16.000000	na
60.064096	0.050171	66.000000	nontarget	1.000000	na
60.114267	0.050603	66.000000	nontarget	2.000000	na
60.164869	0.049585	66.000000	nontarget	3.000000	na
60.214455	0.049892	66.000000	nontarget	4.000000	na
60.264347	0.050037	66.000000	nontarget	5.000000	na
60.314384	0.049765	66.000000	nontarget	6.000000	na
60.364149	0.049618	66.000000	nontarget	7.000000	60.399516
60.413767	0.051115	66.000000	nontarget	8.000000	na
60.464882	0.049998	66.000000	nontarget	9.000000	na
60.514880	0.049959	66.000000	nontarget	10.000000	na
60.564839	0.049804	66.000000	nontarget	11.000000	na
60.614643	0.049651	66.000000	nontarget	12.000000	na
60.664295	0.049774	66.000000	nontarget	13.000000	na
60.714068	0.050767	66.000000	nontarget	14.000000	na
60.764835	0.050118	66.000000	nontarget	15.000000	na
60.814954	0.049779	66.000000	nontarget	16.000000	na
60.864733	0.050119	67.000000	nontarget	1.000000	na
60.914852	0.050209	67.000000	nontarget	2.000000	na
60.965060	0.049693	67.000000	nontarget	3.000000	na
61.014753	0.050073	67.000000	nontarget	4.000000	na
61.064826	0.050082	67.000000	nontarget	5.000000	na
61.114908	0.050042	67.000000	nontarget	6.000000	na
61.164950	0.049911	67.000000	nontarget	7.000000	na
61.214862	0.049515	67.000000	nontarget	8.000000	na
61.264377	0.050455	67.000000	nontarget	9.000000	na
61.314831	0.050050	67.000000	nontarget	10.000000	61.334270
61.364882	0.049995	67.000000	nontarget	11.000000	na
61.414877	0.050093	67.000000	nontarget	12.000000	na
61.464970	0.049853	67.000000	nontarget	13.000000	na
61.514823	0.050024	67.000000	nontarget	14.000000	na
61.564846	0.049365	67.000000	nontarget	15.000000	na
61.614211	0.050271	67.000000	nontarget	16.000000	na
61.664482	0.049338	68.000000	nontarget	1.000000	na
61.713821	0.051158	68.000000	nontarget	2.000000	na
61.764979	0.049844	68.000000	nontarget	3.000000	na
61.814823	0.049646	68.000000	nontarget	4.000000	na
61.864469	0.050337	68.000000	nontarget	5.000000	na
61.914806	0.049840	68.000000	nontarget	6.000000	na
61.964645	0.050246	68.000000	nontarget	7.000000	na
62.014892	0.049247	68.000000	nontarget	8.000000	na
62.064139	0.050822	68.000000	nontarget	9.000000	na
62.114961	0.050051	68.000000	nontarget	10.000000	na
62.165012	0.049251	68.000000	nontarget	11.000000	na
62.214262	0.049695	68.000000	nontarget	12.000000	na
62.263957	0.050654	68.000000	nontarget	13.000000	na
62.314610	0.050245	68.000000	nontarget	14.000000	62.320952
62.364856	0.049945	68.000000	nontarget	15.000000	na
62.414801	0.049418	68.000000	nontarget	16.000000	na
62.464218	0.050733	69.000000	nontarget	1.000000	na
62.514952	0.048984	69.000000	nontarget	2.000000	na
62.563936	0.050715	69.000000	nontarget	3.000000	na
62.614651	0.050175	69.000000	nontarget	4.000000	na
62.664826	0.049976	69.000000	nontarget	5.000000	na
62.714802	0.050044	69.000000	nontarget	6.000000	na
62.764846	0.049807	69.000000	nontarget	7.000000	na
62.814653	0.050124	69.000000	nontarget	8.000000	na
62.864777	0.050190	69.000000	nontarget	9.000000	na
62.914967	0.050032	69.000000	nontarget	10.000000	na
62.964999	0.049831	69.000000	nontarget	11.000000	na
63.014830	0.050001	69.000000	nontarget	12.000000	na
63.064831	0.050205	69.000000	nontarget	13.000000	na
63.115036	0.049869	69.000000	nontarget	14.000000	na
63.164905	0.050184	69.000000	nontarget	15.000000	na
63.215089	0.048952	69.000000	nontarget	16.000000	na
63.264041	0.050664	70.000000	nontarget	1.000000	63.271441
63.314705	0.049747	70.000000	nontarget	2.000000	na
63.364452	0.050325	70.000000	nontarget	3.000000	na
63.414777	0.050285	70.000000	nontarget	4.000000	na
63.465062	0.049874	70.000000	nontarget	5.000000	na
63.514936	0.050212	70.000000	nontarget	6.000000	na
63.565149	0.049728	70.000000	nontarget	7.000000	na
63.614877	0.049241	70.000000	nontarget	8.000000	na
63.664118	0.050677	70.000000	nontarget	9.000000	na
63.714795	0.050006	70.000000	nontarget	10.000000	na
63.764801	0.049225	70.000000	nontarget	11.000000	na
63.814026	0.050954	70.000000	nontarget	12.000000	na
63.864980	0.049659	70.000000	nontarget	13.000000	na
63.914639	0.050431	70.000000	nontarget	14.000000	na
63.965070	0.049737	70.000000	nontarget	15.000000	na
64.014806	0.049509	70.000000	nontarget	16.000000	na
64.064315	0.049785	71.000000	nontarget	1.000000	na
64.114100	0.050918	71.000000	nontarget	2.000000	na
64.165019	0.049964	71.000000	nontarget	3.000000	64.188644
64.214983	0.049452	71.000000	nontarget	4.000000	na
64.264434	0.050356	71.000000	nontarget	5.000000	na
64.314790	0.050198	71.000000	nontarget	6.000000	na
64.364988	0.049977	71.000000	nontarget	7.000000	na
64.414965	0.049120	71.000000	nontarget	8.000000	na
64.464084	0.050963	71.000000	nontarget	9.000000	na
64.515047	0.049745	71.000000	nontarget	10.000000	na
64.564793	0.050071	71.000000	nontarget	11.000000	na
64.614864	0.049973	71.000000	nontarget	12.000000	na
64.664837	0.049934	71.000000	nontarget	13.000000	na
64.714771	0.050029	71.000000	nontarget	14.000000	na
64.764800	0.049908	71.000000	nontarget	15.000000	na
64.814709	0.050328	71.000000	nontarget	16.000000	na
64.865037	0.049595	72.000000	nontarget	1.000000	na
64.914632	0.049984	72.000000	nontarget	2.000000	na
64.964615	0.050400	72.000000	nontarget	3.000000	na
65.015016	0.049864	72.000000	nontarget	4.000000	na
65.064880	0.049430	72.000000	nontarget	5.000000	na
65.114309	0.049833	72.000000	nontarget	6.000000	na
65.164142	0.050562	72.000000	nontarget	7.000000	65.194784
65.214704	0.049710	72.000000	nontarget	8.000000	na
65.264414	0.049852	72.000000	nontarget	9.000000	na
65.314266	0.050091	72.000000	nontarget	10.000000	na
65.364357	0.050593	72.000000	nontarget	11.000000	na
65.414949	0.049561	72.000000	nontarget	12.000000	na
65.464510	0.050349	72.000000	nontarget	13.000000	na
65.514859	0.049629	72.000000	nontarget	14.000000	na
65.564488	0.050484	72.000000	nontarget	15.000000	na
65.614971	0.049732	72.000000	nontarget	16.000000	na
65.664703	0.050045	73.000000	target	1.000000	na
65.714748	0.050378	73.000000	target	2.000000	na
65.765126	0.049628	73.000000	target	3.000000	na
65.814754	0.049472	73.000000	target	4.000000	na
65.864226	0.050502	73.000000	target	5.000000	na
65.914728	0.050072	73.000000	target	6.000000	na
65.964800	0.050173	73.000000	target	7.000000	na
66.014972	0.049940	73.000000	target	8.000000	na
66.064912	0.049792	73.000000	target	9.000000	na
66.114704	0.050311	73.000000	target	10.000000	na
66.165014	0.049867	73.000000	target	11.000000	na
66.214881	0.050247	73.000000	target	12.000000	na
66.265128	0.048983	73.000000	target	13.000000	na
66.314111	0.050891	73.000000	target	14.000000	na
66.365002	0.049754	73.000000	target	15.000000	na
66.414756	0.049973	73.000000	target	16.000000	na
66.464729	0.049039	74.000000	nontarget	1.000000	na
66.513768	0.051199	74.000000	nontarget	2.000000	66.522549
66.564967	0.049304	74.000000	nontarget	3.000000	na
66.614272	0.049870	74.000000	nontarget	4.000000	na
66.664142	0.050954	74.000000	nontarget	5.000000	na
66.715096	0.049064	74.000000	nontarget	6.000000	na
66.764160	0.050353	74.000000	nontarget	7.000000	na
66.814512	0.050380	74.000000	nontarget	8.000000	na
66.864892	0.050078	74.000000	nontarget	9.000000	na
66.914971	0.049437	74.000000	nontarget	10.000000	na
66.964408	0.050694	74.000000	nontarget	11.000000	na
67.015102	0.049427	74.000000	nontarget	12.000000	na
67.064529	0.050377	74.000000	nontarget	13.000000	na
67.114906	0.049845	74.000000	nontarget	14.000000	na
67.164751	0.050371	74.000000	nontarget	15.000000	na
67.215122	0.049621	74.000000	nontarget	16.000000	na
67.264742	0.049971	75.000000	nontarget	1.000000	na
67.314713	0.050319	75.000000	nontarget	2.000000	na
67.365032	0.049436	75.000000	nontarget	3.000000	na
67.414468	0.050228	75.000000	nontarget	4.000000	na
67.464696	0.050131	75.000000	nontarget	5.000000	na
67.514827	0.049808	75.000000	nontarget	6.000000	na
67.564635	0.050319	75.000000	nontarget	7.000000	na
67.614954	0.049712	75.000000	nontarget	8.000000	na
67.664666	0.049212	75.000000	nontarget	9.000000	na
67.713878	0.050596	75.000000	nontarget	10.000000	67.720719
67.764474	0.050260	75.000000	nontarget	11.000000	na
67.814734	0.050039	75.000000	nontarget	12.000000	na
67.864773	0.049397	75.000000	nontarget	13.000000	na
67.914170	0.049928	75.000000	nontarget	14.000000	na
67.964099	0.050236	75.000000	nontarget	15.000000	na
68.014335	0.049919	75.000000	nontarget	16.000000	na
68.064254	0.050692	76.000000	nontarget	1.000000	na
68.114946	0.049815	76.000000	nontarget	2.000000	na
68.164761	0.049944	76.000000	nontarget	3.000000	na
68.214705	0.049313	76.000000	nontarget	4.000000	na
68.264018	0.050458	76.000000	nontarget	5.000000	na
68.314477	0.050247	76.000000	nontarget	6.000000	na
68.364724	0.049347	76.000000	nontarget	7.000000	na
68.414071	0.050587	76.000000	nontarget	8.000000	na
68.464657	0.049224	76.000000	nontarget	9.000000	na
68.513881	0.050829	76.000000	nontarget	10.000000	na
68.564710	0.049953	76.000000	nontarget	11.000000	na
68.614664	0.050075	76.000000	nontarget	12.000000	na
68.664738	0.049971	76.000000	nontarget	13.000000	na
68.714709	0.050013	76.000000	nontarget	14.000000	na
68.764722	0.049974	76.000000	nontarget	15.000000	na
68.814696	0.050296	76.000000	nontarget	16.000000	na
68.864991	0.048964	77.000000	nontarget	1.000000	68.892006
68.913955	0.050894	77.000000	nontarget	2.000000	na
68.964849	0.049921	77.000000	nontarget	3.000000	na
69.014770	0.049297	77.000000	nontarget	4.000000	na
69.064067	0.050653	77.000000	nontarget	5.000000	na
69.114719	0.050121	77.000000	nontarget	6.000000	na
69.164840	0.049891	77.000000	nontarget	7.000000	na
69.214731	0.049732	77.000000	nontarget	8.000000	na
69.264463	0.049693	77.000000	nontarget	9.000000	na
69.314156	0.049399	77.000000	nontarget	10.000000	na
69.363555	0.050518	77.000000	nontarget	11.000000	na
69.414072	0.050208	77.000000	nontarget	12.000000	na
69.464281	0.050051	77.000000	nontarget	13.000000	na
69.514332	0.049828	77.000000	nontarget	14.000000	na
69.564160	0.050747	77.000000	nontarget	15.000000	na
69.614907	0.049767	77.000000	nontarget	16.000000	na
69.664675	0.049784	78.000000	nontarget	1.000000	na
69.714459	0.049871	78.000000	nontarget	2.000000	na
69.764330	0.050184	78.000000	nontarget	3.000000	na
69.814513	0.050187	78.000000	nontarget	4.000000	na
69.864701	0.050123	78.000000	nontarget	5.000000	na
69.914824	0.050340	78.000000	nontarget	6.000000	69.950130
69.965164	0.049551	78.000000	nontarget	7.000000	na
70.014714	0.049504	78.000000	nontarget	8.000000	na
70.064218	0.050046	78.000000	nontarget	9.000000	na
70.114264	0.049962	78.000000	nontarget	10.000000	na
70.164226	0.050184	78.000000	nontarget	11.000000	na
70.214409	0.049931	78.000000	nontarget	12.000000	na
70.264340	0.050360	78.000000	nontarget	13.000000	na
70.314701	0.050137	78.000000	nontarget	14.000000	na
70.364838	0.049845	78.000000	nontarget	15.000000	na
70.414682	0.049460	78.000000	nontarget	16.000000	na
70.464142	0.050323	79.000000	nontarget	1.000000	na
70.514465	0.049132	79.000000	nontarget	2.000000	na
70.563597	0.051093	79.000000	nontarget	3.000000	na
70.614690	0.049550	79.000000	nontarget	4.000000	na
70.664240	0.050019	79.000000	nontarget	5.000000	na
70.714259	0.050667	79.000000	nontarget	6.000000	na
70.764927	0.049719	79.000000	nontarget	7.000000	na
70.814646	0.050027	79.000000	nontarget	8.000000	na
70.864673	0.050000	79.000000	nontarget	9.000000	na
70.914673	0.050036	79.000000	nontarget	10.000000	na
70.964709	0.049612	79.000000	nontarget	11.000000	na
71.014321	0.049914	79.000000	nontarget	12.000000	na
71.064234	0.050099	79.000000	nontarget	13.000000	na
71.114333	0.050323	79.000000	nontarget	14.000000	na
71.164656	0.049196	79.000000	nontarget	15.000000	na
71.213852	0.051118	79.000000	nontarget	16.000000	71.221252
71.264970	0.049714	80.000000	nontarget	1.000000	71.271563
71.314684	0.050025	80.000000	nontarget	2.000000	na
71.364709	0.049409	80.000000	nontarget	3.000000	na
71.414118	0.049867	80.000000	nontarget	4.000000	na
71.463985	0.050398	80.000000	nontarget	5.000000	na
71.514383	0.049206	80.000000	nontarget	6.000000	na
71.563589	0.050236	80.000000	nontarget	7.000000	na
71.613825	0.050383	80.000000	nontarget	8.000000	na
71.664208	0.050625	80.000000	nontarget	9.000000	na
71.714833	0.049676	80.000000	nontarget	10.000000	na
71.764509	0.049959	80.000000	nontarget	11.000000	na
71.814468	0.049793	80.000000	nontarget	12.000000	na
71.864262	0.050536	80.000000	nontarget	13.000000	na
71.914798	0.049899	80.000000	nontarget	14.000000	na
71.964698	0.049303	80.000000	nontarget	15.000000	na
72.014000	0.050723	80.000000	nontarget	16.000000	na
72.064723	0.050029	81.000000	nontarget	1.000000	na
72.114752	0.049927	81.000000	nontarget	2.000000	na
72.164679	0.049984	81.000000	nontarget	3.000000	na
72.214663	0.049384	81.000000	nontarget	4.000000	na
72.264047	0.050846	81.000000	nontarget	5.000000	na
72.314893	0.049448	81.000000	nontarget	6.000000	na
72.364341	0.049928	81.000000	nontarget	7.000000	na
72.414269	0.050615	81.000000	nontarget	8.000000	72.433577
72.464884	0.049835	81.000000	nontarget	9.000000	na
72.514719	0.048876	81.000000	nontarget	10.000000	na
72.563595	0.050675	81.000000	nontarget	11.000000	na
72.614270	0.050408	81.000000	nontarget	12.000000	na
72.664678	0.049942	81.000000	nontarget	13.000000	na
72.714620	0.048920	81.000000	nontarget	14.000000	na
72.763540	0.051202	81.000000	nontarget	15.000000	na
72.814742	0.049857	81.000000	nontarget	16.000000	na
72.864598	0.049487	82.000000	nontarget	1.000000	na
72.914086	0.050590	82.000000	nontarget	2.000000	na
72.964676	0.049192	82.000000	nontarget	3.000000	na
73.013867	0.050856	82.000000	nontarget	4.000000	na
73.064724	0.049979	82.000000	nontarget	5.000000	na
73.114703	0.049979	82.000000	nontarget	6.000000	na
73.164682	0.049964	82.000000	nontarget	7.000000	na
73.214645	0.049790	82.000000	nontarget	8.000000	na
73.264436	0.050238	82.000000	nontarget	9.000000	na
73.314674	0.049261	82.000000	nontarget	10.000000	na
73.363935	0.050692	82.000000	nontarget	11.000000	na
73.414627	0.049570	82.000000	nontarget	12.000000	na
73.464196	0.050455	82.000000	nontarget	13.000000	na
73.514651	0.049658	82.000000	nontarget	14.000000	na
73.564309	0.050338	82.000000	nontarget	15.000000	na
73.614647	0.049384	82.000000	nontarget	16.000000	na
73.664031	0.050632	83.000000	nontarget	1.000000	na
73.714663	0.049696	83.000000	nontarget	2.000000	73.725991
73.764358	0.050353	83.000000	nontarget	3.000000	na
73.814711	0.049599	83.000000	nontarget	4.000000	na
73.864310	0.050530	83.000000	nontarget	5.000000	na
73.914839	0.049450	83.000000	nontarget	6.000000	na
73.964289	0.049824	83.000000	nontarget	7.000000	na
74.014113	0.050722	83.000000	nontarget	8.000000	na
74.064835	0.049341	83.000000	nontarget	9.000000	na
74.114176	0.050061	83.000000	nontarget	10.000000	na
74.164236	0.049987	83.000000	nontarget	11.000000	na
74.214224	0.049947	83.000000	nontarget	12.000000	na
74.264171	0.049887	83.000000	nontarget	13.000000	na
74.314058	0.049944	83.000000	nontarget	14.000000	na
74.364002	0.050781	83.000000	nontarget	15.000000	na
74.414783	0.049506	83.000000	nontarget	16.000000	na
74.464289	0.050106	84.000000	nontarget	1.000000	na
74.514395	0.049671	84.000000	nontarget	2.000000	na
74.564066	0.049847	84.000000	nontarget	3.000000	na
74.613913	0.050729	84.000000	nontarget	4.000000	na
74.664642	0.049977	84.000000	nontarget	5.000000	na
74.714619	0.049042	84.000000	nontarget	6.000000	na
74.763661	0.050967	84.000000	nontarget	7.000000	na
74.814628	0.049421	84.000000	nontarget	8.000000	na
74.864048	0.050040	84.000000	nontarget	9.000000	na
74.914088	0.050586	84.000000	nontarget	10.000000	74.923887
74.964674	0.049994	84.000000	nontarget	11.000000	na
75.014668	0.049613	84.000000	nontarget	12.000000	na
75.064281	0.050486	84.000000	nontarget	13.000000	na
75.114767	0.048925	84.000000	nontarget	14.000000	na
75.163692	0.051010	84.000000	nontarget	15.000000	na
75.214702	0.049937	84.000000	nontarget	16.000000	na
75.264638	0.050206	85.000000	nontarget	1.000000	na
75.314844	0.049934	85.000000	nontarget	2.000000	na
75.364778	0.050085	85.000000	nontarget	3.000000	na
75.414863	0.049782	85.000000	nontarget	4.000000	na
75.464645	0.049978	85.000000	nontarget	5.000000	na
75.514623	0.050012	85.000000	nontarget	6.000000	na
75.564634	0.049588	85.000000	nontarget	7.000000	na
75.614222	0.050639	85.000000	nontarget	8.000000	na
75.664861	0.049992	85.000000	nontarget	9.000000	na
75.714854	0.049996	85.000000	nontarget	10.000000	na
75.764849	0.049716	85.000000	nontarget	11.000000	na
75.814565	0.050074	85.000000	nontarget	12.000000	na
75.864639	0.049605	85.000000	nontarget	13.000000	na
75.914244	0.049961	85.000000	nontarget	14.000000	na
75.964205	0.050250	85.000000	nontarget	15.000000	na
76.014456	0.049388	85.000000	nontarget	16.000000	na
76.063844	0.050796	86.000000	nontarget	1.000000	na
76.114640	0.049478	86.000000	nontarget	2.000000	76.127096
76.164118	0.050573	86.000000	nontarget	3.000000	na
76.214691	0.049321	86.000000	nontarget	4.000000	na
76.264012	0.049846	86.000000	nontarget	5.000000	na
76.313858	0.050779	86.000000	nontarget	6.000000	na
76.364637	0.050012	86.000000	nontarget	7.000000	na
76.414650	0.049605	86.000000	nontarget	8.000000	na
76.464255	0.050377	86.000000	nontarget	9.000000	na
76.514632	0.050182	86.000000	nontarget	10.000000	na
76.564814	0.049809	86.000000	nontarget	11.000000	na
76.614623	0.049551	86.000000	nontarget	12.000000	na
76.664174	0.050258	86.000000	nontarget	13.000000	na
76.714432	0.050030	86.000000	nontarget	14.000000	na
76.764462	0.049985	86.000000	nontarget	15.000000	na
76.814447	0.050231	86.000000	nontarget	16.000000	na
76.864677	0.049954	87.000000	nontarget	1.000000	na
76.914631	0.049050	87.000000	nontarget	2.000000	na
76.963680	0.050592	87.000000	nontarget	3.000000	na
77.014272	0.049919	87.000000	nontarget	4.000000	77.045825
77.064192	0.050450	87.000000	nontarget	5.000000	na
77.114642	0.049565	87.000000	nontarget	6.000000	na
77.164207	0.049793	87.000000	nontarget	7.000000	na
77.214000	0.050605	87.000000	nontarget	8.000000	na
77.264604	0.050228	87.000000	nontarget	9.000000	na
77.314833	0.049496	87.000000	nontarget	10.000000	na
77.364329	0.050189	87.000000	nontarget	11.000000	na
77.414517	0.050095	87.000000	nontarget	12.000000	na
77.464613	0.050029	87.000000	nontarget	13.000000	na
77.514642	0.050208	87.000000	nontarget	14.000000	na
77.564850	0.049954	87.000000	nontarget	15.000000	na
77.614805	0.049950	87.000000	nontarget	16.000000	na
77.664755	0.049351	88.000000	target	1.000000	na
77.714106	0.050381	88.000000	target	2.000000	na
77.764487	0.049536	88.000000	target	3.000000	na
77.814023	0.050745	88.000000	target	4.000000	na
77.864768	0.049748	88.000000	target	5.000000	na
77.914516	0.049302	88.000000	target	6.000000	na
77.963818	0.050465	88.000000	target	7.000000	na
78.014282	0.050428	88.000000	target	8.000000	na
78.064711	0.049788	88.000000	target	9.000000	na
78.114498	0.050112	88.000000	target	10.000000	na
78.164610	0.050009	88.000000	target	11.000000	na
78.214619	0.049577	88.000000	target	12.000000	na
78.264196	0.050059	88.000000	target	13.000000	na
78.314254	0.050631	88.000000	target	14.000000	na
78.364886	0.049366	88.000000	target	15.000000	na
78.414251	0.050256	88.000000	target	16.000000	na
78.464507	0.049939	89.000000	nontarget	1.000000	na
78.514447	0.050326	89.000000	nontarget	2.000000	na
78.564772	0.049369	89.000000	nontarget	3.000000	na
78.614142	0.050277	89.000000	nontarget	4.000000	na
78.664419	0.050182	89.000000	nontarget	5.000000	na
78.714600	0.050055	89.000000	nontarget	6.000000	78.730567
78.764656	0.049987	89.000000	nontarget	7.000000	na
78.814642	0.049983	89.000000	nontarget	8.000000	na
78.864626	0.049171	89.000000	nontarget	9.000000	na
78.913796	0.050836	89.000000	nontarget	10.000000	na
78.964633	0.050365	89.000000	nontarget	11.000000	na
79.014998	0.049647	89.000000	nontarget	12.000000	na
79.064645	0.049588	89.000000	nontarget	13.000000	na
79.114233	0.049639	89.000000	nontarget	14.000000	na
79.163871	0.050618	89.000000	nontarget	15.000000	na
79.214489	0.049974	89.000000	nontarget	16.000000	na
79.264463	0.050093	90.000000	nontarget	1.000000	na
79.314557	0.049643	90.000000	nontarget	2.000000	na
79.364200	0.050461	90.000000	nontarget	3.000000	na
79.414661	0.049711	90.000000	nontarget	4.000000	na
79.464372	0.049675	90.000000	nontarget	5.000000	na
79.514048	0.050304	90.000000	nontarget	6.000000	na
79.564351	0.050079	90.000000	nontarget	7.000000	na
79.614430	0.050317	90.000000	nontarget	8.000000	na
79.664747	0.050032	90.000000	nontarget	9.000000	na
79.714778	0.049749	90.000000	nontarget	10.000000	na
79.764527	0.049968	90.000000	nontarget	11.000000	na
79.814495	0.049807	90.000000	nontarget	12.000000	na
79.864302	0.050124	90.000000	nontarget	13.000000	na
79.914426	0.050009	90.000000	nontarget	14.000000	na
79.964435	0.049897	90.000000	nontarget	15.000000	na
80.014332	0.133503	90.000000	nontarget	16.000000	80.025850
80.147835	0.049631	91.000000	target	1.000000	80.154476
80.197466	0.050005	91.000000	target	2.000000	na
80.247472	0.050486	91.000000	target	3.000000	na
80.297958	0.050025	91.000000	target	4.000000	na
80.347983	0.049963	91.000000	target	5.000000	na
80.397946	0.049601	91.000000	target	6.000000	na
80.447547	0.050280	91.000000	target	7.000000	na
80.497827	0.049373	91.000000	target	8.000000	na
80.547201	0.050575	91.000000	target	9.000000	na
80.597775	0.049662	91.000000	target	10.000000	na
80.647438	0.050379	91.000000	target	11.000000	na
80.697817	0.049936	91.000000	target	12.000000	na
80.747753	0.049864	91.000000	target	13.000000	na
80.797617	0.050204	91.000000	target	14.000000	na
80.847821	0.049871	91.000000	target	15.000000	na
80.897692	0.050142	91.000000	target	16.000000	na
80.947834	0.049696	92.000000	target	1.000000	na
80.997530	0.049968	92.000000	target	2.000000	na
81.047499	0.050341	92.000000	target	3.000000	na
81.097840	0.049957	92.000000	target	4.000000	na
81.147797	0.050394	92.000000	target	5.000000	na
81.198191	0.049668	92.000000	target	6.000000	na
81.247859	0.049553	92.000000	target	7.000000	na
81.297412	0.050078	92.000000	target	8.000000	na
81.347490	0.050351	92.000000	target	9.000000	na
81.397841	0.049981	92.000000	target	10.000000	na
81.447821	0.049383	92.000000	target	11.000000	na
81.497205	0.050856	92.000000	target	12.000000	na
81.548061	0.049707	92.000000	target	13.000000	na
81.597768	0.050194	92.000000	target	14.000000	na
81.647962	0.049752	92.000000	target	15.000000	na
81.697714	0.049918	92.000000	target	16.000000	na
81.747632	0.050124	93.000000	nontarget	1.000000	na
81.797757	0.050079	93.000000	nontarget	2.000000	na
81.847836	0.049955	93.000000	nontarget	3.000000	na
81.897791	0.050270	93.000000	nontarget	4.000000	na
81.948061	0.050003	93.000000	nontarget	5.000000	na
81.998064	0.049254	93.000000	nontarget	6.000000	82.004841
82.047318	0.050494	93.000000	nontarget	7.000000	na
82.097812	0.050184	93.000000	nontarget	8.000000	na
82.147996	0.049795	93.000000	nontarget	9.000000	na
82.197791	0.050170	93.000000	nontarget	10.000000	na
82.247961	0.049129	93.000000	nontarget	11.000000	na
82.297090	0.050717	93.000000	nontarget	12.000000	na
82.347807	0.049638	93.000000	nontarget	13.000000	na
82.397445	0.050818	93.000000	nontarget	14.000000	na
82.448263	0.049082	93.000000	nontarget	15.000000	na
82.497346	0.049726	93.000000	nontarget	16.000000	na
82.547071	0.050763	94.000000	nontarget	1.000000	na
82.597835	0.049261	94.000000	nontarget	2.000000	na
82.647095	0.050671	94.000000	nontarget	3.000000	na
82.697766	0.049921	94.000000	nontarget	4.000000	na
82.747687	0.049863	94.000000	nontarget	5.000000	na
82.797550	0.050251	94.000000	nontarget	6.000000	na
82.847801	0.049688	94.000000	nontarget	7.000000	na
82.897489	0.049575	94.000000	nontarget	8.000000	82.913498
82.947065	0.050544	94.000000	nontarget	9.000000	na
82.997609	0.050185	94.000000	nontarget	10.000000	na
83.047793	0.049994	94.000000	nontarget	11.000000	na
83.097787	0.049935	94.000000	nontarget	12.000000	na
83.147723	0.050029	94.000000	nontarget	13.000000	na
83.197752	0.050018	94.000000	nontarget	14.000000	na
83.247770	0.049775	94.000000	nontarget	15.000000	na
83.297545	0.049454	94.000000	nontarget	16.000000	na
83.346999	0.051003	95.000000	nontarget	1.000000	na
83.398002	0.048888	95.000000	nontarget	2.000000	na
83.446890	0.050892	95.000000	nontarget	3.000000	na
83.497782	0.050233	95.000000	nontarget	4.000000	na
83.548015	0.049333	95.000000	nontarget	5.000000	na
83.597348	0.050422	95.000000	nontarget	6.000000	na
83.647770	0.049709	95.000000	nontarget	7.000000	na
83.697479	0.050214	95.000000	nontarget	8.000000	na
83.747693	0.050039	95.000000	nontarget	9.000000	na
83.797732	0.049375	95.000000	nontarget	10.000000	na
83.847107	0.050578	95.000000	nontarget	11.000000	na
83.897685	0.049973	95.000000	nontarget	12.000000	na
83.947658	0.050426	95.000000	nontarget	13.000000	na
83.998084	0.049589	95.000000	nontarget	14.000000	na
84.047673	0.050247	95.000000	nontarget	15.000000	na
84.097920	0.049521	95.000000	nontarget	16.000000	na
84.147441	0.050383	96.000000	nontarget	1.000000	84.170818
84.197824	0.050169	96.000000	nontarget	2.000000	na
84.247993	0.049460	96.000000	nontarget	3.000000	na
84.297453	0.050309	96.000000	nontarget	4.000000	na
84.347762	0.049983	96.000000	nontarget	5.000000	na
84.397745	0.050093	96.000000	nontarget	6.000000	na
84.447838	0.049911	96.000000	nontarget	7.000000	na
84.497749	0.049742	96.000000	nontarget	8.000000	na
84.547491	0.050146	96.000000	nontarget	9.000000	na
84.597637	0.049812	96.000000	nontarget	10.000000	na
84.647449	0.050527	96.000000	nontarget	11.000000	na
84.697976	0.049603	96.000000	nontarget	12.000000	na
84.747579	0.050078	96.000000	nontarget	13.000000	na
84.797657	0.049262	96.000000	nontarget	14.000000	na
84.846919	0.050752	96.000000	nontarget	15.000000	na
84.897671	0.049772	96.000000	nontarget	16.000000	na
84.947443	0.050341	97.000000	target	1.000000	na
84.997784	0.049560	97.000000	target	2.000000	na
85.047345	0.050416	97.000000	target	3.000000	na
85.097761	0.050014	97.000000	target	4.000000	na
85.147774	0.049302	97.000000	target	5.000000	na
85.197077	0.050777	97.000000	target	6.000000	na
85.247854	0.049467	97.000000	target	7.000000	na
85.297320	0.050460	97.000000	target	8.000000	na
85.347781	0.049813	97.000000	target	9.000000	na
85.397594	0.049932	97.000000	target	10.000000	na
85.447526	0.050206	97.000000	target	11.000000	na
85.497731	0.049808	97.000000	target	12.000000	na
85.547539	0.049543	97.000000	target	13.000000	na
85.597082	0.050649	97.000000	target	14.000000	na
85.647731	0.049702	97.000000	target	15.000000	na
85.697433	0.050214	97.000000	target	16.000000	na
85.747647	0.049302	98.000000	target	1.000000	na
85.796949	0.050437	98.000000	target	2.000000	na
85.847386	0.050471	98.000000	target	3.000000	na
85.897857	0.049210	98.000000	target	4.000000	na
85.947066	0.050530	98.000000	target	5.000000	na
85.997596	0.050475	98.000000	target	6.000000	na
86.048071	0.049535	98.000000	target	7.000000	na
86.097606	0.050013	98.000000	target	8.000000	na
86.147619	0.049956	98.000000	target	9.000000	na
86.197574	0.050099	98.000000	target	10.000000	na
86.247673	0.050058	98.000000	target	11.000000	na
86.297732	0.050082	98.000000	target	12.000000	na
86.347814	0.050085	98.000000	target	13.000000	na
86.397899	0.049947	98.000000	target	14.000000	86.409443
86.447846	0.049919	98.000000	target	15.000000	na
86.497765	0.049297	98.000000	target	16.000000	na
86.547062	0.050532	99.000000	nontarget	1.000000	86.553686
86.597594	0.049713	99.000000	nontarget	2.000000	na
86.647307	0.050183	99.000000	nontarget	3.000000	na
86.697490	0.049453	99.000000	nontarget	4.000000	na
86.746942	0.050803	99.000000	nontarget	5.000000	na
86.797745	0.049962	99.000000	nontarget	6.000000	na
86.847707	0.049795	99.000000	nontarget	7.000000	na
86.897502	0.050132	99.000000	nontarget	8.000000	na
86.947634	0.049879	99.000000	nontarget	9.000000	na
86.997513	0.050237	99.000000	nontarget	10.000000	na
87.047750	0.050000	99.000000	nontarget	11.000000	na
87.097749	0.049918	99.000000	nontarget	12.000000	na
87.147667	0.049829	99.000000	nontarget	13.000000	na
87.197496	0.050040	99.000000	nontarget	14.000000	na
87.247536	0.050223	99.000000	nontarget	15.000000	na
87.297759	0.049988	99.000000	nontarget	16.000000	na
87.347747	0.050231	100.000000	target	1.000000	na
87.397978	0.049074	100.000000	target	2.000000	na
87.447051	0.050156	100.000000	target	3.000000	na
87.497207	0.050585	100.000000	target	4.000000	na
87.547792	0.049911	100.000000	target	5.000000	na
87.597703	0.050120	100.000000	target	6.000000	na
87.647823	0.049674	100.000000	target	7.000000	na
87.697498	0.050192	100.000000	target	8.000000	na
87.747689	0.050396	100.000000	target	9.000000	na
87.798085	0.049640	100.000000	target	10.000000	na
87.847725	0.049690	100.000000	target	11.000000	na
87.897415	0.050296	100.000000	target	12.000000	na
87.947711	0.049855	100.000000	target	13.000000	na
87.997566	0.050546	100.000000	target	14.000000	na
88.048111	0.049638	100.000000	target	15.000000	88.063567
88.097750	0.049974	100.000000	target	16.000000	na
88.147724	0.049691	101.000000	nontarget	1.000000	88.154338
88.197414	0.050216	101.000000	nontarget	2.000000	na
88.247630	0.049989	101.000000	nontarget	3.000000	na
88.297619	0.050098	101.000000	nontarget	4.000000	na
88.347717	0.050032	101.000000	nontarget	5.000000	na
88.397750	0.049960	101.000000	nontarget	6.000000	na
88.447710	0.049235	101.000000	nontarget	7.000000	na
88.496946	0.051133	101.000000	nontarget	8.000000	na
88.548078	0.049651	101.000000	nontarget	9.000000	na
88.597730	0.050360	101.000000	nontarget	10.000000	na
88.648090	0.049503	101.000000	nontarget	11.000000	na
88.697593	0.049613	101.000000	nontarget	12.000000	na
88.747206	0.050199	101.000000	nontarget	13.000000	na
88.797405	0.050429	101.000000	nontarget	14.000000	na
88.847834	0.049855	101.000000	nontarget	15.000000	na
88.897690	0.049998	101.000000	nontarget	16.000000	na
88.947688	0.050347	102.000000	target	1.000000	na
88.998034	0.049695	102.000000	target	2.000000	na
89.047729	0.050093	102.000000	target	3.000000	na
89.097822	0.049862	102.000000	target	4.000000	na
89.147684	0.049963	102.000000	target	5.000000	na
89.197647	0.049991	102.000000	target	6.000000	na
89.247637	0.050397	102.000000	target	7.000000	na
89.298034	0.049672	102.000000	target	8.000000	na
89.347706	0.050357	102.000000	target	9.000000	na
89.398063	0.049643	102.000000	target	10.000000	na
89.447706	0.049771	102.000000	target	11.000000	na
89.497477	0.049566	102.000000	target	12.000000	na
89.547044	0.050622	102.000000	target	13.000000	na
89.597665	0.050041	102.000000	target	14.000000	na
89.647707	0.049838	102.000000	target	15.000000	na
89.697545	0.049947	102.000000	target	16.000000	na
89.747491	0.050436	103.000000	nontarget	1.000000	na
89.797927	0.049311	103.000000	nontarget	2.000000	89.817364
89.847239	0.050094	103.000000	nontarget	3.000000	na
89.897333	0.050386	103.000000	nontarget	4.000000	na
89.947718	0.050494	103.000000	nontarget	5.000000	na
89.998212	0.049489	103.000000	nontarget	6.000000	na
90.047701	0.049614	103.000000	nontarget	7.000000	na
90.097316	0.050421	103.000000	nontarget	8.000000	na
90.147737	0.049813	103.000000	nontarget	9.000000	na
90.197550	0.050142	103.000000	nontarget	10.000000	na
90.247693	0.049516	103.000000	nontarget	11.000000	na
90.297209	0.050324	103.000000	nontarget	12.000000	na
90.347533	0.050030	103.000000	nontarget	13.000000	na
90.397563	0.050023	103.000000	nontarget	14.000000	na
90.447587	0.050414	103.000000	nontarget	15.000000	na
90.498001	0.049655	103.000000	nontarget	16.000000	na
90.547656	0.049830	104.000000	nontarget	1.000000	na
90.597486	0.050264	104.000000	nontarget	2.000000	na
90.647750	0.049583	104.000000	nontarget	3.000000	na
90.697333	0.050119	104.000000	nontarget	4.000000	na
90.747452	0.050528	104.000000	nontarget	5.000000	na
90.797980	0.049727	104.000000	nontarget	6.000000	90.809292
90.847707	0.049583	104.000000	nontarget	7.000000	na
90.897290	0.050321	104.000000	nontarget	8.000000	na
90.947610	0.050407	104.000000	nontarget	9.000000	na
90.998017	0.049691	104.000000	nontarget	10.000000	na
91.047708	0.050250	104.000000	nontarget	11.000000	na
91.097957	0.049206	104.000000	nontarget	12.000000	na
91.147163	0.050475	104.000000	nontarget	13.000000	na
91.197638	0.049718	104.000000	nontarget	14.000000	na
91.247356	0.049623	104.000000	nontarget	15.000000	na
91.296979	0.050711	104.000000	nontarget	16.000000	na
91.347690	0.050040	105.000000	nontarget	1.000000	na
91.397730	0.049865	105.000000	nontarget	2.000000	na
91.447595	0.049639	105.000000	nontarget	3.000000	na
91.497234	0.049788	105.000000	nontarget	4.000000	na
91.547023	0.050762	105.000000	nontarget	5.000000	na
91.597785	0.049955	105.000000	nontarget	6.000000	na
91.647740	0.049319	105.000000	nontarget	7.000000	na
91.697059	0.050678	105.000000	nontarget	8.000000	na
91.747737	0.049963	105.000000	nontarget	9.000000	91.759192
91.797700	0.050034	105.000000	nontarget	10.000000	na
91.847734	0.050134	105.000000	nontarget	11.000000	na
91.897868	0.049929	105.000000	nontarget	12.000000	na
91.947797	0.049218	105.000000	nontarget	13.000000	na
91.997015	0.050064	105.000000	nontarget	14.000000	na
92.047079	0.050586	105.000000	nontarget	15.000000	na
92.097665	0.049928	105.000000	nontarget	16.000000	na
92.147593	0.049390	106.000000	nontarget	1.000000	na
92.196983	0.050418	106.000000	nontarget	2.000000	na
92.247402	0.050292	106.000000	nontarget	3.000000	na
92.297693	0.049875	106.000000	nontarget	4.000000	na
92.347569	0.049749	106.000000	nontarget	5.000000	na
92.397318	0.050434	106.000000	nontarget	6.000000	na
92.447752	0.049864	106.000000	nontarget	7.000000	na
92.497617	0.050113	106.000000	nontarget	8.000000	na
92.547730	0.050025	106.000000	nontarget	9.000000	na
92.597754	0.049759	106.000000	nontarget	10.000000	na
92.647513	0.050263	106.000000	nontarget	11.000000	na
92.697776	0.049739	106.000000	nontarget	12.000000	na
92.747516	0.049529	106.000000	nontarget	13.000000	na
92.797045	0.050750	106.000000	nontarget	14.000000	na
92.847795	0.049809	106.000000	nontarget	15.000000	na
92.897604	0.050242	106.000000	nontarget	16.000000	na
92.947845	0.049805	107.000000	target	1.000000	na
92.997650	0.049593	107.000000	target	2.000000	na
93.047244	0.050403	107.000000	target	3.000000	na
93.097647	0.049801	107.000000	target	4.000000	na
93.147448	0.050173	107.000000	target	5.000000	na
93.197621	0.050001	107.000000	target	6.000000	na
93.247622	0.049317	107.000000	target	7.000000	na
93.296939	0.050693	107.000000	target	8.000000	na
93.347632	0.049409	107.000000	target	9.000000	na
93.397041	0.050433	107.000000	target	10.000000	na
93.447474	0.049602	107.000000	target	11.000000	na
93.497076	0.050564	107.000000	target	12.000000	na
93.547640	0.049338	107.000000	target	13.000000	na
93.596978	0.049867	107.000000	target	14.000000	na
93.646845	0.050825	107.000000	target	15.000000	93.674062
93.697669	0.049371	107.000000	target	16.000000	na
93.747040	0.050727	108.000000	nontarget	1.000000	93.753690
93.797767	0.049968	108.000000	nontarget	2.000000	na
93.847735	0.049945	108.000000	nontarget	3.000000	na
93.897679	0.049578	108.000000	nontarget	4.000000	na
93.947257	0.050476	108.000000	nontarget	5.000000	na
93.997733	0.049425	108.000000	nontarget	6.000000	na
94.047157	0.050387	108.000000	nontarget	7.000000	na
94.097544	0.049883	108.000000	nontarget	8.000000	na
94.147427	0.049462	108.000000	nontarget	9.000000	na
94.196890	0.050624	108.000000	nontarget	10.000000	na
94.247514	0.049746	108.000000	nontarget	11.000000	na
94.297260	0.050426	108.000000	nontarget	12.000000	na
94.347687	0.049156	108.000000	nontarget	13.000000	na
94.396843	0.050709	108.000000	nontarget	14.000000	na
94.447552	0.050234	108.000000	nontarget	15.000000	na
94.497786	0.049896	108.000000	nontarget	16.000000	na
94.547682	0.049881	109.000000	nontarget	1.000000	na
94.597563	0.049897	109.000000	nontarget	2.000000	na
94.647459	0.050138	109.000000	nontarget	3.000000	na
94.697598	0.050080	109.000000	nontarget	4.000000	na
94.747678	0.049883	109.000000	nontarget	5.000000	na
94.797560	0.050033	109.000000	nontarget	6.000000	na
94.847594	0.050180	109.000000	nontarget	7.000000	94.854700
94.897774	0.049623	109.000000	nontarget	8.000000	na
94.947397	0.050156	109.000000	nontarget	9.000000	na
94.997553	0.049887	109.000000	nontarget	10.000000	na
95.047440	0.050177	109.000000	nontarget	11.000000	na
95.097617	0.049983	109.000000	nontarget	12.000000	na
95.147600	0.049719	109.000000	nontarget	13.000000	na
95.197319	0.050527	109.000000	nontarget	14.000000	na
95.247846	0.049423	109.000000	nontarget	15.000000	na
95.297268	0.050222	109.000000	nontarget	16.000000	na
95.347490	0.049359	110.000000	nontarget	1.000000	na
95.396849	0.050634	110.000000	nontarget	2.000000	na
95.447483	0.050029	110.000000	nontarget	3.000000	na
95.497513	0.050092	110.000000	nontarget	4.000000	na
95.547604	0.049466	110.000000	nontarget	5.000000	na
95.597070	0.050144	110.000000	nontarget	6.000000	na
95.647214	0.050384	110.000000	nontarget	7.000000	na
95.697598	0.050077	110.000000	nontarget	8.000000	na
95.747674	0.049886	110.000000	nontarget	9.000000	na
95.797560	0.050240	110.000000	nontarget	10.000000	na
95.847800	0.049926	110.000000	nontarget	11.000000	na
95.897726	0.049432	110.000000	nontarget	12.000000	95.924675
95.947158	0.050052	110.000000	nontarget	13.000000	na
95.997210	0.050418	110.000000	nontarget	14.000000	na
96.047628	0.049838	110.000000	nontarget	15.000000	na
96.097466	0.049756	110.000000	nontarget	16.000000	na
96.147222	0.049721	111.000000	nontarget	1.000000	na
96.196943	0.050378	111.000000	nontarget	2.000000	na
96.247320	0.050177	111.000000	nontarget	3.000000	na
96.297497	0.050091	111.000000	nontarget	4.000000	na
96.347588	0.050103	111.000000	nontarget	5.000000	na
96.397691	0.050063	111.000000	nontarget	6.000000	na
96.447754	0.049558	111.000000	nontarget	7.000000	na
96.497311	0.050439	111.000000	nontarget	8.000000	na
96.547750	0.049812	111.000000	nontarget	9.000000	na
96.597562	0.050015	111.000000	nontarget	10.000000	na
96.647577	0.049981	111.000000	nontarget	11.000000	na
96.697558	0.049262	111.000000	nontarget	12.000000	na
96.746821	0.050418	111.000000	nontarget	13.000000	na
96.797239	0.049994	111.000000	nontarget	14.000000	na
96.847233	0.050543	111.000000	nontarget	15.000000	na
96.897776	0.055596	111.000000	nontarget	16.000000	na
96.953372	0.044057	112.000000	nontarget	1.000000	96.958202
96.997429	0.049687	112.000000	nontarget	2.000000	na
97.047116	0.050483	112.000000	nontarget	3.000000	na
97.097599	0.049105	112.000000	nontarget	4.000000	na
97.146703	0.050614	112.000000	nontarget	5.000000	na
97.197317	0.050264	112.000000	nontarget	6.000000	na
97.247581	0.049331	112.000000	nontarget	7.000000	na
97.296912	0.050905	112.000000	nontarget	8.000000	na
97.347818	0.049757	112.000000	nontarget	9.000000	na
97.397574	0.049999	112.000000	nontarget	10.000000	na
97.447573	0.049993	112.000000	nontarget	11.000000	na
97.497566	0.050006	112.000000	nontarget	12.000000	na
97.547573	0.050152	112.000000	nontarget	13.000000	na
97.597724	0.049713	112.000000	nontarget	14.000000	na
97.647438	0.050128	112.000000	nontarget	15.000000	na
97.697566	0.050107	112.000000	nontarget	16.000000	na
97.747673	0.049845	113.000000	target	1.000000	na
97.797518	0.049000	113.000000	target	2.000000	na
97.846518	0.050902	113.000000	target	3.000000	na
97.897420	0.050068	113.000000	target	4.000000	na
97.947488	0.049462	113.000000	target	5.000000	na
97.996951	0.050844	113.000000	target	6.000000	na
98.047795	0.049766	113.000000	target	7.000000	na
98.097561	0.049468	113.000000	target	8.000000	na
98.147029	0.049747	113.000000	target	9.000000	na
98.196776	0.050971	113.000000	target	10.000000	na
98.247747	0.049560	113.000000	target	11.000000	na
98.297307	0.050031	113.000000	target	12.000000	na
98.347339	0.050049	113.000000	target	13.000000	na
98.397388	0.049394	113.000000	target	14.000000	na
98.446782	0.050813	113.000000	target	15.000000	na
98.497595	0.049921	113.000000	target	16.000000	na
98.547516	0.049752	114.000000	nontarget	1.000000	na
98.597268	0.049873	114.000000	nontarget	2.000000	98.604676
98.647141	0.050457	114.000000	nontarget	3.000000	na
98.697598	0.049780	114.000000	nontarget	4.000000	na
98.747379	0.050206	114.000000	nontarget	5.000000	na
98.797585	0.049286	114.000000	nontarget	6.000000	na
98.846871	0.050579	114.000000	nontarget	7.000000	na
98.897450	0.049881	114.000000	nontarget	8.000000	na
98.947331	0.049855	114.000000	nontarget	9.000000	na
98.997186	0.049589	114.000000	nontarget	10.000000	na
99.046775	0.050882	114.000000	nontarget	11.000000	na
99.097657	0.049801	114.000000	nontarget	12.000000	na
99.147459	0.050138	114.000000	nontarget	13.000000	na
99.197596	0.049206	114.000000	nontarget	14.000000	na
99.246802	0.050096	114.000000	nontarget	15.000000	na
99.296898	0.050238	114.000000	nontarget	16.000000	na
99.347136	0.050417	115.000000	nontarget	1.000000	na
99.397554	0.050077	115.000000	nontarget	2.000000	na
99.447631	0.049909	115.000000	nontarget	3.000000	na
99.497539	0.050091	115.000000	nontarget	4.000000	na
99.547630	0.049965	115.000000	nontarget	5.000000	99.559128
99.597595	0.049356	115.000000	nontarget	6.000000	na
99.646951	0.050621	115.000000	nontarget	7.000000	na
99.697572	0.049542	115.000000	nontarget	8.000000	na
99.747114	0.050374	115.000000	nontarget	9.000000	na
99.797487	0.050030	115.000000	nontarget	10.000000	na
99.847517	0.049471	115.000000	nontarget	11.000000	na
99.896987	0.050566	115.000000	nontarget	12.000000	na
99.947554	0.051732	115.000000	nontarget	13.000000	na
99.999286	0.047864	115.000000	nontarget	14.000000	na
100.047150	0.050496	115.000000	nontarget	15.000000	na
100.097646	0.049954	115.000000	nontarget	16.000000	na
100.147600	0.049512	116.000000	nontarget	1.000000	na
100.197113	0.050010	116.000000	nontarget	2.000000	na
100.247123	0.050415	116.000000	nontarget	3.000000	na
100.297538	0.050009	116.000000	nontarget	4.000000	na
100.347547	0.050112	116.000000	nontarget	5.000000	na
100.397659	0.049914	116.000000	nontarget	6.000000	na
100.447573	0.050084	116.000000	nontarget	7.000000	100.470988
100.497657	0.049932	116.000000	nontarget	8.000000	na
100.547589	0.049533	116.000000	nontarget	9.000000	na
100.597122	0.050441	116.000000	nontarget	10.000000	na
100.647563	0.049246	116.000000	nontarget	11.000000	na
100.696809	0.049940	116.000000	nontarget	12.000000	na
100.746749	0.050729	116.000000	nontarget	13.000000	na
100.797478	0.049256	116.000000	nontarget	14.000000	na
100.846733	0.050807	116.000000	nontarget	15.000000	na
100.897540	0.050009	116.000000	nontarget	16.000000	na
100.947548	0.049862	117.000000	nontarget	1.000000	na
100.997410	0.050151	117.000000	nontarget	2.000000	na
101.047561	0.050045	117.000000	nontarget	3.000000	na
101.097606	0.049856	117.000000	nontarget	4.000000	na
101.147462	0.049937	117.000000	nontarget	5.000000	na
101.197399	0.049833	117.000000	nontarget	6.000000	na
101.247232	0.049932	117.000000	nontarget	7.000000	na
101.297164	0.050436	117.000000	nontarget	8.000000	na
101.347600	0.049957	117.000000	nontarget	9.000000	na
101.397557	0.049794	117.000000	nontarget	10.000000	na
101.447350	0.049580	117.000000	nontarget	11.000000	na
101.496930	0.050639	117.000000	nontarget	12.000000	101.508232
101.547569	0.049585	117.000000	nontarget	13.000000	na
101.597154	0.050123	117.000000	nontarget	14.000000	na
101.647277	0.050254	117.000000	nontarget	15.000000	na
101.697530	0.050015	117.000000	nontarget	16.000000	na
101.747546	0.050133	118.000000	nontarget	1.000000	na
101.797679	0.049804	118.000000	nontarget	2.000000	na
101.847483	0.050085	118.000000	nontarget	3.000000	na
101.897568	0.049973	118.000000	nontarget	4.000000	na
101.947541	0.049802	118.000000	nontarget	5.000000	na
101.997343	0.050222	118.000000	nontarget	6.000000	na
102.047565	0.049725	118.000000	nontarget	7.000000	na
102.097291	0.050080	118.000000	nontarget	8.000000	na
102.147371	0.049580	118.000000	nontarget	9.000000	na
102.196951	0.050678	118.000000	nontarget	10.000000	na
102.247629	0.049890	118.000000	nontarget	11.000000	na
102.297519	0.050031	118.000000	nontarget	12.000000	na
102.347551	0.051668	118.000000	nontarget	13.000000	na
102.399219	0.048402	118.000000	nontarget	14.000000	102.405694
102.447621	0.049650	118.000000	nontarget	15.000000	na
102.497271	0.049281	118.000000	nontarget	16.000000	na
102.546552	0.050904	119.000000	nontarget	1.000000	na
102.597456	0.049994	119.000000	nontarget	2.000000	na
102.647450	0.050154	119.000000	nontarget	3.000000	na
102.697604	0.049491	119.000000	nontarget	4.000000	na
102.747095	0.049708	119.000000	nontarget	5.000000	na
102.796803	0.050698	119.000000	nontarget	6.000000	na
102.847500	0.050003	119.000000	nontarget	7.000000	na
102.897504	0.050112	119.000000	nontarget	8.000000	na
102.947615	0.049582	119.000000	nontarget	9.000000	na
102.997197	0.049715	119.000000	nontarget	10.000000	na
103.046913	0.050623	119.000000	nontarget	11.000000	na
103.097536	0.049443	119.000000	nontarget	12.000000	na
103.146979	0.050493	119.000000	nontarget	13.000000	na
103.197472	0.049904	119.000000	nontarget	14.000000	na
103.247376	0.050101	119.000000	nontarget	15.000000	na
103.297477	0.050057	119.000000	nontarget	16.000000	na
103.347534	0.049634	120.000000	nontarget	1.000000	103.381971
103.397168	0.050281	120.000000	nontarget	2.000000	na
103.447449	0.050066	120.000000	nontarget	3.000000	na
103.497515	0.049697	120.000000	nontarget	4.000000	na
103.547212	0.050310	120.000000	nontarget	5.000000	na
103.597521	0.049754	120.000000	nontarget	6.000000	na
103.647275	0.050160	120.000000	nontarget	7.000000	na
103.697435	0.049673	120.000000	nontarget	8.000000	na
103.747108	0.050638	120.000000	nontarget	9.000000	na
103.797746	0.049690	120.000000	nontarget	10.000000	na
103.847436	0.050079	120.000000	nontarget	11.000000	na
103.897514	0.049991	120.000000	nontarget	12.000000	na
103.947505	0.049969	120.000000	nontarget	13.000000	na
103.997475	0.049949	120.000000	nontarget	14.000000	na
104.047424	0.049784	120.000000	nontarget	15.000000	na
104.097208	0.049862	120.000000	nontarget	16.000000	na
104.147070	0.050331	121.000000	nontarget	1.000000	na
104.197401	0.050010	121.000000	nontarget	2.000000	na
104.247411	0.049677	121.000000	nontarget	3.000000	na
104.297088	0.050308	121.000000	nontarget	4.000000	na
104.347396	0.049898	121.000000	nontarget	5.000000	na
104.397294	0.049907	121.000000	nontarget	6.000000	na
104.447201	0.050463	121.000000	nontarget	7.000000	na
104.497663	0.049889	121.000000	nontarget	8.000000	na
104.547552	0.049315	121.000000	nontarget	9.000000	104.581099
104.596866	0.050438	121.000000	nontarget	10.000000	na
104.647304	0.050335	121.000000	nontarget	11.000000	na
104.697639	0.049863	121.000000	nontarget	12.000000	na
104.747503	0.049070	121.000000	nontarget	13.000000	na
104.796573	0.050895	121.000000	nontarget	14.000000	na
104.847468	0.049614	121.000000	nontarget	15.000000	na
104.897082	0.050744	121.000000	nontarget	16.000000	na
104.947826	0.049518	122.000000	nontarget	1.000000	na
104.997344	0.049555	122.000000	nontarget	2.000000	na
