onset	duration	trial_number	trial_type	frame_number	time_of_response
8.065979	0.050454	1.000000	nontarget	1.000000	na
8.116433	0.050006	1.000000	nontarget	2.000000	na
8.166439	0.049923	1.000000	nontarget	3.000000	na
8.216362	0.050268	1.000000	nontarget	4.000000	na
8.266631	0.049706	1.000000	nontarget	5.000000	na
8.316336	0.049504	1.000000	nontarget	6.000000	na
8.365840	0.050490	1.000000	nontarget	7.000000	na
8.416330	0.050232	1.000000	nontarget	8.000000	na
8.466562	0.049572	1.000000	nontarget	9.000000	na
8.516134	0.050049	1.000000	nontarget	10.000000	8.522735
8.566183	0.050326	1.000000	nontarget	11.000000	na
8.616509	0.049887	1.000000	nontarget	12.000000	na
8.666396	0.049686	1.000000	nontarget	13.000000	na
8.716082	0.050459	1.000000	nontarget	14.000000	na
8.766541	0.049979	1.000000	nontarget	15.000000	na
8.816520	0.049645	1.000000	nontarget	16.000000	na
8.866165	0.049533	2.000000	nontarget	1.000000	na
8.915698	0.050820	2.000000	nontarget	2.000000	na
8.966518	0.049155	2.000000	nontarget	3.000000	na
9.015673	0.050703	2.000000	nontarget	4.000000	na
9.066376	0.050030	2.000000	nontarget	5.000000	na
9.116405	0.049576	2.000000	nontarget	6.000000	na
9.165981	0.050390	2.000000	nontarget	7.000000	na
9.216371	0.049609	2.000000	nontarget	8.000000	na
9.265980	0.049998	2.000000	nontarget	9.000000	na
9.315978	0.049989	2.000000	nontarget	10.000000	na
9.365967	0.050336	2.000000	nontarget	11.000000	9.381310
9.416303	0.050222	2.000000	nontarget	12.000000	na
9.466525	0.050077	2.000000	nontarget	13.000000	na
9.516602	0.049276	2.000000	nontarget	14.000000	na
9.565879	0.050590	2.000000	nontarget	15.000000	na
9.616469	0.049926	2.000000	nontarget	16.000000	na
9.666394	0.050007	3.000000	nontarget	1.000000	na
9.716401	0.050199	3.000000	nontarget	2.000000	na
9.766601	0.049189	3.000000	nontarget	3.000000	na
9.815789	0.050544	3.000000	nontarget	4.000000	na
9.866333	0.050205	3.000000	nontarget	5.000000	na
9.916538	0.049824	3.000000	nontarget	6.000000	na
9.966362	0.049855	3.000000	nontarget	7.000000	na
10.016217	0.049996	3.000000	nontarget	8.000000	na
10.066214	0.050394	3.000000	nontarget	9.000000	na
10.116608	0.049652	3.000000	nontarget	10.000000	na
10.166260	0.050174	3.000000	nontarget	11.000000	na
10.216434	0.049930	3.000000	nontarget	12.000000	na
10.266364	0.049635	3.000000	nontarget	13.000000	na
10.315999	0.049866	3.000000	nontarget	14.000000	na
10.365865	0.050764	3.000000	nontarget	15.000000	na
10.416629	0.049592	3.000000	nontarget	16.000000	na
10.466222	0.050142	4.000000	target	1.000000	na
10.516364	0.049464	4.000000	target	2.000000	na
10.565828	0.050754	4.000000	target	3.000000	na
10.616582	0.049764	4.000000	target	4.000000	na
10.666346	0.050087	4.000000	target	5.000000	na
10.716433	0.050093	4.000000	target	6.000000	na
10.766526	0.050088	4.000000	target	7.000000	na
10.816615	0.049739	4.000000	target	8.000000	na
10.866353	0.050029	4.000000	target	9.000000	na
10.916382	0.049785	4.000000	target	10.000000	na
10.966167	0.050003	4.000000	target	11.000000	na
11.016170	0.049624	4.000000	target	12.000000	na
11.065794	0.050452	4.000000	target	13.000000	na
11.116246	0.049416	4.000000	target	14.000000	11.147391
11.165662	0.050855	4.000000	target	15.000000	na
11.216517	0.049839	4.000000	target	16.000000	na
11.266355	0.049206	5.000000	nontarget	1.000000	11.273277
11.315562	0.050612	5.000000	nontarget	2.000000	na
11.366173	0.049794	5.000000	nontarget	3.000000	na
11.415967	0.049889	5.000000	nontarget	4.000000	na
11.465856	0.050423	5.000000	nontarget	5.000000	na
11.516279	0.050010	5.000000	nontarget	6.000000	na
11.566289	0.049739	5.000000	nontarget	7.000000	na
11.616028	0.049589	5.000000	nontarget	8.000000	na
11.665617	0.050692	5.000000	nontarget	9.000000	na
11.716309	0.050032	5.000000	nontarget	10.000000	na
11.766342	0.049995	5.000000	nontarget	11.000000	na
11.816336	0.050033	5.000000	nontarget	12.000000	na
11.866370	0.049514	5.000000	nontarget	13.000000	na
11.915884	0.050747	5.000000	nontarget	14.000000	na
11.966631	0.049546	5.000000	nontarget	15.000000	na
12.016177	0.050153	5.000000	nontarget	16.000000	na
12.066330	0.050022	6.000000	nontarget	1.000000	na
12.116352	0.050254	6.000000	nontarget	2.000000	12.122957
12.166606	0.049853	6.000000	nontarget	3.000000	na
12.216459	0.049416	6.000000	nontarget	4.000000	na
12.265874	0.050729	6.000000	nontarget	5.000000	na
12.316603	0.049771	6.000000	nontarget	6.000000	na
12.366374	0.049859	6.000000	nontarget	7.000000	na
12.416233	0.050258	6.000000	nontarget	8.000000	na
12.466490	0.050107	6.000000	nontarget	9.000000	na
12.516597	0.049282	6.000000	nontarget	10.000000	na
12.565879	0.050373	6.000000	nontarget	11.000000	na
12.616253	0.050305	6.000000	nontarget	12.000000	na
12.666557	0.049649	6.000000	nontarget	13.000000	na
12.716206	0.049627	6.000000	nontarget	14.000000	na
12.765833	0.050794	6.000000	nontarget	15.000000	na
12.816628	0.049639	6.000000	nontarget	16.000000	12.832465
12.866266	0.049944	7.000000	nontarget	1.000000	12.872965
12.916210	0.050123	7.000000	nontarget	2.000000	na
12.966333	0.049780	7.000000	nontarget	3.000000	na
13.016114	0.049973	7.000000	nontarget	4.000000	na
13.066087	0.050579	7.000000	nontarget	5.000000	na
13.116666	0.049439	7.000000	nontarget	6.000000	na
13.166105	0.049636	7.000000	nontarget	7.000000	na
13.215741	0.050763	7.000000	nontarget	8.000000	na
13.266504	0.049825	7.000000	nontarget	9.000000	na
13.316329	0.049491	7.000000	nontarget	10.000000	na
13.365820	0.050432	7.000000	nontarget	11.000000	na
13.416252	0.049952	7.000000	nontarget	12.000000	na
13.466205	0.050121	7.000000	nontarget	13.000000	na
13.516326	0.049522	7.000000	nontarget	14.000000	13.547794
13.565848	0.050768	7.000000	nontarget	15.000000	na
13.616616	0.049745	7.000000	nontarget	16.000000	na
13.666361	0.050252	8.000000	target	1.000000	13.672944
13.716613	0.049275	8.000000	target	2.000000	na
13.765888	0.050525	8.000000	target	3.000000	na
13.816413	0.050107	8.000000	target	4.000000	na
13.866520	0.049817	8.000000	target	5.000000	na
13.916337	0.049983	8.000000	target	6.000000	na
13.966321	0.049818	8.000000	target	7.000000	na
14.016138	0.050193	8.000000	target	8.000000	na
14.066331	0.049980	8.000000	target	9.000000	na
14.116311	0.050007	8.000000	target	10.000000	na
14.166318	0.049550	8.000000	target	11.000000	na
14.215868	0.050443	8.000000	target	12.000000	na
14.266311	0.050176	8.000000	target	13.000000	na
14.316488	0.049213	8.000000	target	14.000000	na
14.365701	0.050764	8.000000	target	15.000000	na
14.416465	0.050062	8.000000	target	16.000000	na
14.466528	0.049180	9.000000	nontarget	1.000000	na
14.515708	0.050085	9.000000	nontarget	2.000000	na
14.565793	0.050592	9.000000	nontarget	3.000000	na
14.616385	0.049930	9.000000	nontarget	4.000000	na
14.666314	0.050189	9.000000	nontarget	5.000000	na
14.716503	0.049404	9.000000	nontarget	6.000000	14.723284
14.765907	0.050421	9.000000	nontarget	7.000000	na
14.816328	0.050019	9.000000	nontarget	8.000000	na
14.866348	0.050096	9.000000	nontarget	9.000000	na
14.916444	0.050025	9.000000	nontarget	10.000000	na
14.966469	0.049725	9.000000	nontarget	11.000000	na
15.016194	0.050418	9.000000	nontarget	12.000000	na
15.066613	0.049949	9.000000	nontarget	13.000000	na
15.116562	0.049609	9.000000	nontarget	14.000000	na
15.166171	0.049573	9.000000	nontarget	15.000000	na
15.215745	0.049927	9.000000	nontarget	16.000000	na
15.265672	0.050461	10.000000	nontarget	1.000000	na
15.316133	0.050093	10.000000	nontarget	2.000000	na
15.366226	0.050066	10.000000	nontarget	3.000000	na
15.416292	0.049560	10.000000	nontarget	4.000000	na
15.465852	0.050100	10.000000	nontarget	5.000000	na
15.515953	0.049708	10.000000	nontarget	6.000000	na
15.565661	0.050252	10.000000	nontarget	7.000000	na
15.615913	0.050376	10.000000	nontarget	8.000000	na
15.666289	0.050000	10.000000	nontarget	9.000000	na
15.716289	0.049958	10.000000	nontarget	10.000000	na
15.766247	0.050017	10.000000	nontarget	11.000000	na
15.816264	0.049906	10.000000	nontarget	12.000000	na
15.866171	0.050071	10.000000	nontarget	13.000000	15.873164
15.916242	0.050067	10.000000	nontarget	14.000000	na
15.966308	0.049810	10.000000	nontarget	15.000000	na
16.016118	0.050205	10.000000	nontarget	16.000000	na
16.066324	0.049624	11.000000	nontarget	1.000000	na
16.115947	0.050178	11.000000	nontarget	2.000000	na
16.166125	0.049727	11.000000	nontarget	3.000000	na
16.215852	0.050330	11.000000	nontarget	4.000000	na
16.266182	0.050104	11.000000	nontarget	5.000000	na
16.316286	0.049997	11.000000	nontarget	6.000000	na
16.366283	0.049590	11.000000	nontarget	7.000000	na
16.415873	0.050163	11.000000	nontarget	8.000000	na
16.466036	0.049991	11.000000	nontarget	9.000000	na
16.516027	0.050270	11.000000	nontarget	10.000000	na
16.566297	0.050004	11.000000	nontarget	11.000000	na
16.616301	0.049812	11.000000	nontarget	12.000000	na
16.666113	0.050194	11.000000	nontarget	13.000000	na
16.716307	0.049524	11.000000	nontarget	14.000000	16.722901
16.765831	0.050060	11.000000	nontarget	15.000000	na
16.815891	0.050501	11.000000	nontarget	16.000000	na
16.866393	0.049813	12.000000	nontarget	1.000000	na
16.916206	0.050020	12.000000	nontarget	2.000000	na
16.966227	0.049943	12.000000	nontarget	3.000000	na
17.016170	0.049745	12.000000	nontarget	4.000000	na
17.065915	0.050360	12.000000	nontarget	5.000000	na
17.116274	0.050006	12.000000	nontarget	6.000000	na
17.166280	0.050082	12.000000	nontarget	7.000000	na
17.216362	0.049927	12.000000	nontarget	8.000000	na
17.266289	0.050177	12.000000	nontarget	9.000000	na
17.316466	0.049215	12.000000	nontarget	10.000000	na
17.365681	0.050581	12.000000	nontarget	11.000000	na
17.416262	0.050017	12.000000	nontarget	12.000000	na
17.466279	0.049891	12.000000	nontarget	13.000000	na
17.516170	0.049848	12.000000	nontarget	14.000000	na
17.566018	0.049650	12.000000	nontarget	15.000000	na
17.615668	0.050557	12.000000	nontarget	16.000000	na
17.666225	0.049459	13.000000	nontarget	1.000000	17.672093
17.715684	0.050390	13.000000	nontarget	2.000000	na
17.766073	0.050168	13.000000	nontarget	3.000000	na
17.816241	0.050021	13.000000	nontarget	4.000000	na
17.866262	0.050065	13.000000	nontarget	5.000000	na
17.916327	0.049513	13.000000	nontarget	6.000000	na
17.965840	0.050294	13.000000	nontarget	7.000000	na
18.016134	0.049574	13.000000	nontarget	8.000000	na
18.065709	0.050537	13.000000	nontarget	9.000000	na
18.116245	0.049733	13.000000	nontarget	10.000000	na
18.165978	0.050252	13.000000	nontarget	11.000000	na
18.216230	0.050032	13.000000	nontarget	12.000000	na
18.266263	0.049423	13.000000	nontarget	13.000000	18.301583
18.315685	0.050627	13.000000	nontarget	14.000000	na
18.366313	0.049950	13.000000	nontarget	15.000000	na
18.416262	0.050197	13.000000	nontarget	16.000000	na
18.466460	0.049800	14.000000	nontarget	1.000000	na
18.516260	0.050008	14.000000	nontarget	2.000000	na
18.566268	0.049984	14.000000	nontarget	3.000000	na
18.616252	0.049611	14.000000	nontarget	4.000000	na
18.665863	0.049913	14.000000	nontarget	5.000000	na
18.715776	0.050378	14.000000	nontarget	6.000000	na
18.766154	0.050344	14.000000	nontarget	7.000000	na
18.816497	0.049855	14.000000	nontarget	8.000000	na
18.866353	0.049764	14.000000	nontarget	9.000000	na
18.916116	0.049535	14.000000	nontarget	10.000000	na
18.965652	0.050459	14.000000	nontarget	11.000000	na
19.016111	0.050153	14.000000	nontarget	12.000000	na
19.066264	0.049582	14.000000	nontarget	13.000000	na
19.115846	0.050403	14.000000	nontarget	14.000000	na
19.166249	0.049664	14.000000	nontarget	15.000000	19.177646
19.215913	0.050488	14.000000	nontarget	16.000000	na
19.266401	0.049654	15.000000	nontarget	1.000000	19.273058
19.316055	0.049614	15.000000	nontarget	2.000000	na
19.365669	0.050570	15.000000	nontarget	3.000000	na
19.416240	0.049768	15.000000	nontarget	4.000000	na
19.466007	0.050213	15.000000	nontarget	5.000000	na
19.516220	0.050005	15.000000	nontarget	6.000000	na
19.566225	0.050017	15.000000	nontarget	7.000000	na
19.616243	0.049554	15.000000	nontarget	8.000000	na
19.665797	0.050454	15.000000	nontarget	9.000000	na
19.716251	0.049705	15.000000	nontarget	10.000000	na
19.765956	0.050244	15.000000	nontarget	11.000000	na
19.816200	0.049699	15.000000	nontarget	12.000000	na
19.865899	0.050343	15.000000	nontarget	13.000000	na
19.916242	0.049418	15.000000	nontarget	14.000000	na
19.965659	0.050526	15.000000	nontarget	15.000000	na
20.016186	0.050049	15.000000	nontarget	16.000000	na
20.066235	0.049914	16.000000	nontarget	1.000000	na
20.116149	0.049830	16.000000	nontarget	2.000000	na
20.165979	0.050249	16.000000	nontarget	3.000000	20.172715
20.216229	0.050172	16.000000	nontarget	4.000000	na
20.266401	0.049895	16.000000	nontarget	5.000000	na
20.316296	0.049939	16.000000	nontarget	6.000000	na
20.366235	0.049528	16.000000	nontarget	7.000000	na
20.415763	0.049850	16.000000	nontarget	8.000000	na
20.465612	0.050422	16.000000	nontarget	9.000000	na
20.516034	0.049881	16.000000	nontarget	10.000000	na
20.565916	0.050432	16.000000	nontarget	11.000000	na
20.616347	0.049750	16.000000	nontarget	12.000000	na
20.666097	0.050121	16.000000	nontarget	13.000000	na
20.716219	0.050007	16.000000	nontarget	14.000000	na
20.766226	0.049879	16.000000	nontarget	15.000000	na
20.816105	0.050290	16.000000	nontarget	16.000000	na
20.866395	0.049317	17.000000	nontarget	1.000000	na
20.915711	0.050141	17.000000	nontarget	2.000000	na
20.965852	0.050366	17.000000	nontarget	3.000000	na
21.016218	0.049286	17.000000	nontarget	4.000000	na
21.065503	0.050706	17.000000	nontarget	5.000000	na
21.116210	0.049747	17.000000	nontarget	6.000000	na
21.165957	0.049496	17.000000	nontarget	7.000000	21.189856
21.215453	0.050799	17.000000	nontarget	8.000000	na
21.266252	0.049987	17.000000	nontarget	9.000000	na
21.316239	0.049676	17.000000	nontarget	10.000000	na
21.365915	0.050306	17.000000	nontarget	11.000000	na
21.416221	0.049986	17.000000	nontarget	12.000000	na
21.466206	0.050001	17.000000	nontarget	13.000000	na
21.516208	0.049869	17.000000	nontarget	14.000000	na
21.566077	0.050226	17.000000	nontarget	15.000000	na
21.616303	0.049919	17.000000	nontarget	16.000000	na
21.666222	0.050068	18.000000	nontarget	1.000000	na
21.716290	0.049946	18.000000	nontarget	2.000000	na
21.766236	0.049924	18.000000	nontarget	3.000000	na
21.816161	0.049584	18.000000	nontarget	4.000000	na
21.865745	0.050464	18.000000	nontarget	5.000000	na
21.916209	0.049600	18.000000	nontarget	6.000000	na
21.965809	0.050350	18.000000	nontarget	7.000000	na
22.016159	0.049885	18.000000	nontarget	8.000000	22.026976
22.066043	0.050195	18.000000	nontarget	9.000000	na
22.116238	0.049645	18.000000	nontarget	10.000000	na
22.165883	0.050410	18.000000	nontarget	11.000000	na
22.216293	0.050108	18.000000	nontarget	12.000000	na
22.266402	0.049895	18.000000	nontarget	13.000000	na
22.316296	0.049899	18.000000	nontarget	14.000000	na
22.366196	0.050007	18.000000	nontarget	15.000000	na
22.416203	0.049596	18.000000	nontarget	16.000000	na
22.465799	0.050451	19.000000	nontarget	1.000000	na
22.516249	0.049475	19.000000	nontarget	2.000000	na
22.565725	0.050494	19.000000	nontarget	3.000000	na
22.616219	0.049975	19.000000	nontarget	4.000000	na
22.666194	0.049859	19.000000	nontarget	5.000000	na
22.716052	0.050108	19.000000	nontarget	6.000000	22.743407
22.766161	0.050039	19.000000	nontarget	7.000000	na
22.816199	0.049772	19.000000	nontarget	8.000000	na
22.865971	0.049939	19.000000	nontarget	9.000000	na
22.915910	0.050300	19.000000	nontarget	10.000000	na
22.966210	0.049949	19.000000	nontarget	11.000000	na
23.016159	0.049450	19.000000	nontarget	12.000000	na
23.065609	0.050556	19.000000	nontarget	13.000000	na
23.116165	0.049675	19.000000	nontarget	14.000000	na
23.165841	0.050483	19.000000	nontarget	15.000000	na
23.216324	0.049971	19.000000	nontarget	16.000000	na
23.266295	0.049369	20.000000	nontarget	1.000000	na
23.315663	0.050541	20.000000	nontarget	2.000000	na
23.366204	0.050025	20.000000	nontarget	3.000000	na
23.416229	0.049722	20.000000	nontarget	4.000000	na
23.465951	0.049826	20.000000	nontarget	5.000000	23.489211
23.515777	0.050325	20.000000	nontarget	6.000000	na
23.566102	0.050084	20.000000	nontarget	7.000000	na
23.616186	0.050015	20.000000	nontarget	8.000000	na
23.666201	0.050231	20.000000	nontarget	9.000000	na
23.716432	0.049241	20.000000	nontarget	10.000000	na
23.765673	0.049812	20.000000	nontarget	11.000000	na
23.815484	0.050755	20.000000	nontarget	12.000000	na
23.866240	0.049441	20.000000	nontarget	13.000000	na
23.915681	0.050416	20.000000	nontarget	14.000000	na
23.966097	0.050079	20.000000	nontarget	15.000000	na
24.016176	0.049725	20.000000	nontarget	16.000000	na
24.065901	0.049864	21.000000	nontarget	1.000000	na
24.115765	0.050133	21.000000	nontarget	2.000000	na
24.165898	0.049697	21.000000	nontarget	3.000000	na
24.215595	0.049881	21.000000	nontarget	4.000000	24.222250
24.265476	0.050702	21.000000	nontarget	5.000000	na
24.316178	0.049190	21.000000	nontarget	6.000000	na
24.365368	0.050809	21.000000	nontarget	7.000000	na
24.416178	0.049929	21.000000	nontarget	8.000000	na
24.466107	0.049893	21.000000	nontarget	9.000000	na
24.516000	0.050182	21.000000	nontarget	10.000000	na
24.566183	0.049610	21.000000	nontarget	11.000000	na
24.615793	0.050000	21.000000	nontarget	12.000000	na
24.665793	0.050072	21.000000	nontarget	13.000000	na
24.715866	0.050315	21.000000	nontarget	14.000000	na
24.766181	0.049985	21.000000	nontarget	15.000000	na
24.816166	0.049834	21.000000	nontarget	16.000000	24.836355
24.866000	0.049549	22.000000	nontarget	1.000000	24.872687
24.915549	0.050837	22.000000	nontarget	2.000000	na
24.966386	0.049226	22.000000	nontarget	3.000000	na
25.015613	0.050553	22.000000	nontarget	4.000000	na
25.066166	0.049945	22.000000	nontarget	5.000000	na
25.116111	0.049737	22.000000	nontarget	6.000000	na
25.165848	0.049564	22.000000	nontarget	7.000000	na
25.215412	0.050193	22.000000	nontarget	8.000000	na
25.265605	0.050714	22.000000	nontarget	9.000000	na
25.316319	0.049629	22.000000	nontarget	10.000000	na
25.365948	0.049961	22.000000	nontarget	11.000000	na
25.415909	0.050479	22.000000	nontarget	12.000000	na
25.466388	0.049829	22.000000	nontarget	13.000000	na
25.516217	0.049948	22.000000	nontarget	14.000000	na
25.566165	0.050197	22.000000	nontarget	15.000000	25.572618
25.616362	0.049319	22.000000	nontarget	16.000000	na
25.665681	0.050551	23.000000	nontarget	1.000000	25.672322
25.716232	0.050165	23.000000	nontarget	2.000000	na
25.766396	0.049760	23.000000	nontarget	3.000000	na
25.816156	0.049996	23.000000	nontarget	4.000000	na
25.866153	0.050011	23.000000	nontarget	5.000000	na
25.916164	0.049986	23.000000	nontarget	6.000000	na
25.966150	0.049939	23.000000	nontarget	7.000000	na
26.016088	0.050059	23.000000	nontarget	8.000000	na
26.066147	0.049826	23.000000	nontarget	9.000000	na
26.115973	0.050129	23.000000	nontarget	10.000000	na
26.166102	0.050086	23.000000	nontarget	11.000000	na
26.216188	0.049982	23.000000	nontarget	12.000000	na
26.266170	0.050349	23.000000	nontarget	13.000000	na
26.316518	0.049443	23.000000	nontarget	14.000000	na
26.365961	0.050162	23.000000	nontarget	15.000000	na
26.416123	0.050283	23.000000	nontarget	16.000000	na
26.466407	0.049377	24.000000	nontarget	1.000000	na
26.515783	0.050310	24.000000	nontarget	2.000000	na
26.566094	0.049561	24.000000	nontarget	3.000000	na
26.615654	0.050645	24.000000	nontarget	4.000000	na
26.666300	0.049362	24.000000	nontarget	5.000000	na
26.715662	0.050466	24.000000	nontarget	6.000000	26.727127
26.766128	0.050202	24.000000	nontarget	7.000000	na
26.816330	0.050354	24.000000	nontarget	8.000000	na
26.866683	0.049029	24.000000	nontarget	9.000000	na
26.915712	0.049951	24.000000	nontarget	10.000000	na
26.965664	0.050347	24.000000	nontarget	11.000000	na
27.016011	0.050096	24.000000	nontarget	12.000000	na
27.066107	0.050156	24.000000	nontarget	13.000000	na
27.116263	0.049904	24.000000	nontarget	14.000000	na
27.166167	0.049730	24.000000	nontarget	15.000000	na
27.215897	0.049782	24.000000	nontarget	16.000000	na
27.265679	0.050491	25.000000	nontarget	1.000000	na
27.316170	0.049666	25.000000	nontarget	2.000000	27.335984
27.365836	0.050256	25.000000	nontarget	3.000000	na
27.416092	0.049636	25.000000	nontarget	4.000000	na
27.465728	0.049911	25.000000	nontarget	5.000000	na
27.515639	0.050179	25.000000	nontarget	6.000000	na
27.565819	0.050177	25.000000	nontarget	7.000000	na
27.615996	0.050361	25.000000	nontarget	8.000000	na
27.666357	0.049857	25.000000	nontarget	9.000000	na
27.716214	0.050230	25.000000	nontarget	10.000000	na
27.766444	0.049706	25.000000	nontarget	11.000000	na
27.816150	0.050137	25.000000	nontarget	12.000000	na
27.866288	0.049559	25.000000	nontarget	13.000000	na
27.915847	0.050261	25.000000	nontarget	14.000000	na
27.966107	0.050033	25.000000	nontarget	15.000000	na
28.016140	0.050323	25.000000	nontarget	16.000000	na
28.066463	0.049604	26.000000	nontarget	1.000000	na
28.116067	0.050415	26.000000	nontarget	2.000000	na
28.166482	0.049815	26.000000	nontarget	3.000000	28.177986
28.216297	0.049129	26.000000	nontarget	4.000000	na
28.265426	0.050288	26.000000	nontarget	5.000000	na
28.315713	0.050123	26.000000	nontarget	6.000000	na
28.365836	0.050267	26.000000	nontarget	7.000000	na
28.416104	0.049791	26.000000	nontarget	8.000000	na
28.465895	0.050187	26.000000	nontarget	9.000000	na
28.516082	0.049868	26.000000	nontarget	10.000000	na
28.565949	0.050314	26.000000	nontarget	11.000000	na
28.616263	0.049452	26.000000	nontarget	12.000000	na
28.665715	0.050413	26.000000	nontarget	13.000000	na
28.716128	0.050311	26.000000	nontarget	14.000000	na
28.766439	0.049653	26.000000	nontarget	15.000000	na
28.816092	0.050000	26.000000	nontarget	16.000000	na
28.866092	0.049471	27.000000	nontarget	1.000000	na
28.915563	0.050538	27.000000	nontarget	2.000000	na
28.966100	0.049985	27.000000	nontarget	3.000000	na
29.016085	0.049258	27.000000	nontarget	4.000000	na
29.065343	0.051117	27.000000	nontarget	5.000000	29.071184
29.116460	0.049492	27.000000	nontarget	6.000000	na
29.165953	0.050624	27.000000	nontarget	7.000000	na
29.216577	0.049646	27.000000	nontarget	8.000000	na
29.266223	0.049212	27.000000	nontarget	9.000000	na
29.315435	0.049916	27.000000	nontarget	10.000000	na
29.365351	0.050701	27.000000	nontarget	11.000000	na
29.416052	0.050010	27.000000	nontarget	12.000000	na
29.466062	0.050440	27.000000	nontarget	13.000000	na
29.516502	0.049450	27.000000	nontarget	14.000000	na
29.565952	0.050220	27.000000	nontarget	15.000000	na
29.616173	0.049903	27.000000	nontarget	16.000000	na
29.666076	0.050211	28.000000	nontarget	1.000000	na
29.716287	0.049693	28.000000	nontarget	2.000000	na
29.765980	0.049356	28.000000	nontarget	3.000000	na
29.815336	0.050531	28.000000	nontarget	4.000000	29.838607
29.865867	0.050115	28.000000	nontarget	5.000000	na
29.915982	0.049711	28.000000	nontarget	6.000000	na
29.965692	0.050390	28.000000	nontarget	7.000000	na
30.016082	0.049651	28.000000	nontarget	8.000000	na
30.065733	0.050583	28.000000	nontarget	9.000000	na
30.116316	0.049769	28.000000	nontarget	10.000000	na
30.166084	0.050153	28.000000	nontarget	11.000000	na
30.216238	0.049797	28.000000	nontarget	12.000000	na
30.266035	0.049641	28.000000	nontarget	13.000000	na
30.315676	0.050407	28.000000	nontarget	14.000000	na
30.366083	0.049957	28.000000	nontarget	15.000000	na
30.416040	0.049894	28.000000	nontarget	16.000000	na
30.465934	0.049902	29.000000	nontarget	1.000000	na
30.515836	0.050000	29.000000	nontarget	2.000000	na
30.565836	0.050148	29.000000	nontarget	3.000000	30.581510
30.615983	0.050138	29.000000	nontarget	4.000000	na
30.666122	0.049949	29.000000	nontarget	5.000000	na
30.716071	0.049776	29.000000	nontarget	6.000000	na
30.765847	0.050439	29.000000	nontarget	7.000000	na
30.816285	0.049800	29.000000	nontarget	8.000000	na
30.866085	0.049271	29.000000	nontarget	9.000000	na
30.915356	0.050378	29.000000	nontarget	10.000000	na
30.965734	0.050373	29.000000	nontarget	11.000000	na
31.016106	0.050123	29.000000	nontarget	12.000000	na
31.066229	0.049597	29.000000	nontarget	13.000000	na
31.115827	0.050217	29.000000	nontarget	14.000000	na
31.166044	0.049399	29.000000	nontarget	15.000000	na
31.215443	0.050604	29.000000	nontarget	16.000000	na
31.266047	0.050040	30.000000	target	1.000000	na
31.316087	0.050161	30.000000	target	2.000000	na
31.366248	0.049792	30.000000	target	3.000000	na
31.416039	0.049655	30.000000	target	4.000000	na
31.465694	0.049853	30.000000	target	5.000000	na
31.515547	0.050154	30.000000	target	6.000000	na
31.565701	0.050318	30.000000	target	7.000000	na
31.616019	0.049620	30.000000	target	8.000000	na
31.665639	0.050356	30.000000	target	9.000000	na
31.715995	0.049896	30.000000	target	10.000000	na
31.765891	0.050395	30.000000	target	11.000000	na
31.816286	0.049777	30.000000	target	12.000000	na
31.866063	0.049969	30.000000	target	13.000000	na
31.916032	0.050004	30.000000	target	14.000000	na
31.966036	0.049945	30.000000	target	15.000000	31.986672
32.015981	0.050312	30.000000	target	16.000000	na
32.066293	0.049733	31.000000	nontarget	1.000000	32.072908
32.116026	0.050098	31.000000	nontarget	2.000000	na
32.166124	0.049595	31.000000	nontarget	3.000000	na
32.215719	0.050112	31.000000	nontarget	4.000000	na
32.265831	0.049924	31.000000	nontarget	5.000000	na
32.315755	0.050276	31.000000	nontarget	6.000000	na
32.366031	0.050007	31.000000	nontarget	7.000000	na
32.416037	0.049996	31.000000	nontarget	8.000000	na
32.466033	0.049314	31.000000	nontarget	9.000000	na
32.515347	0.050606	31.000000	nontarget	10.000000	na
32.565953	0.050160	31.000000	nontarget	11.000000	na
32.616114	0.049921	31.000000	nontarget	12.000000	na
32.666034	0.050164	31.000000	nontarget	13.000000	na
32.716198	0.049653	31.000000	nontarget	14.000000	na
32.765851	0.050127	31.000000	nontarget	15.000000	na
32.815978	0.050036	31.000000	nontarget	16.000000	na
32.866014	0.049716	32.000000	nontarget	1.000000	na
32.915729	0.050175	32.000000	nontarget	2.000000	32.922436
32.965904	0.050315	32.000000	nontarget	3.000000	na
33.016219	0.049218	32.000000	nontarget	4.000000	na
33.065437	0.050590	32.000000	nontarget	5.000000	na
33.116027	0.049994	32.000000	nontarget	6.000000	na
33.166021	0.049585	32.000000	nontarget	7.000000	na
33.215606	0.050419	32.000000	nontarget	8.000000	na
33.266025	0.049991	32.000000	nontarget	9.000000	na
33.316016	0.050019	32.000000	nontarget	10.000000	na
33.366034	0.049467	32.000000	nontarget	11.000000	na
33.415501	0.050744	32.000000	nontarget	12.000000	na
33.466245	0.049772	32.000000	nontarget	13.000000	na
33.516016	0.050207	32.000000	nontarget	14.000000	na
33.566223	0.049766	32.000000	nontarget	15.000000	na
33.615989	0.050024	32.000000	nontarget	16.000000	na
33.666013	0.050005	33.000000	nontarget	1.000000	na
33.716018	0.049416	33.000000	nontarget	2.000000	na
33.765434	0.050263	33.000000	nontarget	3.000000	na
33.815696	0.050504	33.000000	nontarget	4.000000	33.822459
33.866201	0.049150	33.000000	nontarget	5.000000	na
33.915351	0.050660	33.000000	nontarget	6.000000	na
33.966011	0.050135	33.000000	nontarget	7.000000	na
34.016146	0.049409	33.000000	nontarget	8.000000	na
34.065555	0.050454	33.000000	nontarget	9.000000	na
34.116009	0.049718	33.000000	nontarget	10.000000	na
34.165727	0.050449	33.000000	nontarget	11.000000	na
34.216176	0.049955	33.000000	nontarget	12.000000	na
34.266131	0.049859	33.000000	nontarget	13.000000	na
34.315990	0.049543	33.000000	nontarget	14.000000	na
34.365533	0.050153	33.000000	nontarget	15.000000	na
34.415687	0.050325	33.000000	nontarget	16.000000	na
34.466011	0.050007	34.000000	nontarget	1.000000	na
34.516018	0.050096	34.000000	nontarget	2.000000	na
34.566114	0.049669	34.000000	nontarget	3.000000	na
34.615782	0.050116	34.000000	nontarget	4.000000	na
34.665898	0.050014	34.000000	nontarget	5.000000	na
34.715912	0.049931	34.000000	nontarget	6.000000	na
34.765843	0.050057	34.000000	nontarget	7.000000	34.772377
34.815900	0.050316	34.000000	nontarget	8.000000	na
34.866216	0.049806	34.000000	nontarget	9.000000	na
34.916023	0.049830	34.000000	nontarget	10.000000	na
34.965853	0.050267	34.000000	nontarget	11.000000	na
35.016120	0.049881	34.000000	nontarget	12.000000	na
35.066002	0.049989	34.000000	nontarget	13.000000	na
35.115991	0.049989	34.000000	nontarget	14.000000	na
35.165979	0.049334	34.000000	nontarget	15.000000	na
35.215313	0.050302	34.000000	nontarget	16.000000	na
35.265615	0.050412	35.000000	nontarget	1.000000	na
35.316027	0.049527	35.000000	nontarget	2.000000	na
35.365554	0.049936	35.000000	nontarget	3.000000	na
35.415490	0.050026	35.000000	nontarget	4.000000	na
35.465516	0.050079	35.000000	nontarget	5.000000	na
35.515595	0.050319	35.000000	nontarget	6.000000	na
35.565914	0.050084	35.000000	nontarget	7.000000	na
35.615998	0.049952	35.000000	nontarget	8.000000	na
35.665949	0.050044	35.000000	nontarget	9.000000	na
35.715993	0.049853	35.000000	nontarget	10.000000	na
35.765846	0.050138	35.000000	nontarget	11.000000	35.772570
35.815984	0.049963	35.000000	nontarget	12.000000	na
35.865948	0.049914	35.000000	nontarget	13.000000	na
35.915862	0.050020	35.000000	nontarget	14.000000	na
35.965882	0.050353	35.000000	nontarget	15.000000	na
36.016235	0.049246	35.000000	nontarget	16.000000	na
36.065481	0.050204	36.000000	nontarget	1.000000	na
36.115685	0.050285	36.000000	nontarget	2.000000	na
36.165970	0.049322	36.000000	nontarget	3.000000	na
36.215292	0.050677	36.000000	nontarget	4.000000	na
36.265969	0.049808	36.000000	nontarget	5.000000	na
36.315777	0.050276	36.000000	nontarget	6.000000	na
36.366053	0.049964	36.000000	nontarget	7.000000	na
36.416017	0.049979	36.000000	nontarget	8.000000	na
36.465996	0.049986	36.000000	nontarget	9.000000	na
36.515982	0.049520	36.000000	nontarget	10.000000	na
36.565502	0.050494	36.000000	nontarget	11.000000	na
36.615996	0.050081	36.000000	nontarget	12.000000	na
36.666077	0.049244	36.000000	nontarget	13.000000	na
36.715320	0.049726	36.000000	nontarget	14.000000	na
36.765046	0.050938	36.000000	nontarget	15.000000	na
36.815985	0.049388	36.000000	nontarget	16.000000	na
36.865372	0.050796	37.000000	nontarget	1.000000	na
36.916168	0.049727	37.000000	nontarget	2.000000	36.939450
36.965895	0.050258	37.000000	nontarget	3.000000	na
37.016153	0.049443	37.000000	nontarget	4.000000	na
37.065596	0.050526	37.000000	nontarget	5.000000	na
37.116122	0.049646	37.000000	nontarget	6.000000	na
37.165768	0.049941	37.000000	nontarget	7.000000	na
37.215709	0.050272	37.000000	nontarget	8.000000	na
37.265981	0.050001	37.000000	nontarget	9.000000	na
37.315982	0.049633	37.000000	nontarget	10.000000	na
37.365615	0.050365	37.000000	nontarget	11.000000	na
37.415980	0.050002	37.000000	nontarget	12.000000	na
37.465981	0.049758	37.000000	nontarget	13.000000	na
37.515739	0.050243	37.000000	nontarget	14.000000	na
37.565982	0.049930	37.000000	nontarget	15.000000	na
37.615912	0.050064	37.000000	nontarget	16.000000	na
37.665976	0.049524	38.000000	nontarget	1.000000	na
37.715500	0.050315	38.000000	nontarget	2.000000	37.742928
37.765816	0.049702	38.000000	nontarget	3.000000	na
37.815517	0.050468	38.000000	nontarget	4.000000	na
37.865985	0.049990	38.000000	nontarget	5.000000	na
37.915976	0.049892	38.000000	nontarget	6.000000	na
37.965868	0.050347	38.000000	nontarget	7.000000	na
38.016215	0.049466	38.000000	nontarget	8.000000	na
38.065681	0.050249	38.000000	nontarget	9.000000	na
38.115929	0.049928	38.000000	nontarget	10.000000	na
38.165857	0.049366	38.000000	nontarget	11.000000	na
38.215224	0.050443	38.000000	nontarget	12.000000	na
38.265667	0.050309	38.000000	nontarget	13.000000	na
38.315975	0.050105	38.000000	nontarget	14.000000	na
38.366080	0.049886	38.000000	nontarget	15.000000	na
38.415967	0.050032	38.000000	nontarget	16.000000	na
38.465999	0.049180	39.000000	nontarget	1.000000	na
38.515179	0.050802	39.000000	nontarget	2.000000	38.521475
38.565981	0.049991	39.000000	nontarget	3.000000	na
38.615971	0.050031	39.000000	nontarget	4.000000	na
38.666003	0.049977	39.000000	nontarget	5.000000	na
38.715980	0.049720	39.000000	nontarget	6.000000	na
38.765700	0.050333	39.000000	nontarget	7.000000	na
38.816032	0.049660	39.000000	nontarget	8.000000	na
38.865692	0.050321	39.000000	nontarget	9.000000	na
38.916013	0.049216	39.000000	nontarget	10.000000	na
38.965230	0.050975	39.000000	nontarget	11.000000	na
39.016204	0.049581	39.000000	nontarget	12.000000	na
39.065785	0.050307	39.000000	nontarget	13.000000	na
39.116092	0.049765	39.000000	nontarget	14.000000	na
39.165857	0.049409	39.000000	nontarget	15.000000	na
39.215267	0.050175	39.000000	nontarget	16.000000	na
39.265441	0.050598	40.000000	nontarget	1.000000	na
39.316039	0.049453	40.000000	nontarget	2.000000	na
39.365492	0.049744	40.000000	nontarget	3.000000	39.372155
39.415236	0.050818	40.000000	nontarget	4.000000	na
39.466054	0.049909	40.000000	nontarget	5.000000	na
39.515963	0.050183	40.000000	nontarget	6.000000	na
39.566146	0.049508	40.000000	nontarget	7.000000	na
39.615654	0.049688	40.000000	nontarget	8.000000	na
39.665342	0.050384	40.000000	nontarget	9.000000	na
39.715726	0.050247	40.000000	nontarget	10.000000	na
39.765973	0.049997	40.000000	nontarget	11.000000	na
39.815970	0.049827	40.000000	nontarget	12.000000	na
39.865797	0.049690	40.000000	nontarget	13.000000	na
39.915487	0.050330	40.000000	nontarget	14.000000	na
39.965817	0.049199	40.000000	nontarget	15.000000	na
40.015016	0.050929	40.000000	nontarget	16.000000	na
40.065946	0.050012	41.000000	nontarget	1.000000	na
40.115957	0.049861	41.000000	nontarget	2.000000	na
40.165818	0.050060	41.000000	nontarget	3.000000	na
40.215878	0.049899	41.000000	nontarget	4.000000	na
40.265777	0.050203	41.000000	nontarget	5.000000	na
40.315980	0.049954	41.000000	nontarget	6.000000	40.331268
40.365934	0.050030	41.000000	nontarget	7.000000	na
40.415965	0.049155	41.000000	nontarget	8.000000	na
40.465120	0.050780	41.000000	nontarget	9.000000	na
40.515900	0.049421	41.000000	nontarget	10.000000	na
40.565321	0.050377	41.000000	nontarget	11.000000	na
40.615697	0.050480	41.000000	nontarget	12.000000	na
40.666177	0.049760	41.000000	nontarget	13.000000	na
40.715937	0.049920	41.000000	nontarget	14.000000	na
40.765857	0.050355	41.000000	nontarget	15.000000	na
40.816212	0.049844	41.000000	nontarget	16.000000	na
40.866056	0.049887	42.000000	nontarget	1.000000	na
40.915943	0.050266	42.000000	nontarget	2.000000	na
40.966209	0.050076	42.000000	nontarget	3.000000	na
41.016285	0.049441	42.000000	nontarget	4.000000	na
41.065726	0.049668	42.000000	nontarget	5.000000	na
41.115394	0.050525	42.000000	nontarget	6.000000	41.150567
41.165919	0.049620	42.000000	nontarget	7.000000	na
41.215539	0.050490	42.000000	nontarget	8.000000	na
41.266029	0.049289	42.000000	nontarget	9.000000	na
41.315318	0.050749	42.000000	nontarget	10.000000	na
41.366067	0.049833	42.000000	nontarget	11.000000	na
41.415900	0.049253	42.000000	nontarget	12.000000	na
41.465153	0.050425	42.000000	nontarget	13.000000	na
41.515578	0.049826	42.000000	nontarget	14.000000	na
41.565404	0.050418	42.000000	nontarget	15.000000	na
41.615822	0.050360	42.000000	nontarget	16.000000	na
41.666182	0.049733	43.000000	nontarget	1.000000	na
41.715915	0.049953	43.000000	nontarget	2.000000	na
41.765869	0.049933	43.000000	nontarget	3.000000	na
41.815802	0.049859	43.000000	nontarget	4.000000	na
41.865661	0.050288	43.000000	nontarget	5.000000	na
41.915949	0.049984	43.000000	nontarget	6.000000	na
41.965933	0.050251	43.000000	nontarget	7.000000	na
42.016184	0.049113	43.000000	nontarget	8.000000	na
42.065297	0.050822	43.000000	nontarget	9.000000	42.071303
42.116119	0.049546	43.000000	nontarget	10.000000	na
42.165665	0.050364	43.000000	nontarget	11.000000	na
42.216029	0.049364	43.000000	nontarget	12.000000	na
42.265393	0.050520	43.000000	nontarget	13.000000	na
42.315914	0.049954	43.000000	nontarget	14.000000	na
42.365867	0.049904	43.000000	nontarget	15.000000	na
42.415772	0.050133	43.000000	nontarget	16.000000	na
42.465905	0.050315	44.000000	nontarget	1.000000	na
42.516220	0.049315	44.000000	nontarget	2.000000	na
42.565535	0.050280	44.000000	nontarget	3.000000	na
42.615815	0.050346	44.000000	nontarget	4.000000	na
42.666161	0.049805	44.000000	nontarget	5.000000	na
42.715966	0.049584	44.000000	nontarget	6.000000	na
42.765550	0.050501	44.000000	nontarget	7.000000	na
42.816051	0.049428	44.000000	nontarget	8.000000	na
42.865479	0.050303	44.000000	nontarget	9.000000	na
42.915782	0.050200	44.000000	nontarget	10.000000	na
42.965982	0.050143	44.000000	nontarget	11.000000	42.989759
43.016125	0.049824	44.000000	nontarget	12.000000	na
43.065948	0.050172	44.000000	nontarget	13.000000	na
43.116121	0.049256	44.000000	nontarget	14.000000	na
43.165377	0.049901	44.000000	nontarget	15.000000	na
43.215278	0.050436	44.000000	nontarget	16.000000	na
43.265714	0.050234	45.000000	nontarget	1.000000	na
43.315948	0.049904	45.000000	nontarget	2.000000	na
43.365852	0.050101	45.000000	nontarget	3.000000	na
43.415953	0.050093	45.000000	nontarget	4.000000	na
43.466046	0.049862	45.000000	nontarget	5.000000	na
43.515908	0.049932	45.000000	nontarget	6.000000	na
43.565840	0.050080	45.000000	nontarget	7.000000	na
43.615920	0.050348	45.000000	nontarget	8.000000	na
43.666268	0.049472	45.000000	nontarget	9.000000	na
43.715740	0.050165	45.000000	nontarget	10.000000	na
43.765905	0.049266	45.000000	nontarget	11.000000	na
43.815171	0.050840	45.000000	nontarget	12.000000	43.834603
43.866011	0.049887	45.000000	nontarget	13.000000	na
43.915898	0.049991	45.000000	nontarget	14.000000	na
43.965890	0.049912	45.000000	nontarget	15.000000	na
44.015802	0.049597	45.000000	nontarget	16.000000	na
44.065398	0.050630	46.000000	nontarget	1.000000	na
44.116028	0.049870	46.000000	nontarget	2.000000	na
44.165899	0.050160	46.000000	nontarget	3.000000	na
44.216059	0.049404	46.000000	nontarget	4.000000	na
44.265463	0.050551	46.000000	nontarget	5.000000	na
44.316014	0.049828	46.000000	nontarget	6.000000	na
44.365842	0.050139	46.000000	nontarget	7.000000	na
44.415981	0.049768	46.000000	nontarget	8.000000	na
44.465749	0.050306	46.000000	nontarget	9.000000	na
44.516055	0.049840	46.000000	nontarget	10.000000	na
44.565894	0.049506	46.000000	nontarget	11.000000	na
44.615400	0.050392	46.000000	nontarget	12.000000	na
44.665792	0.049814	46.000000	nontarget	13.000000	na
44.715606	0.050133	46.000000	nontarget	14.000000	na
44.765739	0.049660	46.000000	nontarget	15.000000	na
44.815399	0.050490	46.000000	nontarget	16.000000	44.822173
44.865889	0.049980	47.000000	nontarget	1.000000	44.872561
44.915869	0.050016	47.000000	nontarget	2.000000	na
44.965885	0.050325	47.000000	nontarget	3.000000	na
45.016209	0.049926	47.000000	nontarget	4.000000	na
45.066135	0.049497	47.000000	nontarget	5.000000	na
45.115632	0.050347	47.000000	nontarget	6.000000	na
45.165979	0.049304	47.000000	nontarget	7.000000	na
45.215283	0.050581	47.000000	nontarget	8.000000	na
45.265864	0.049926	47.000000	nontarget	9.000000	na
45.315790	0.050100	47.000000	nontarget	10.000000	na
45.365890	0.049964	47.000000	nontarget	11.000000	na
45.415854	0.050021	47.000000	nontarget	12.000000	na
45.465875	0.049995	47.000000	nontarget	13.000000	na
45.515869	0.049641	47.000000	nontarget	14.000000	na
45.565511	0.050263	47.000000	nontarget	15.000000	na
45.615774	0.050110	47.000000	nontarget	16.000000	na
45.665884	0.050092	48.000000	nontarget	1.000000	na
45.715976	0.049920	48.000000	nontarget	2.000000	na
45.765896	0.049918	48.000000	nontarget	3.000000	45.772958
45.815814	0.050048	48.000000	nontarget	4.000000	na
45.865862	0.049680	48.000000	nontarget	5.000000	na
45.915542	0.050154	48.000000	nontarget	6.000000	na
45.965696	0.049326	48.000000	nontarget	7.000000	na
46.015022	0.050516	48.000000	nontarget	8.000000	na
46.065538	0.050217	48.000000	nontarget	9.000000	na
46.115755	0.050056	48.000000	nontarget	10.000000	na
46.165811	0.050059	48.000000	nontarget	11.000000	na
46.215870	0.049782	48.000000	nontarget	12.000000	na
46.265652	0.050235	48.000000	nontarget	13.000000	na
46.315887	0.049921	48.000000	nontarget	14.000000	na
46.365808	0.050009	48.000000	nontarget	15.000000	na
46.415817	0.050033	48.000000	nontarget	16.000000	na
46.465850	0.050053	49.000000	nontarget	1.000000	na
46.515903	0.049915	49.000000	nontarget	2.000000	na
46.565819	0.049549	49.000000	nontarget	3.000000	na
46.615367	0.050496	49.000000	nontarget	4.000000	na
46.665864	0.049989	49.000000	nontarget	5.000000	na
46.715853	0.049999	49.000000	nontarget	6.000000	na
46.765852	0.049835	49.000000	nontarget	7.000000	na
46.815687	0.050455	49.000000	nontarget	8.000000	46.821530
46.866143	0.049869	49.000000	nontarget	9.000000	na
46.916012	0.049515	49.000000	nontarget	10.000000	na
46.965527	0.049478	49.000000	nontarget	11.000000	na
47.015005	0.050978	49.000000	nontarget	12.000000	na
47.065983	0.049670	49.000000	nontarget	13.000000	na
47.115653	0.050221	49.000000	nontarget	14.000000	na
47.165874	0.049214	49.000000	nontarget	15.000000	na
47.215089	0.050755	49.000000	nontarget	16.000000	na
47.265844	0.050014	50.000000	nontarget	1.000000	na
47.315858	0.049341	50.000000	nontarget	2.000000	na
47.365199	0.050092	50.000000	nontarget	3.000000	na
47.415291	0.050477	50.000000	nontarget	4.000000	na
47.465768	0.050073	50.000000	nontarget	5.000000	na
47.515841	0.050034	50.000000	nontarget	6.000000	na
47.565874	0.049334	50.000000	nontarget	7.000000	na
47.615208	0.050448	50.000000	nontarget	8.000000	na
47.665656	0.050182	50.000000	nontarget	9.000000	47.672324
47.715838	0.049779	50.000000	nontarget	10.000000	na
47.765617	0.050228	50.000000	nontarget	11.000000	na
47.815845	0.049866	50.000000	nontarget	12.000000	na
47.865711	0.050131	50.000000	nontarget	13.000000	na
47.915842	0.049379	50.000000	nontarget	14.000000	na
47.965221	0.049703	50.000000	nontarget	15.000000	na
48.014923	0.050585	50.000000	nontarget	16.000000	na
48.065508	0.050328	51.000000	nontarget	1.000000	na
48.115836	0.050009	51.000000	nontarget	2.000000	na
48.165845	0.049465	51.000000	nontarget	3.000000	na
48.215310	0.049758	51.000000	nontarget	4.000000	na
48.265068	0.050449	51.000000	nontarget	5.000000	na
48.315517	0.050335	51.000000	nontarget	6.000000	na
48.365851	0.050038	51.000000	nontarget	7.000000	na
48.415889	0.049462	51.000000	nontarget	8.000000	na
48.465351	0.050434	51.000000	nontarget	9.000000	48.492741
48.515785	0.049324	51.000000	nontarget	10.000000	na
48.565109	0.050595	51.000000	nontarget	11.000000	na
48.615703	0.050002	51.000000	nontarget	12.000000	na
48.665705	0.049933	51.000000	nontarget	13.000000	na
48.715638	0.050201	51.000000	nontarget	14.000000	na
48.765839	0.049990	51.000000	nontarget	15.000000	na
48.815829	0.049425	51.000000	nontarget	16.000000	na
48.865254	0.050036	52.000000	nontarget	1.000000	na
48.915290	0.050486	52.000000	nontarget	2.000000	na
48.965776	0.049150	52.000000	nontarget	3.000000	na
49.014926	0.050867	52.000000	nontarget	4.000000	na
49.065793	0.050033	52.000000	nontarget	5.000000	na
49.115826	0.049991	52.000000	nontarget	6.000000	na
49.165817	0.050014	52.000000	nontarget	7.000000	na
49.215830	0.049979	52.000000	nontarget	8.000000	na
49.265810	0.049655	52.000000	nontarget	9.000000	na
49.315465	0.050357	52.000000	nontarget	10.000000	na
49.365822	0.049876	52.000000	nontarget	11.000000	na
49.415698	0.050188	52.000000	nontarget	12.000000	na
49.465886	0.049896	52.000000	nontarget	13.000000	na
49.515782	0.050056	52.000000	nontarget	14.000000	na
49.565838	0.049340	52.000000	nontarget	15.000000	na
49.615178	0.050621	52.000000	nontarget	16.000000	49.621838
49.665799	0.049722	53.000000	nontarget	1.000000	49.672380
49.715521	0.050372	53.000000	nontarget	2.000000	na
49.765893	0.050059	53.000000	nontarget	3.000000	na
49.815952	0.049870	53.000000	nontarget	4.000000	na
49.865822	0.049976	53.000000	nontarget	5.000000	na
49.915798	0.050013	53.000000	nontarget	6.000000	na
49.965812	0.049126	53.000000	nontarget	7.000000	na
50.014937	0.050869	53.000000	nontarget	8.000000	na
50.065806	0.049508	53.000000	nontarget	9.000000	na
50.115314	0.050389	53.000000	nontarget	10.000000	na
50.165703	0.050021	53.000000	nontarget	11.000000	na
50.215724	0.049701	53.000000	nontarget	12.000000	na
50.265425	0.050381	53.000000	nontarget	13.000000	na
50.315806	0.049841	53.000000	nontarget	14.000000	na
50.365647	0.049463	53.000000	nontarget	15.000000	na
50.415110	0.050497	53.000000	nontarget	16.000000	na
50.465608	0.050328	54.000000	target	1.000000	na
50.515935	0.049149	54.000000	target	2.000000	na
50.565084	0.049986	54.000000	target	3.000000	na
50.615070	0.050732	54.000000	target	4.000000	na
50.665802	0.049895	54.000000	target	5.000000	na
50.715698	0.049798	54.000000	target	6.000000	na
50.765496	0.050272	54.000000	target	7.000000	na
50.815768	0.049991	54.000000	target	8.000000	na
50.865759	0.050069	54.000000	target	9.000000	na
50.915828	0.049959	54.000000	target	10.000000	na
50.965787	0.049545	54.000000	target	11.000000	na
51.015333	0.049643	54.000000	target	12.000000	na
51.064975	0.050418	54.000000	target	13.000000	na
51.115393	0.050403	54.000000	target	14.000000	na
51.165796	0.049869	54.000000	target	15.000000	na
51.215665	0.050244	54.000000	target	16.000000	na
51.265908	0.049421	55.000000	nontarget	1.000000	na
51.315330	0.050183	55.000000	nontarget	2.000000	51.321936
51.365513	0.050310	55.000000	nontarget	3.000000	na
51.415823	0.049434	55.000000	nontarget	4.000000	na
51.465257	0.049888	55.000000	nontarget	5.000000	na
51.515145	0.050651	55.000000	nontarget	6.000000	na
51.565796	0.049963	55.000000	nontarget	7.000000	na
51.615759	0.049549	55.000000	nontarget	8.000000	na
51.665308	0.050666	55.000000	nontarget	9.000000	na
51.715975	0.049441	55.000000	nontarget	10.000000	na
51.765415	0.050245	55.000000	nontarget	11.000000	na
51.815660	0.050119	55.000000	nontarget	12.000000	na
51.865779	0.050040	55.000000	nontarget	13.000000	na
51.915819	0.049885	55.000000	nontarget	14.000000	na
51.965704	0.049246	55.000000	nontarget	15.000000	51.990038
52.014951	0.050964	55.000000	nontarget	16.000000	na
52.065915	0.049433	56.000000	nontarget	1.000000	52.072488
52.115347	0.050539	56.000000	nontarget	2.000000	na
52.165886	0.049887	56.000000	nontarget	3.000000	na
52.215774	0.049490	56.000000	nontarget	4.000000	na
52.265264	0.050512	56.000000	nontarget	5.000000	na
52.315776	0.049449	56.000000	nontarget	6.000000	na
52.365225	0.050456	56.000000	nontarget	7.000000	na
52.415682	0.049541	56.000000	nontarget	8.000000	na
52.465223	0.050492	56.000000	nontarget	9.000000	na
52.515714	0.049400	56.000000	nontarget	10.000000	na
52.565114	0.050656	56.000000	nontarget	11.000000	na
52.615771	0.049679	56.000000	nontarget	12.000000	na
52.665450	0.050136	56.000000	nontarget	13.000000	na
52.715586	0.050295	56.000000	nontarget	14.000000	na
52.765881	0.049658	56.000000	nontarget	15.000000	na
52.815540	0.050101	56.000000	nontarget	16.000000	na
52.865640	0.050277	57.000000	nontarget	1.000000	52.893641
52.915918	0.049902	57.000000	nontarget	2.000000	na
52.965819	0.049117	57.000000	nontarget	3.000000	na
53.014937	0.050842	57.000000	nontarget	4.000000	na
53.065779	0.049425	57.000000	nontarget	5.000000	na
53.115204	0.050565	57.000000	nontarget	6.000000	na
53.165768	0.050041	57.000000	nontarget	7.000000	na
53.215809	0.049954	57.000000	nontarget	8.000000	na
53.265763	0.049923	57.000000	nontarget	9.000000	na
53.315686	0.050295	57.000000	nontarget	10.000000	na
53.365981	0.049771	57.000000	nontarget	11.000000	na
53.415753	0.049399	57.000000	nontarget	12.000000	na
53.465152	0.050354	57.000000	nontarget	13.000000	na
53.515506	0.049350	57.000000	nontarget	14.000000	na
53.564856	0.050916	57.000000	nontarget	15.000000	na
53.615772	0.049888	57.000000	nontarget	16.000000	na
53.665660	0.050050	58.000000	nontarget	1.000000	na
53.715709	0.050120	58.000000	nontarget	2.000000	na
53.765830	0.049907	58.000000	nontarget	3.000000	na
53.815737	0.049981	58.000000	nontarget	4.000000	53.822463
53.865718	0.049988	58.000000	nontarget	5.000000	na
53.915706	0.050061	58.000000	nontarget	6.000000	na
53.965767	0.049941	58.000000	nontarget	7.000000	na
54.015708	0.050078	58.000000	nontarget	8.000000	na
54.065786	0.049955	58.000000	nontarget	9.000000	na
54.115741	0.049308	58.000000	nontarget	10.000000	na
54.165050	0.050733	58.000000	nontarget	11.000000	na
54.215782	0.049972	58.000000	nontarget	12.000000	na
54.265754	0.049988	58.000000	nontarget	13.000000	na
54.315742	0.049478	58.000000	nontarget	14.000000	na
54.365220	0.050384	58.000000	nontarget	15.000000	na
54.415604	0.050324	58.000000	nontarget	16.000000	na
54.465929	0.049798	59.000000	nontarget	1.000000	na
54.515727	0.049978	59.000000	nontarget	2.000000	na
54.565705	0.049503	59.000000	nontarget	3.000000	na
54.615208	0.050536	59.000000	nontarget	4.000000	na
54.665744	0.049996	59.000000	nontarget	5.000000	na
54.715740	0.049390	59.000000	nontarget	6.000000	54.735581
54.765130	0.050688	59.000000	nontarget	7.000000	na
54.815818	0.049852	59.000000	nontarget	8.000000	na
54.865671	0.049749	59.000000	nontarget	9.000000	na
54.915419	0.050358	59.000000	nontarget	10.000000	na
54.965777	0.050149	59.000000	nontarget	11.000000	na
55.015926	0.049800	59.000000	nontarget	12.000000	na
55.065726	0.049306	59.000000	nontarget	13.000000	na
55.115031	0.050054	59.000000	nontarget	14.000000	na
55.165085	0.050565	59.000000	nontarget	15.000000	na
55.215650	0.050278	59.000000	nontarget	16.000000	na
55.265928	0.049821	60.000000	nontarget	1.000000	na
55.315749	0.050011	60.000000	nontarget	2.000000	na
55.365760	0.050130	60.000000	nontarget	3.000000	na
55.415890	0.049824	60.000000	nontarget	4.000000	na
55.465713	0.050036	60.000000	nontarget	5.000000	na
55.515749	0.049978	60.000000	nontarget	6.000000	na
55.565727	0.049983	60.000000	nontarget	7.000000	na
55.615710	0.049812	60.000000	nontarget	8.000000	na
55.665522	0.050220	60.000000	nontarget	9.000000	na
55.715742	0.050323	60.000000	nontarget	10.000000	55.722516
55.766065	0.049862	60.000000	nontarget	11.000000	na
55.815927	0.049787	60.000000	nontarget	12.000000	na
55.865714	0.049224	60.000000	nontarget	13.000000	na
55.914938	0.050914	60.000000	nontarget	14.000000	na
55.965853	0.049132	60.000000	nontarget	15.000000	na
56.014985	0.050731	60.000000	nontarget	16.000000	na
56.065715	0.049928	61.000000	nontarget	1.000000	na
56.115643	0.050025	61.000000	nontarget	2.000000	na
56.165668	0.050148	61.000000	nontarget	3.000000	na
56.215816	0.049903	61.000000	nontarget	4.000000	na
56.265719	0.049552	61.000000	nontarget	5.000000	na
56.315271	0.050491	61.000000	nontarget	6.000000	na
56.365762	0.049928	61.000000	nontarget	7.000000	na
56.415690	0.050009	61.000000	nontarget	8.000000	na
56.465699	0.049409	61.000000	nontarget	9.000000	na
56.515108	0.050647	61.000000	nontarget	10.000000	na
56.565755	0.049215	61.000000	nontarget	11.000000	na
56.614969	0.050937	61.000000	nontarget	12.000000	na
56.665906	0.049827	61.000000	nontarget	13.000000	na
56.715733	0.049622	61.000000	nontarget	14.000000	na
56.765356	0.050384	61.000000	nontarget	15.000000	na
56.815739	0.050092	61.000000	nontarget	16.000000	na
56.865831	0.049879	62.000000	target	1.000000	na
56.915711	0.050077	62.000000	target	2.000000	na
56.965788	0.049195	62.000000	target	3.000000	na
57.014982	0.050732	62.000000	target	4.000000	na
57.065714	0.049999	62.000000	target	5.000000	na
57.115713	0.050064	62.000000	target	6.000000	na
57.165777	0.050203	62.000000	target	7.000000	na
57.215980	0.049750	62.000000	target	8.000000	na
57.265730	0.050146	62.000000	target	9.000000	na
57.315876	0.049485	62.000000	target	10.000000	na
57.365361	0.050342	62.000000	target	11.000000	na
57.415703	0.049961	62.000000	target	12.000000	na
57.465664	0.050216	62.000000	target	13.000000	na
57.515880	0.049498	62.000000	target	14.000000	na
57.565378	0.050501	62.000000	target	15.000000	na
57.615879	0.049944	62.000000	target	16.000000	na
57.665824	0.050130	63.000000	target	1.000000	na
57.715954	0.049772	63.000000	target	2.000000	na
57.765726	0.049991	63.000000	target	3.000000	na
57.815718	0.050149	63.000000	target	4.000000	na
57.865866	0.049915	63.000000	target	5.000000	na
57.915781	0.049452	63.000000	target	6.000000	na
57.965233	0.050640	63.000000	target	7.000000	na
58.015873	0.049849	63.000000	target	8.000000	na
58.065722	0.049912	63.000000	target	9.000000	na
58.115634	0.050130	63.000000	target	10.000000	na
58.165765	0.048938	63.000000	target	11.000000	na
58.214703	0.050457	63.000000	target	12.000000	na
58.265160	0.050552	63.000000	target	13.000000	na
58.315712	0.050021	63.000000	target	14.000000	na
58.365733	0.049369	63.000000	target	15.000000	na
58.415102	0.050613	63.000000	target	16.000000	na
58.465714	0.050093	64.000000	nontarget	1.000000	na
58.515808	0.049243	64.000000	nontarget	2.000000	58.531233
58.565051	0.050485	64.000000	nontarget	3.000000	na
58.615536	0.049695	64.000000	nontarget	4.000000	na
58.665231	0.050389	64.000000	nontarget	5.000000	na
58.715620	0.050117	64.000000	nontarget	6.000000	na
58.765737	0.050107	64.000000	nontarget	7.000000	na
58.815844	0.049903	64.000000	nontarget	8.000000	na
58.865746	0.049987	64.000000	nontarget	9.000000	na
58.915733	0.049985	64.000000	nontarget	10.000000	na
58.965717	0.049264	64.000000	nontarget	11.000000	na
59.014981	0.050215	64.000000	nontarget	12.000000	na
59.065196	0.050459	64.000000	nontarget	13.000000	na
59.115655	0.050101	64.000000	nontarget	14.000000	na
59.165756	0.049877	64.000000	nontarget	15.000000	na
59.215633	0.049964	64.000000	nontarget	16.000000	59.222275
59.265596	0.050042	65.000000	nontarget	1.000000	59.272797
59.315639	0.050249	65.000000	nontarget	2.000000	na
59.365888	0.049776	65.000000	nontarget	3.000000	na
59.415664	0.050056	65.000000	nontarget	4.000000	na
59.465720	0.050260	65.000000	nontarget	5.000000	na
59.515980	0.049973	65.000000	nontarget	6.000000	na
59.565952	0.049766	65.000000	nontarget	7.000000	na
59.615718	0.049633	65.000000	nontarget	8.000000	na
59.665351	0.050368	65.000000	nontarget	9.000000	na
59.715719	0.049488	65.000000	nontarget	10.000000	na
59.765207	0.050516	65.000000	nontarget	11.000000	na
59.815723	0.049991	65.000000	nontarget	12.000000	na
59.865713	0.050000	65.000000	nontarget	13.000000	na
59.915713	0.050006	65.000000	nontarget	14.000000	na
59.965719	0.049219	65.000000	nontarget	15.000000	na
60.014939	0.050633	65.000000	nontarget	16.000000	na
60.065572	0.050182	66.000000	nontarget	1.000000	60.072268
60.115754	0.049964	66.000000	nontarget	2.000000	na
60.165718	0.049379	66.000000	nontarget	3.000000	na
60.215097	0.050621	66.000000	nontarget	4.000000	na
60.265718	0.049984	66.000000	nontarget	5.000000	na
60.315702	0.049329	66.000000	nontarget	6.000000	na
60.365031	0.050689	66.000000	nontarget	7.000000	na
60.415719	0.049953	66.000000	nontarget	8.000000	na
60.465672	0.049681	66.000000	nontarget	9.000000	na
60.515354	0.050371	66.000000	nontarget	10.000000	na
60.565725	0.049993	66.000000	nontarget	11.000000	na
60.615718	0.049421	66.000000	nontarget	12.000000	na
60.665138	0.050398	66.000000	nontarget	13.000000	na
60.715536	0.050179	66.000000	nontarget	14.000000	na
60.765715	0.049422	66.000000	nontarget	15.000000	na
60.815137	0.050578	66.000000	nontarget	16.000000	na
60.865715	0.050005	67.000000	nontarget	1.000000	na
60.915720	0.049498	67.000000	nontarget	2.000000	60.931229
60.965219	0.049648	67.000000	nontarget	3.000000	na
61.014866	0.050873	67.000000	nontarget	4.000000	na
61.065740	0.049980	67.000000	nontarget	5.000000	na
61.115719	0.049335	67.000000	nontarget	6.000000	na
61.165054	0.050654	67.000000	nontarget	7.000000	na
61.215708	0.049379	67.000000	nontarget	8.000000	na
61.265087	0.050629	67.000000	nontarget	9.000000	na
61.315716	0.050101	67.000000	nontarget	10.000000	na
61.365818	0.049981	67.000000	nontarget	11.000000	na
61.415798	0.049453	67.000000	nontarget	12.000000	na
61.465252	0.050585	67.000000	nontarget	13.000000	na
61.515836	0.049884	67.000000	nontarget	14.000000	na
61.565721	0.050052	67.000000	nontarget	15.000000	na
61.615772	0.049782	67.000000	nontarget	16.000000	na
61.665554	0.049998	68.000000	nontarget	1.000000	na
61.715552	0.049523	68.000000	nontarget	2.000000	61.746236
61.765075	0.050638	68.000000	nontarget	3.000000	na
61.815713	0.050008	68.000000	nontarget	4.000000	na
61.865721	0.050023	68.000000	nontarget	5.000000	na
61.915744	0.049981	68.000000	nontarget	6.000000	na
61.965725	0.049201	68.000000	nontarget	7.000000	na
62.014926	0.050788	68.000000	nontarget	8.000000	na
62.065713	0.050008	68.000000	nontarget	9.000000	na
62.115721	0.049998	68.000000	nontarget	10.000000	na
62.165719	0.049729	68.000000	nontarget	11.000000	na
62.215447	0.049798	68.000000	nontarget	12.000000	na
62.265246	0.050000	68.000000	nontarget	13.000000	na
62.315245	0.050566	68.000000	nontarget	14.000000	na
62.365811	0.049529	68.000000	nontarget	15.000000	na
62.415340	0.050392	68.000000	nontarget	16.000000	na
62.465732	0.049975	69.000000	nontarget	1.000000	na
62.515707	0.049643	69.000000	nontarget	2.000000	na
62.565350	0.050367	69.000000	nontarget	3.000000	na
62.615717	0.050007	69.000000	nontarget	4.000000	62.622277
62.665725	0.049284	69.000000	nontarget	5.000000	na
62.715009	0.050788	69.000000	nontarget	6.000000	na
62.765797	0.049879	69.000000	nontarget	7.000000	na
62.815676	0.050029	69.000000	nontarget	8.000000	na
62.865705	0.050021	69.000000	nontarget	9.000000	na
62.915726	0.049647	69.000000	nontarget	10.000000	na
62.965373	0.050553	69.000000	nontarget	11.000000	na
63.015926	0.049127	69.000000	nontarget	12.000000	na
63.065053	0.050667	69.000000	nontarget	13.000000	na
63.115720	0.050003	69.000000	nontarget	14.000000	na
63.165723	0.049953	69.000000	nontarget	15.000000	na
63.215677	0.049695	69.000000	nontarget	16.000000	na
63.265372	0.049911	70.000000	nontarget	1.000000	na
63.315283	0.050484	70.000000	nontarget	2.000000	63.321996
63.365767	0.049436	70.000000	nontarget	3.000000	na
63.415203	0.050512	70.000000	nontarget	4.000000	na
63.465715	0.049980	70.000000	nontarget	5.000000	na
63.515694	0.049774	70.000000	nontarget	6.000000	na
63.565468	0.050027	70.000000	nontarget	7.000000	na
63.615495	0.049671	70.000000	nontarget	8.000000	na
63.665166	0.050554	70.000000	nontarget	9.000000	na
63.715720	0.050007	70.000000	nontarget	10.000000	na
63.765727	0.049576	70.000000	nontarget	11.000000	na
63.815303	0.050234	70.000000	nontarget	12.000000	na
63.865536	0.050173	70.000000	nontarget	13.000000	na
63.915709	0.049992	70.000000	nontarget	14.000000	na
63.965701	0.049222	70.000000	nontarget	15.000000	na
64.014923	0.051010	70.000000	nontarget	16.000000	na
64.065933	0.050040	71.000000	nontarget	1.000000	na
64.115974	0.049660	71.000000	nontarget	2.000000	na
64.165634	0.050243	71.000000	nontarget	3.000000	64.177155
64.215877	0.049302	71.000000	nontarget	4.000000	na
64.265180	0.050756	71.000000	nontarget	5.000000	na
64.315935	0.049780	71.000000	nontarget	6.000000	na
64.365715	0.049385	71.000000	nontarget	7.000000	na
64.415100	0.050621	71.000000	nontarget	8.000000	na
64.465721	0.049957	71.000000	nontarget	9.000000	na
64.515678	0.049923	71.000000	nontarget	10.000000	na
64.565601	0.049608	71.000000	nontarget	11.000000	na
64.615209	0.050187	71.000000	nontarget	12.000000	na
64.665396	0.050292	71.000000	nontarget	13.000000	na
64.715688	0.049488	71.000000	nontarget	14.000000	na
64.765176	0.050480	71.000000	nontarget	15.000000	na
64.815655	0.049502	71.000000	nontarget	16.000000	na
64.865157	0.050542	72.000000	nontarget	1.000000	na
64.915700	0.049812	72.000000	nontarget	2.000000	na
64.965512	0.049426	72.000000	nontarget	3.000000	na
65.014938	0.050788	72.000000	nontarget	4.000000	na
65.065727	0.049375	72.000000	nontarget	5.000000	na
65.115102	0.050707	72.000000	nontarget	6.000000	65.145651
65.165809	0.049849	72.000000	nontarget	7.000000	na
65.215658	0.050021	72.000000	nontarget	8.000000	na
65.265679	0.049495	72.000000	nontarget	9.000000	na
65.315174	0.049760	72.000000	nontarget	10.000000	na
65.364934	0.050013	72.000000	nontarget	11.000000	na
65.414948	0.050350	72.000000	nontarget	12.000000	na
65.465298	0.049553	72.000000	nontarget	13.000000	na
65.514850	0.050634	72.000000	nontarget	14.000000	na
65.565484	0.050257	72.000000	nontarget	15.000000	na
65.615741	0.049951	72.000000	nontarget	16.000000	na
65.665692	0.050016	73.000000	nontarget	1.000000	na
65.715708	0.049967	73.000000	nontarget	2.000000	na
65.765676	0.049861	73.000000	nontarget	3.000000	na
65.815536	0.050133	73.000000	nontarget	4.000000	na
65.865669	0.049687	73.000000	nontarget	5.000000	na
65.915356	0.049856	73.000000	nontarget	6.000000	65.921680
65.965212	0.049719	73.000000	nontarget	7.000000	na
66.014931	0.050618	73.000000	nontarget	8.000000	na
66.065549	0.050178	73.000000	nontarget	9.000000	na
66.115726	0.049963	73.000000	nontarget	10.000000	na
66.165689	0.049527	73.000000	nontarget	11.000000	na
66.215217	0.050426	73.000000	nontarget	12.000000	na
66.265643	0.050049	73.000000	nontarget	13.000000	na
66.315692	0.050035	73.000000	nontarget	14.000000	na
66.365727	0.049496	73.000000	nontarget	15.000000	na
66.415223	0.050437	73.000000	nontarget	16.000000	na
66.465660	0.049379	74.000000	nontarget	1.000000	na
66.515039	0.050684	74.000000	nontarget	2.000000	na
66.565724	0.049963	74.000000	nontarget	3.000000	na
66.615686	0.049969	74.000000	nontarget	4.000000	na
66.665656	0.049808	74.000000	nontarget	5.000000	na
66.715464	0.050123	74.000000	nontarget	6.000000	na
66.765587	0.049738	74.000000	nontarget	7.000000	66.772504
66.815325	0.050134	74.000000	nontarget	8.000000	na
66.865460	0.050267	74.000000	nontarget	9.000000	na
66.915726	0.048997	74.000000	nontarget	10.000000	na
66.964724	0.050233	74.000000	nontarget	11.000000	na
67.014957	0.050705	74.000000	nontarget	12.000000	na
67.065661	0.049483	74.000000	nontarget	13.000000	na
67.115144	0.050583	74.000000	nontarget	14.000000	na
67.165727	0.049794	74.000000	nontarget	15.000000	na
67.215521	0.050262	74.000000	nontarget	16.000000	na
67.265783	0.049820	75.000000	nontarget	1.000000	na
67.315603	0.050066	75.000000	nontarget	2.000000	na
67.365669	0.049988	75.000000	nontarget	3.000000	na
67.415656	0.049995	75.000000	nontarget	4.000000	na
67.465651	0.050003	75.000000	nontarget	5.000000	na
67.515655	0.050059	75.000000	nontarget	6.000000	na
67.565714	0.049881	75.000000	nontarget	7.000000	na
67.615595	0.049474	75.000000	nontarget	8.000000	na
67.665069	0.050574	75.000000	nontarget	9.000000	67.700018
67.715643	0.049819	75.000000	nontarget	10.000000	na
67.765462	0.050269	75.000000	nontarget	11.000000	na
67.815731	0.049218	75.000000	nontarget	12.000000	na
67.864949	0.050554	75.000000	nontarget	13.000000	na
67.915503	0.050144	75.000000	nontarget	14.000000	na
67.965647	0.048919	75.000000	nontarget	15.000000	na
68.014567	0.051086	75.000000	nontarget	16.000000	na
68.065653	0.049932	76.000000	nontarget	1.000000	na
68.115585	0.050151	76.000000	nontarget	2.000000	na
68.165735	0.049924	76.000000	nontarget	3.000000	na
68.215659	0.050003	76.000000	nontarget	4.000000	na
68.265663	0.050027	76.000000	nontarget	5.000000	na
68.315689	0.049981	76.000000	nontarget	6.000000	na
68.365671	0.049988	76.000000	nontarget	7.000000	na
68.415659	0.049989	76.000000	nontarget	8.000000	na
68.465648	0.049988	76.000000	nontarget	9.000000	na
68.515636	0.049997	76.000000	nontarget	10.000000	68.543495
68.565633	0.049661	76.000000	nontarget	11.000000	na
68.615294	0.049593	76.000000	nontarget	12.000000	na
68.664887	0.050835	76.000000	nontarget	13.000000	na
68.715722	0.049976	76.000000	nontarget	14.000000	na
68.765697	0.049512	76.000000	nontarget	15.000000	na
68.815209	0.050328	76.000000	nontarget	16.000000	na
68.865537	0.050183	77.000000	nontarget	1.000000	na
68.915720	0.049919	77.000000	nontarget	2.000000	na
68.965639	0.049287	77.000000	nontarget	3.000000	na
69.014926	0.050845	77.000000	nontarget	4.000000	na
69.065771	0.049056	77.000000	nontarget	5.000000	na
69.114827	0.050842	77.000000	nontarget	6.000000	na
69.165668	0.049280	77.000000	nontarget	7.000000	na
69.214949	0.050572	77.000000	nontarget	8.000000	na
69.265521	0.050120	77.000000	nontarget	9.000000	na
69.315641	0.050009	77.000000	nontarget	10.000000	na
69.365651	0.049438	77.000000	nontarget	11.000000	na
69.415089	0.050570	77.000000	nontarget	12.000000	na
69.465659	0.049999	77.000000	nontarget	13.000000	na
69.515657	0.049956	77.000000	nontarget	14.000000	na
69.565614	0.049852	77.000000	nontarget	15.000000	na
69.615466	0.050193	77.000000	nontarget	16.000000	na
69.665660	0.049978	78.000000	nontarget	1.000000	na
69.715638	0.049051	78.000000	nontarget	2.000000	na
69.764689	0.050420	78.000000	nontarget	3.000000	69.770549
69.815109	0.050536	78.000000	nontarget	4.000000	na
69.865645	0.049974	78.000000	nontarget	5.000000	na
69.915620	0.050069	78.000000	nontarget	6.000000	na
69.965689	0.049273	78.000000	nontarget	7.000000	na
70.014962	0.050301	78.000000	nontarget	8.000000	na
70.065263	0.050248	78.000000	nontarget	9.000000	na
70.115511	0.050116	78.000000	nontarget	10.000000	na
70.165627	0.049995	78.000000	nontarget	11.000000	na
70.215622	0.049888	78.000000	nontarget	12.000000	na
70.265510	0.050135	78.000000	nontarget	13.000000	na
70.315644	0.050060	78.000000	nontarget	14.000000	na
70.365705	0.049513	78.000000	nontarget	15.000000	na
70.415217	0.050405	78.000000	nontarget	16.000000	na
70.465622	0.049414	79.000000	nontarget	1.000000	na
70.515036	0.050353	79.000000	nontarget	2.000000	na
70.565389	0.049860	79.000000	nontarget	3.000000	na
70.615248	0.049968	79.000000	nontarget	4.000000	na
70.665216	0.050284	79.000000	nontarget	5.000000	na
70.715500	0.049729	79.000000	nontarget	6.000000	na
70.765229	0.050080	79.000000	nontarget	7.000000	70.772167
70.815308	0.050400	79.000000	nontarget	8.000000	na
70.865708	0.050155	79.000000	nontarget	9.000000	na
70.915863	0.049863	79.000000	nontarget	10.000000	na
70.965725	0.050258	79.000000	nontarget	11.000000	na
71.015984	0.049505	79.000000	nontarget	12.000000	na
71.065489	0.050230	79.000000	nontarget	13.000000	na
71.115718	0.049255	79.000000	nontarget	14.000000	na
71.164974	0.050592	79.000000	nontarget	15.000000	na
71.215566	0.050034	79.000000	nontarget	16.000000	na
71.265600	0.050298	80.000000	nontarget	1.000000	na
71.315898	0.049682	80.000000	nontarget	2.000000	na
71.365580	0.050363	80.000000	nontarget	3.000000	na
71.415942	0.049476	80.000000	nontarget	4.000000	na
71.465418	0.049617	80.000000	nontarget	5.000000	na
71.515035	0.050563	80.000000	nontarget	6.000000	na
71.565599	0.049832	80.000000	nontarget	7.000000	na
71.615430	0.050366	80.000000	nontarget	8.000000	na
71.665797	0.050075	80.000000	nontarget	9.000000	na
71.715872	0.049133	80.000000	nontarget	10.000000	na
71.765005	0.050470	80.000000	nontarget	11.000000	71.771568
71.815475	0.050260	80.000000	nontarget	12.000000	na
71.865734	0.049727	80.000000	nontarget	13.000000	na
71.915461	0.050347	80.000000	nontarget	14.000000	na
71.965808	0.049168	80.000000	nontarget	15.000000	na
72.014976	0.050380	80.000000	nontarget	16.000000	na
72.065356	0.050531	81.000000	nontarget	1.000000	na
72.115887	0.049315	81.000000	nontarget	2.000000	na
72.165202	0.049625	81.000000	nontarget	3.000000	na
72.214827	0.050241	81.000000	nontarget	4.000000	na
72.265069	0.050452	81.000000	nontarget	5.000000	na
72.315521	0.049527	81.000000	nontarget	6.000000	na
72.365048	0.050209	81.000000	nontarget	7.000000	na
72.415257	0.050316	81.000000	nontarget	8.000000	na
72.465573	0.050024	81.000000	nontarget	9.000000	na
72.515597	0.049466	81.000000	nontarget	10.000000	na
72.565063	0.050539	81.000000	nontarget	11.000000	na
72.615602	0.049980	81.000000	nontarget	12.000000	na
72.665582	0.050024	81.000000	nontarget	13.000000	na
72.715606	0.049458	81.000000	nontarget	14.000000	72.731243
72.765064	0.050485	81.000000	nontarget	15.000000	na
72.815550	0.050116	81.000000	nontarget	16.000000	na
72.865666	0.050177	82.000000	nontarget	1.000000	72.872354
72.915843	0.049844	82.000000	nontarget	2.000000	na
72.965687	0.049252	82.000000	nontarget	3.000000	na
73.014938	0.050789	82.000000	nontarget	4.000000	na
73.065728	0.049853	82.000000	nontarget	5.000000	na
73.115581	0.049984	82.000000	nontarget	6.000000	na
73.165564	0.050084	82.000000	nontarget	7.000000	na
73.215648	0.050054	82.000000	nontarget	8.000000	na
73.265702	0.050079	82.000000	nontarget	9.000000	na
73.315781	0.049944	82.000000	nontarget	10.000000	na
73.365726	0.049366	82.000000	nontarget	11.000000	na
73.415092	0.050202	82.000000	nontarget	12.000000	na
73.465293	0.050297	82.000000	nontarget	13.000000	na
73.515590	0.049994	82.000000	nontarget	14.000000	na
73.565585	0.050081	82.000000	nontarget	15.000000	na
73.615666	0.049973	82.000000	nontarget	16.000000	na
73.665639	0.049888	83.000000	nontarget	1.000000	na
73.715527	0.050387	83.000000	nontarget	2.000000	73.722189
73.765914	0.049605	83.000000	nontarget	3.000000	na
73.815519	0.050059	83.000000	nontarget	4.000000	na
73.865578	0.050315	83.000000	nontarget	5.000000	na
73.915893	0.049831	83.000000	nontarget	6.000000	na
73.965724	0.050182	83.000000	nontarget	7.000000	na
74.015906	0.049820	83.000000	nontarget	8.000000	na
74.065726	0.050062	83.000000	nontarget	9.000000	na
74.115788	0.049851	83.000000	nontarget	10.000000	na
74.165639	0.050128	83.000000	nontarget	11.000000	na
74.215767	0.049776	83.000000	nontarget	12.000000	na
74.265543	0.049652	83.000000	nontarget	13.000000	na
74.315195	0.050532	83.000000	nontarget	14.000000	na
74.365727	0.049840	83.000000	nontarget	15.000000	na
74.415567	0.050276	83.000000	nontarget	16.000000	na
74.465844	0.049894	84.000000	nontarget	1.000000	na
74.515738	0.049996	84.000000	nontarget	2.000000	na
74.565733	0.049717	84.000000	nontarget	3.000000	na
74.615450	0.050113	84.000000	nontarget	4.000000	na
74.665563	0.049868	84.000000	nontarget	5.000000	na
74.715431	0.049454	84.000000	nontarget	6.000000	74.730893
74.764884	0.051026	84.000000	nontarget	7.000000	na
74.815910	0.049898	84.000000	nontarget	8.000000	na
74.865808	0.049299	84.000000	nontarget	9.000000	na
74.915108	0.050113	84.000000	nontarget	10.000000	na
74.965220	0.049736	84.000000	nontarget	11.000000	na
75.014956	0.050496	84.000000	nontarget	12.000000	na
75.065452	0.049640	84.000000	nontarget	13.000000	na
75.115092	0.050509	84.000000	nontarget	14.000000	na
75.165601	0.049702	84.000000	nontarget	15.000000	na
75.215303	0.050378	84.000000	nontarget	16.000000	na
75.265681	0.049870	85.000000	nontarget	1.000000	na
75.315551	0.049405	85.000000	nontarget	2.000000	na
75.364956	0.050484	85.000000	nontarget	3.000000	na
75.415440	0.049657	85.000000	nontarget	4.000000	na
75.465097	0.049168	85.000000	nontarget	5.000000	na
75.514265	0.051470	85.000000	nontarget	6.000000	na
75.565735	0.049267	85.000000	nontarget	7.000000	na
75.615002	0.050315	85.000000	nontarget	8.000000	na
75.665317	0.049561	85.000000	nontarget	9.000000	na
75.714878	0.050677	85.000000	nontarget	10.000000	75.741904
75.765555	0.050039	85.000000	nontarget	11.000000	na
75.815594	0.050107	85.000000	nontarget	12.000000	na
75.865701	0.049834	85.000000	nontarget	13.000000	na
75.915536	0.049440	85.000000	nontarget	14.000000	na
75.964976	0.049465	85.000000	nontarget	15.000000	na
76.014441	0.050276	85.000000	nontarget	16.000000	na
76.064718	0.050914	86.000000	nontarget	1.000000	na
76.115632	0.049418	86.000000	nontarget	2.000000	na
76.165050	0.050192	86.000000	nontarget	3.000000	na
76.215243	0.050008	86.000000	nontarget	4.000000	na
76.265250	0.049524	86.000000	nontarget	5.000000	na
76.314774	0.050546	86.000000	nontarget	6.000000	na
76.365320	0.050340	86.000000	nontarget	7.000000	na
76.415660	0.049894	86.000000	nontarget	8.000000	na
76.465553	0.049972	86.000000	nontarget	9.000000	na
76.515526	0.050001	86.000000	nontarget	10.000000	na
76.565527	0.049416	86.000000	nontarget	11.000000	76.576951
76.614942	0.050594	86.000000	nontarget	12.000000	na
76.665536	0.049991	86.000000	nontarget	13.000000	na
76.715526	0.049742	86.000000	nontarget	14.000000	na
76.765268	0.050380	86.000000	nontarget	15.000000	na
76.815648	0.049889	86.000000	nontarget	16.000000	na
76.865537	0.049978	87.000000	target	1.000000	na
76.915515	0.050005	87.000000	target	2.000000	na
76.965520	0.049501	87.000000	target	3.000000	na
77.015021	0.050586	87.000000	target	4.000000	na
77.065606	0.050106	87.000000	target	5.000000	na
77.115712	0.049853	87.000000	target	6.000000	na
77.165565	0.049766	87.000000	target	7.000000	na
77.215331	0.049399	87.000000	target	8.000000	na
77.264730	0.050711	87.000000	target	9.000000	na
77.315441	0.049441	87.000000	target	10.000000	na
77.364882	0.050374	87.000000	target	11.000000	na
77.415256	0.050236	87.000000	target	12.000000	na
77.465491	0.049510	87.000000	target	13.000000	na
77.515001	0.050336	87.000000	target	14.000000	na
77.565337	0.050190	87.000000	target	15.000000	na
77.615527	0.049692	87.000000	target	16.000000	77.622058
77.665219	0.050310	88.000000	nontarget	1.000000	77.671858
77.715529	0.049944	88.000000	nontarget	2.000000	na
77.765473	0.049412	88.000000	nontarget	3.000000	na
77.814885	0.050334	88.000000	nontarget	4.000000	na
77.865219	0.049634	88.000000	nontarget	5.000000	na
77.914853	0.050246	88.000000	nontarget	6.000000	na
77.965099	0.049757	88.000000	nontarget	7.000000	na
78.014856	0.050651	88.000000	nontarget	8.000000	na
78.065507	0.050000	88.000000	nontarget	9.000000	na
78.115507	0.050036	88.000000	nontarget	10.000000	na
78.165543	0.049611	88.000000	nontarget	11.000000	na
78.215154	0.050499	88.000000	nontarget	12.000000	na
78.265652	0.049854	88.000000	nontarget	13.000000	na
78.315506	0.049480	88.000000	nontarget	14.000000	na
78.364986	0.050508	88.000000	nontarget	15.000000	na
78.415494	0.050185	88.000000	nontarget	16.000000	78.450434
78.465680	0.049865	89.000000	nontarget	1.000000	78.472315
78.515545	0.049963	89.000000	nontarget	2.000000	na
78.565508	0.049986	89.000000	nontarget	3.000000	na
78.615495	0.050006	89.000000	nontarget	4.000000	na
78.665501	0.049974	89.000000	nontarget	5.000000	na
78.715475	0.050104	89.000000	nontarget	6.000000	na
78.765579	0.049290	89.000000	nontarget	7.000000	na
78.814869	0.050640	89.000000	nontarget	8.000000	na
78.865509	0.049373	89.000000	nontarget	9.000000	na
78.914882	0.050661	89.000000	nontarget	10.000000	na
78.965543	0.048907	89.000000	nontarget	11.000000	na
79.014451	0.050755	89.000000	nontarget	12.000000	na
79.065205	0.050300	89.000000	nontarget	13.000000	na
79.115505	0.049992	89.000000	nontarget	14.000000	na
79.165497	0.049756	89.000000	nontarget	15.000000	79.200736
79.215253	0.049956	89.000000	nontarget	16.000000	na
79.265209	0.049775	90.000000	nontarget	1.000000	79.271884
79.314984	0.050735	90.000000	nontarget	2.000000	na
79.365719	0.049991	90.000000	nontarget	3.000000	na
79.415710	0.049388	90.000000	nontarget	4.000000	na
79.465098	0.050582	90.000000	nontarget	5.000000	na
79.515680	0.049905	90.000000	nontarget	6.000000	na
79.565585	0.049822	90.000000	nontarget	7.000000	na
79.615407	0.049743	90.000000	nontarget	8.000000	na
79.665151	0.049659	90.000000	nontarget	9.000000	na
79.714809	0.050659	90.000000	nontarget	10.000000	na
79.765468	0.050070	90.000000	nontarget	11.000000	na
79.815538	0.049482	90.000000	nontarget	12.000000	na
79.865020	0.050579	90.000000	nontarget	13.000000	na
79.915600	0.049232	90.000000	nontarget	14.000000	na
79.964831	0.049645	90.000000	nontarget	15.000000	na
80.014476	0.051003	90.000000	nontarget	16.000000	80.025646
80.065479	0.050174	91.000000	nontarget	1.000000	80.072142
80.115653	0.049830	91.000000	nontarget	2.000000	na
80.165483	0.049713	91.000000	nontarget	3.000000	na
80.215196	0.050077	91.000000	nontarget	4.000000	na
80.265272	0.049822	91.000000	nontarget	5.000000	na
80.315094	0.050108	91.000000	nontarget	6.000000	na
80.365203	0.050460	91.000000	nontarget	7.000000	na
80.415663	0.049838	91.000000	nontarget	8.000000	na
80.465500	0.049858	91.000000	nontarget	9.000000	na
80.515359	0.050129	91.000000	nontarget	10.000000	na
80.565487	0.049987	91.000000	nontarget	11.000000	na
80.615474	0.049362	91.000000	nontarget	12.000000	na
80.664836	0.049984	91.000000	nontarget	13.000000	na
80.714820	0.050530	91.000000	nontarget	14.000000	na
80.765350	0.050128	91.000000	nontarget	15.000000	na
80.815479	0.049993	91.000000	nontarget	16.000000	na
80.865471	0.049942	92.000000	target	1.000000	na
80.915414	0.049782	92.000000	target	2.000000	na
80.965196	0.049192	92.000000	target	3.000000	na
81.014387	0.050440	92.000000	target	4.000000	na
81.064827	0.050230	92.000000	target	5.000000	na
81.115057	0.050340	92.000000	target	6.000000	na
81.165397	0.049342	92.000000	target	7.000000	na
81.214739	0.050735	92.000000	target	8.000000	na
81.265474	0.048993	92.000000	target	9.000000	na
81.314466	0.050114	92.000000	target	10.000000	na
81.364581	0.050671	92.000000	target	11.000000	na
81.415252	0.050200	92.000000	target	12.000000	na
81.465452	0.049730	92.000000	target	13.000000	81.501132
81.515182	0.049638	92.000000	target	14.000000	na
81.564820	0.049708	92.000000	target	15.000000	na
81.614528	0.050667	92.000000	target	16.000000	na
81.665195	0.050369	93.000000	nontarget	1.000000	na
81.715564	0.049896	93.000000	nontarget	2.000000	na
81.765460	0.049491	93.000000	nontarget	3.000000	na
81.814951	0.050402	93.000000	nontarget	4.000000	na
81.865353	0.050099	93.000000	nontarget	5.000000	na
81.915452	0.050007	93.000000	nontarget	6.000000	na
81.965459	0.049491	93.000000	nontarget	7.000000	na
82.014950	0.049932	93.000000	nontarget	8.000000	na
82.064881	0.050694	93.000000	nontarget	9.000000	na
82.115575	0.049704	93.000000	nontarget	10.000000	na
82.165279	0.049955	93.000000	nontarget	11.000000	na
82.215234	0.050221	93.000000	nontarget	12.000000	na
82.265455	0.049166	93.000000	nontarget	13.000000	na
82.314621	0.050834	93.000000	nontarget	14.000000	na
82.365455	0.049807	93.000000	nontarget	15.000000	na
82.415262	0.050286	93.000000	nontarget	16.000000	na
82.465547	0.049957	94.000000	nontarget	1.000000	na
82.515504	0.049468	94.000000	nontarget	2.000000	na
82.564972	0.050266	94.000000	nontarget	3.000000	82.571695
82.615237	0.050336	94.000000	nontarget	4.000000	na
82.665573	0.049206	94.000000	nontarget	5.000000	na
82.714779	0.050202	94.000000	nontarget	6.000000	na
82.764981	0.050509	94.000000	nontarget	7.000000	na
82.815490	0.049240	94.000000	nontarget	8.000000	na
82.864730	0.050314	94.000000	nontarget	9.000000	na
82.915044	0.050445	94.000000	nontarget	10.000000	na
82.965489	0.049488	94.000000	nontarget	11.000000	na
83.014977	0.050587	94.000000	nontarget	12.000000	na
83.065564	0.049657	94.000000	nontarget	13.000000	na
83.115221	0.049348	94.000000	nontarget	14.000000	na
83.164570	0.050491	94.000000	nontarget	15.000000	na
83.215061	0.050560	94.000000	nontarget	16.000000	na
83.265620	0.049480	95.000000	nontarget	1.000000	na
83.315100	0.050337	95.000000	nontarget	2.000000	na
83.365437	0.049869	95.000000	nontarget	3.000000	na
83.415306	0.049723	95.000000	nontarget	4.000000	na
83.465029	0.050411	95.000000	nontarget	5.000000	na
83.515440	0.049011	95.000000	nontarget	6.000000	na
83.564451	0.050747	95.000000	nontarget	7.000000	na
83.615198	0.049983	95.000000	nontarget	8.000000	na
83.665181	0.050263	95.000000	nontarget	9.000000	na
83.715444	0.049108	95.000000	nontarget	10.000000	83.746700
83.764551	0.050393	95.000000	nontarget	11.000000	na
83.814944	0.050460	95.000000	nontarget	12.000000	na
83.865404	0.049553	95.000000	nontarget	13.000000	na
83.914958	0.050127	95.000000	nontarget	14.000000	na
83.965085	0.049264	95.000000	nontarget	15.000000	na
84.014349	0.050428	95.000000	nontarget	16.000000	na
84.064777	0.050035	96.000000	nontarget	1.000000	na
84.114812	0.050245	96.000000	nontarget	2.000000	na
84.165057	0.050275	96.000000	nontarget	3.000000	na
84.215332	0.050289	96.000000	nontarget	4.000000	na
84.265622	0.049586	96.000000	nontarget	5.000000	na
84.315208	0.050134	96.000000	nontarget	6.000000	na
84.365342	0.049970	96.000000	nontarget	7.000000	na
84.415312	0.049213	96.000000	nontarget	8.000000	na
84.464525	0.050894	96.000000	nontarget	9.000000	na
84.515418	0.049943	96.000000	nontarget	10.000000	na
84.565361	0.050207	96.000000	nontarget	11.000000	na
84.615568	0.049733	96.000000	nontarget	12.000000	na
84.665301	0.050118	96.000000	nontarget	13.000000	na
84.715419	0.050122	96.000000	nontarget	14.000000	na
84.765542	0.049439	96.000000	nontarget	15.000000	na
84.814981	0.050292	96.000000	nontarget	16.000000	na
84.865273	0.050205	97.000000	nontarget	1.000000	84.880619
84.915477	0.049950	97.000000	nontarget	2.000000	na
84.965427	0.049550	97.000000	nontarget	3.000000	na
85.014977	0.050089	97.000000	nontarget	4.000000	na
85.065066	0.050510	97.000000	nontarget	5.000000	na
85.115575	0.049882	97.000000	nontarget	6.000000	na
85.165458	0.049964	97.000000	nontarget	7.000000	na
85.215421	0.049834	97.000000	nontarget	8.000000	na
85.265256	0.049618	97.000000	nontarget	9.000000	na
85.314873	0.049692	97.000000	nontarget	10.000000	na
85.364566	0.050828	97.000000	nontarget	11.000000	na
85.415393	0.050050	97.000000	nontarget	12.000000	na
85.465443	0.049935	97.000000	nontarget	13.000000	na
85.515378	0.050111	97.000000	nontarget	14.000000	na
85.565489	0.049824	97.000000	nontarget	15.000000	na
85.615314	0.050050	97.000000	nontarget	16.000000	na
85.665364	0.050023	98.000000	nontarget	1.000000	na
85.715387	0.050041	98.000000	nontarget	2.000000	na
85.765428	0.049942	98.000000	nontarget	3.000000	na
85.815370	0.049828	98.000000	nontarget	4.000000	na
85.865198	0.050036	98.000000	nontarget	5.000000	85.892492
85.915234	0.050507	98.000000	nontarget	6.000000	na
85.965740	0.049186	98.000000	nontarget	7.000000	na
86.014926	0.050477	98.000000	nontarget	8.000000	na
86.065403	0.049683	98.000000	nontarget	9.000000	na
86.115086	0.050445	98.000000	nontarget	10.000000	na
86.165532	0.049411	98.000000	nontarget	11.000000	na
86.214943	0.050797	98.000000	nontarget	12.000000	na
86.265740	0.049883	98.000000	nontarget	13.000000	na
86.315623	0.049244	98.000000	nontarget	14.000000	na
86.364867	0.050107	98.000000	nontarget	15.000000	na
86.414974	0.050678	98.000000	nontarget	16.000000	na
86.465652	0.049408	99.000000	nontarget	1.000000	na
86.515060	0.050159	99.000000	nontarget	2.000000	na
86.565219	0.050027	99.000000	nontarget	3.000000	na
86.615246	0.049552	99.000000	nontarget	4.000000	na
86.664798	0.049894	99.000000	nontarget	5.000000	na
86.714692	0.050320	99.000000	nontarget	6.000000	na
86.765012	0.050205	99.000000	nontarget	7.000000	na
86.815217	0.050048	99.000000	nontarget	8.000000	86.826563
86.865265	0.050080	99.000000	nontarget	9.000000	na
86.915345	0.050004	99.000000	nontarget	10.000000	na
86.965350	0.049097	99.000000	nontarget	11.000000	na
87.014447	0.051299	99.000000	nontarget	12.000000	na
87.065745	0.049583	99.000000	nontarget	13.000000	na
87.115329	0.050296	99.000000	nontarget	14.000000	na
87.165624	0.049593	99.000000	nontarget	15.000000	na
87.215218	0.050446	99.000000	nontarget	16.000000	na
87.265663	0.049687	100.000000	nontarget	1.000000	na
87.315351	0.050351	100.000000	nontarget	2.000000	na
87.365701	0.049774	100.000000	nontarget	3.000000	na
87.415475	0.049912	100.000000	nontarget	4.000000	na
87.465387	0.049838	100.000000	nontarget	5.000000	na
87.515225	0.050420	100.000000	nontarget	6.000000	na
87.565645	0.049670	100.000000	nontarget	7.000000	na
87.615315	0.050355	100.000000	nontarget	8.000000	na
87.665670	0.049735	100.000000	nontarget	9.000000	na
87.715405	0.049999	100.000000	nontarget	10.000000	na
87.765404	0.050216	100.000000	nontarget	11.000000	na
87.815621	0.049138	100.000000	nontarget	12.000000	na
87.864759	0.049995	100.000000	nontarget	13.000000	na
87.914754	0.050148	100.000000	nontarget	14.000000	na
87.964902	0.049999	100.000000	nontarget	15.000000	87.971490
88.014900	0.050782	100.000000	nontarget	16.000000	na
88.065682	0.049688	101.000000	nontarget	1.000000	88.072348
88.115369	0.049980	101.000000	nontarget	2.000000	na
88.165349	0.050028	101.000000	nontarget	3.000000	na
88.215377	0.049555	101.000000	nontarget	4.000000	na
88.264932	0.050852	101.000000	nontarget	5.000000	na
88.315784	0.049928	101.000000	nontarget	6.000000	na
88.365712	0.049703	101.000000	nontarget	7.000000	na
88.415415	0.050150	101.000000	nontarget	8.000000	na
88.465565	0.049779	101.000000	nontarget	9.000000	na
88.515344	0.050017	101.000000	nontarget	10.000000	na
88.565361	0.050089	101.000000	nontarget	11.000000	na
88.615450	0.049888	101.000000	nontarget	12.000000	na
88.665338	0.049851	101.000000	nontarget	13.000000	na
88.715189	0.050151	101.000000	nontarget	14.000000	na
88.765340	0.050266	101.000000	nontarget	15.000000	na
88.815606	0.049353	101.000000	nontarget	16.000000	na
88.864958	0.050557	102.000000	nontarget	1.000000	na
88.915516	0.049605	102.000000	nontarget	2.000000	na
88.965121	0.049857	102.000000	nontarget	3.000000	na
89.014978	0.050335	102.000000	nontarget	4.000000	89.028690
89.065313	0.050412	102.000000	nontarget	5.000000	na
89.115725	0.049489	102.000000	nontarget	6.000000	na
89.165214	0.049791	102.000000	nontarget	7.000000	na
89.215005	0.050330	102.000000	nontarget	8.000000	na
89.265335	0.049905	102.000000	nontarget	9.000000	na
89.315239	0.050398	102.000000	nontarget	10.000000	na
89.365637	0.049677	102.000000	nontarget	11.000000	na
89.415314	0.049169	102.000000	nontarget	12.000000	na
89.464483	0.050842	102.000000	nontarget	13.000000	na
89.515325	0.049673	102.000000	nontarget	14.000000	na
89.564998	0.050275	102.000000	nontarget	15.000000	na
89.615273	0.050203	102.000000	nontarget	16.000000	na
89.665476	0.049780	103.000000	target	1.000000	na
89.715256	0.050082	103.000000	target	2.000000	na
89.765338	0.049630	103.000000	target	3.000000	na
89.814968	0.050717	103.000000	target	4.000000	na
89.865685	0.049631	103.000000	target	5.000000	na
89.915315	0.050341	103.000000	target	6.000000	na
89.965656	0.049338	103.000000	target	7.000000	na
90.014994	0.050455	103.000000	target	8.000000	na
90.065449	0.049869	103.000000	target	9.000000	na
90.115318	0.049986	103.000000	target	10.000000	na
90.165304	0.049959	103.000000	target	11.000000	na
90.215263	0.050335	103.000000	target	12.000000	na
90.265597	0.049727	103.000000	target	13.000000	na
90.315324	0.050007	103.000000	target	14.000000	na
90.365331	0.050292	103.000000	target	15.000000	na
90.415623	0.049588	103.000000	target	16.000000	na
90.465210	0.050018	104.000000	nontarget	1.000000	na
90.515228	0.050084	104.000000	nontarget	2.000000	na
90.565312	0.049979	104.000000	nontarget	3.000000	90.585214
90.615291	0.049862	104.000000	nontarget	4.000000	na
90.665153	0.049427	104.000000	nontarget	5.000000	na
90.714580	0.050243	104.000000	nontarget	6.000000	na
90.764824	0.050722	104.000000	nontarget	7.000000	na
90.815545	0.048956	104.000000	nontarget	8.000000	na
90.864502	0.050800	104.000000	nontarget	9.000000	na
90.915301	0.050054	104.000000	nontarget	10.000000	na
90.965355	0.049031	104.000000	nontarget	11.000000	na
91.014387	0.051116	104.000000	nontarget	12.000000	na
91.065503	0.049260	104.000000	nontarget	13.000000	na
91.114763	0.050236	104.000000	nontarget	14.000000	na
91.164999	0.050346	104.000000	nontarget	15.000000	na
91.215345	0.049977	104.000000	nontarget	16.000000	na
91.265321	0.049254	105.000000	nontarget	1.000000	na
91.314575	0.050285	105.000000	nontarget	2.000000	na
91.364860	0.050369	105.000000	nontarget	3.000000	na
91.415229	0.050266	105.000000	nontarget	4.000000	na
91.465495	0.049719	105.000000	nontarget	5.000000	na
91.515214	0.050098	105.000000	nontarget	6.000000	na
91.565312	0.050002	105.000000	nontarget	7.000000	na
91.615314	0.049657	105.000000	nontarget	8.000000	na
91.664971	0.050247	105.000000	nontarget	9.000000	na
91.715218	0.049181	105.000000	nontarget	10.000000	na
91.764399	0.050977	105.000000	nontarget	11.000000	91.771037
91.815377	0.049599	105.000000	nontarget	12.000000	na
91.864976	0.049969	105.000000	nontarget	13.000000	na
91.914945	0.049519	105.000000	nontarget	14.000000	na
91.964464	0.049903	105.000000	nontarget	15.000000	na
92.014368	0.051071	105.000000	nontarget	16.000000	na
92.065439	0.049837	106.000000	nontarget	1.000000	na
92.115276	0.049682	106.000000	nontarget	2.000000	na
92.164958	0.050358	106.000000	nontarget	3.000000	na
92.215315	0.049685	106.000000	nontarget	4.000000	na
92.265000	0.050246	106.000000	nontarget	5.000000	na
92.315246	0.049389	106.000000	nontarget	6.000000	na
92.364635	0.050672	106.000000	nontarget	7.000000	na
92.415307	0.049787	106.000000	nontarget	8.000000	na
92.465094	0.049752	106.000000	nontarget	9.000000	na
92.514847	0.050448	106.000000	nontarget	10.000000	na
92.565295	0.050030	106.000000	nontarget	11.000000	na
92.615324	0.049965	106.000000	nontarget	12.000000	na
92.665290	0.050005	106.000000	nontarget	13.000000	na
92.715295	0.049870	106.000000	nontarget	14.000000	na
92.765164	0.050095	106.000000	nontarget	15.000000	na
92.815259	0.049723	106.000000	nontarget	16.000000	na
92.864982	0.050491	107.000000	target	1.000000	na
92.915473	0.049055	107.000000	target	2.000000	na
92.964528	0.049827	107.000000	target	3.000000	na
93.014355	0.050899	107.000000	target	4.000000	na
93.065254	0.049998	107.000000	target	5.000000	na
93.115252	0.049537	107.000000	target	6.000000	na
93.164790	0.050650	107.000000	target	7.000000	na
93.215440	0.049306	107.000000	target	8.000000	na
93.264747	0.049750	107.000000	target	9.000000	na
93.314497	0.050993	107.000000	target	10.000000	na
93.365490	0.049387	107.000000	target	11.000000	na
93.414877	0.049940	107.000000	target	12.000000	na
93.464817	0.050318	107.000000	target	13.000000	na
93.515135	0.049496	107.000000	target	14.000000	na
93.564632	0.050129	107.000000	target	15.000000	na
93.614760	0.050741	107.000000	target	16.000000	na
93.665501	0.049823	108.000000	target	1.000000	na
93.715324	0.049553	108.000000	target	2.000000	na
93.764877	0.050403	108.000000	target	3.000000	na
93.815280	0.049351	108.000000	target	4.000000	na
93.864631	0.050890	108.000000	target	5.000000	na
93.915521	0.048823	108.000000	target	6.000000	na
93.964343	0.050001	108.000000	target	7.000000	na
94.014345	0.050781	108.000000	target	8.000000	na
94.065126	0.050210	108.000000	target	9.000000	na
94.115336	0.049964	108.000000	target	10.000000	na
94.165300	0.049959	108.000000	target	11.000000	na
94.215259	0.049840	108.000000	target	12.000000	na
94.265098	0.049859	108.000000	target	13.000000	na
94.314958	0.050332	108.000000	target	14.000000	na
94.365290	0.049865	108.000000	target	15.000000	94.371879
94.415154	0.050121	108.000000	target	16.000000	na
94.465276	0.050225	109.000000	nontarget	1.000000	94.471905
94.515501	0.049646	109.000000	nontarget	2.000000	na
94.565147	0.050121	109.000000	nontarget	3.000000	na
94.615267	0.050017	109.000000	nontarget	4.000000	na
94.665285	0.049985	109.000000	nontarget	5.000000	na
94.715269	0.050220	109.000000	nontarget	6.000000	na
94.765489	0.049621	109.000000	nontarget	7.000000	na
94.815110	0.049654	109.000000	nontarget	8.000000	na
94.864764	0.050253	109.000000	nontarget	9.000000	na
94.915017	0.050225	109.000000	nontarget	10.000000	na
94.965242	0.048981	109.000000	nontarget	11.000000	na
95.014223	0.050494	109.000000	nontarget	12.000000	na
95.064717	0.050614	109.000000	nontarget	13.000000	na
95.115331	0.049399	109.000000	nontarget	14.000000	na
95.164730	0.049609	109.000000	nontarget	15.000000	na
95.214339	0.050892	109.000000	nontarget	16.000000	na
95.265231	0.049156	110.000000	nontarget	1.000000	na
95.314387	0.050373	110.000000	nontarget	2.000000	95.321333
95.364760	0.050215	110.000000	nontarget	3.000000	na
95.414975	0.050249	110.000000	nontarget	4.000000	na
95.465224	0.050024	110.000000	nontarget	5.000000	na
95.515248	0.050005	110.000000	nontarget	6.000000	na
95.565253	0.050103	110.000000	nontarget	7.000000	na
95.615356	0.049885	110.000000	nontarget	8.000000	na
95.665241	0.050097	110.000000	nontarget	9.000000	na
95.715338	0.049923	110.000000	nontarget	10.000000	na
95.765261	0.049999	110.000000	nontarget	11.000000	na
95.815261	0.049598	110.000000	nontarget	12.000000	na
95.864859	0.050509	110.000000	nontarget	13.000000	na
95.915367	0.049908	110.000000	nontarget	14.000000	na
95.965276	0.048912	110.000000	nontarget	15.000000	na
96.014188	0.051040	110.000000	nontarget	16.000000	na
96.065228	0.049771	111.000000	nontarget	1.000000	na
96.114998	0.050076	111.000000	nontarget	2.000000	96.142789
96.165075	0.050258	111.000000	nontarget	3.000000	na
96.215332	0.049024	111.000000	nontarget	4.000000	na
96.264356	0.050870	111.000000	nontarget	5.000000	na
96.315227	0.050078	111.000000	nontarget	6.000000	na
96.365305	0.049549	111.000000	nontarget	7.000000	na
96.414854	0.050386	111.000000	nontarget	8.000000	na
96.465240	0.049608	111.000000	nontarget	9.000000	na
96.514848	0.050381	111.000000	nontarget	10.000000	na
96.565230	0.049911	111.000000	nontarget	11.000000	na
96.615141	0.050091	111.000000	nontarget	12.000000	na
96.665232	0.049827	111.000000	nontarget	13.000000	na
96.715059	0.050065	111.000000	nontarget	14.000000	na
96.765124	0.050115	111.000000	nontarget	15.000000	na
96.815239	0.049931	111.000000	nontarget	16.000000	na
96.865170	0.049734	112.000000	nontarget	1.000000	na
96.914905	0.050342	112.000000	nontarget	2.000000	96.921377
96.965246	0.048948	112.000000	nontarget	3.000000	na
97.014194	0.051221	112.000000	nontarget	4.000000	na
97.065416	0.049299	112.000000	nontarget	5.000000	na
97.114715	0.050536	112.000000	nontarget	6.000000	na
97.165251	0.049954	112.000000	nontarget	7.000000	na
97.215206	0.049396	112.000000	nontarget	8.000000	na
97.264602	0.050698	112.000000	nontarget	9.000000	na
97.315299	0.049961	112.000000	nontarget	10.000000	na
97.365260	0.049950	112.000000	nontarget	11.000000	na
97.415211	0.050040	112.000000	nontarget	12.000000	na
97.465250	0.049959	112.000000	nontarget	13.000000	na
97.515210	0.049390	112.000000	nontarget	14.000000	na
97.564600	0.050638	112.000000	nontarget	15.000000	na
97.615238	0.049977	112.000000	nontarget	16.000000	na
97.665214	0.050007	113.000000	target	1.000000	na
97.715221	0.049917	113.000000	target	2.000000	na
97.765138	0.050258	113.000000	target	3.000000	na
97.815396	0.049123	113.000000	target	4.000000	na
97.864519	0.050518	113.000000	target	5.000000	na
97.915037	0.050197	113.000000	target	6.000000	na
97.965234	0.048942	113.000000	target	7.000000	na
98.014176	0.051050	113.000000	target	8.000000	na
98.065225	0.050036	113.000000	target	9.000000	na
98.115261	0.049951	113.000000	target	10.000000	na
98.165213	0.049956	113.000000	target	11.000000	na
98.215169	0.049710	113.000000	target	12.000000	na
98.264879	0.050338	113.000000	target	13.000000	na
98.315216	0.050027	113.000000	target	14.000000	na
98.365243	0.049956	113.000000	target	15.000000	na
98.415199	0.049737	113.000000	target	16.000000	na
98.464936	0.049593	114.000000	nontarget	1.000000	98.471581
98.514529	0.049836	114.000000	nontarget	2.000000	na
98.564365	0.050809	114.000000	nontarget	3.000000	na
98.615175	0.049887	114.000000	nontarget	4.000000	na
98.665062	0.049876	114.000000	nontarget	5.000000	na
98.714937	0.050296	114.000000	nontarget	6.000000	na
98.765233	0.049989	114.000000	nontarget	7.000000	na
98.815222	0.049979	114.000000	nontarget	8.000000	na
98.865201	0.050089	114.000000	nontarget	9.000000	na
98.915290	0.049849	114.000000	nontarget	10.000000	na
98.965139	0.049059	114.000000	nontarget	11.000000	na
99.014198	0.051053	114.000000	nontarget	12.000000	na
99.065252	0.049535	114.000000	nontarget	13.000000	na
99.114786	0.050534	114.000000	nontarget	14.000000	na
99.165320	0.049719	114.000000	nontarget	15.000000	na
99.215039	0.050163	114.000000	nontarget	16.000000	na
99.265203	0.049920	115.000000	nontarget	1.000000	na
99.315122	0.049972	115.000000	nontarget	2.000000	na
99.365094	0.048983	115.000000	nontarget	3.000000	na
99.414078	0.050937	115.000000	nontarget	4.000000	99.420737
99.465015	0.050178	115.000000	nontarget	5.000000	na
99.515194	0.049789	115.000000	nontarget	6.000000	na
99.564982	0.049896	115.000000	nontarget	7.000000	na
99.614879	0.050377	115.000000	nontarget	8.000000	na
99.665256	0.049244	115.000000	nontarget	9.000000	na
99.714499	0.050518	115.000000	nontarget	10.000000	na
99.765018	0.050232	115.000000	nontarget	11.000000	na
99.815250	0.049930	115.000000	nontarget	12.000000	na
99.865180	0.049385	115.000000	nontarget	13.000000	na
99.914564	0.050619	115.000000	nontarget	14.000000	na
99.965184	0.049020	115.000000	nontarget	15.000000	na
100.014204	0.051000	115.000000	nontarget	16.000000	na
100.065204	0.049991	116.000000	nontarget	1.000000	na
100.115196	0.049935	116.000000	nontarget	2.000000	na
100.165131	0.049346	116.000000	nontarget	3.000000	100.180877
100.214477	0.050771	116.000000	nontarget	4.000000	na
100.265248	0.050014	116.000000	nontarget	5.000000	na
100.315262	0.049950	116.000000	nontarget	6.000000	na
100.365212	0.049985	116.000000	nontarget	7.000000	na
100.415196	0.049971	116.000000	nontarget	8.000000	na
100.465167	0.049940	116.000000	nontarget	9.000000	na
100.515107	0.050339	116.000000	nontarget	10.000000	na
100.565446	0.049833	116.000000	nontarget	11.000000	na
100.615279	0.049450	116.000000	nontarget	12.000000	na
100.664729	0.050663	116.000000	nontarget	13.000000	na
100.715392	0.049755	116.000000	nontarget	14.000000	na
100.765147	0.049599	116.000000	nontarget	15.000000	na
100.814746	0.050619	116.000000	nontarget	16.000000	na
100.865365	0.049434	117.000000	nontarget	1.000000	na
100.914799	0.049762	117.000000	nontarget	2.000000	na
100.964561	0.049775	117.000000	nontarget	3.000000	na
101.014336	0.050268	117.000000	nontarget	4.000000	na
101.064604	0.050555	117.000000	nontarget	5.000000	101.071262
101.115159	0.049983	117.000000	nontarget	6.000000	na
101.165142	0.049671	117.000000	nontarget	7.000000	na
101.214813	0.050325	117.000000	nontarget	8.000000	na
101.265137	0.050026	117.000000	nontarget	9.000000	na
101.315164	0.049885	117.000000	nontarget	10.000000	na
101.365048	0.050241	117.000000	nontarget	11.000000	na
101.415290	0.050057	117.000000	nontarget	12.000000	na
101.465346	0.049714	117.000000	nontarget	13.000000	na
101.515060	0.050120	117.000000	nontarget	14.000000	na
101.565180	0.050099	117.000000	nontarget	15.000000	na
101.615278	0.049450	117.000000	nontarget	16.000000	na
101.664728	0.049858	118.000000	nontarget	1.000000	na
101.714587	0.049999	118.000000	nontarget	2.000000	na
101.764586	0.050560	118.000000	nontarget	3.000000	na
101.815146	0.049996	118.000000	nontarget	4.000000	na
101.865142	0.050213	118.000000	nontarget	5.000000	na
101.915355	0.049863	118.000000	nontarget	6.000000	101.921221
101.965218	0.049132	118.000000	nontarget	7.000000	na
102.014350	0.050955	118.000000	nontarget	8.000000	na
102.065305	0.049267	118.000000	nontarget	9.000000	na
102.114572	0.050391	118.000000	nontarget	10.000000	na
102.164963	0.050571	118.000000	nontarget	11.000000	na
102.215534	0.049715	118.000000	nontarget	12.000000	na
102.265249	0.050281	118.000000	nontarget	13.000000	na
102.315530	0.049611	118.000000	nontarget	14.000000	na
102.365141	0.049835	118.000000	nontarget	15.000000	na
102.414975	0.049775	118.000000	nontarget	16.000000	na
102.464750	0.050498	119.000000	nontarget	1.000000	na
102.515248	0.050231	119.000000	nontarget	2.000000	na
102.565479	0.049696	119.000000	nontarget	3.000000	na
102.615174	0.050345	119.000000	nontarget	4.000000	na
102.665520	0.049577	119.000000	nontarget	5.000000	na
102.715097	0.050052	119.000000	nontarget	6.000000	na
102.765149	0.050347	119.000000	nontarget	7.000000	102.773890
102.815496	0.048937	119.000000	nontarget	8.000000	na
102.864433	0.050894	119.000000	nontarget	9.000000	na
102.915327	0.049154	119.000000	nontarget	10.000000	na
102.964481	0.049841	119.000000	nontarget	11.000000	na
103.014322	0.050874	119.000000	nontarget	12.000000	na
103.065196	0.049398	119.000000	nontarget	13.000000	na
103.114594	0.050028	119.000000	nontarget	14.000000	na
103.164622	0.050634	119.000000	nontarget	15.000000	na
103.215256	0.049904	119.000000	nontarget	16.000000	na
103.265160	0.050323	120.000000	nontarget	1.000000	na
103.315483	0.049755	120.000000	nontarget	2.000000	na
103.365238	0.049859	120.000000	nontarget	3.000000	na
103.415097	0.049899	120.000000	nontarget	4.000000	na
103.464996	0.049294	120.000000	nontarget	5.000000	103.476283
103.514290	0.051149	120.000000	nontarget	6.000000	na
103.565439	0.049709	120.000000	nontarget	7.000000	na
103.615148	0.049677	120.000000	nontarget	8.000000	na
103.664825	0.050284	120.000000	nontarget	9.000000	na
103.715109	0.050473	120.000000	nontarget	10.000000	na
103.765581	0.049958	120.000000	nontarget	11.000000	na
103.815540	0.049575	120.000000	nontarget	12.000000	na
103.865115	0.049901	120.000000	nontarget	13.000000	na
103.915016	0.050100	120.000000	nontarget	14.000000	na
103.965116	0.049230	120.000000	nontarget	15.000000	na
104.014346	0.050211	120.000000	nontarget	16.000000	na
104.064557	0.050426	121.000000	nontarget	1.000000	na
104.114983	0.050015	121.000000	nontarget	2.000000	104.121668
104.164998	0.050302	121.000000	nontarget	3.000000	na
104.215299	0.049807	121.000000	nontarget	4.000000	na
104.265106	0.050011	121.000000	nontarget	5.000000	na
104.315118	0.050282	121.000000	nontarget	6.000000	na
104.365400	0.049798	121.000000	nontarget	7.000000	na
104.415198	0.049895	121.000000	nontarget	8.000000	na
104.465093	0.049968	121.000000	nontarget	9.000000	na
104.515061	0.049922	121.000000	nontarget	10.000000	na
104.564983	0.050087	121.000000	nontarget	11.000000	na
104.615069	0.049916	121.000000	nontarget	12.000000	na
