onset	duration	trial_number	trial_type	frame_number	time_of_response
8.049837	0.043486	1.000000	nontarget	1.000000	na
8.093324	0.050659	1.000000	nontarget	2.000000	na
8.143983	0.050128	1.000000	nontarget	3.000000	na
8.194111	0.049985	1.000000	nontarget	4.000000	na
8.244096	0.050158	1.000000	nontarget	5.000000	na
8.294254	0.049611	1.000000	nontarget	6.000000	na
8.343865	0.050228	1.000000	nontarget	7.000000	na
8.394093	0.049454	1.000000	nontarget	8.000000	na
8.443547	0.050546	1.000000	nontarget	9.000000	na
8.494092	0.049844	1.000000	nontarget	10.000000	na
8.543936	0.050186	1.000000	nontarget	11.000000	na
8.594122	0.049627	1.000000	nontarget	12.000000	na
8.643749	0.050394	1.000000	nontarget	13.000000	na
8.694143	0.049943	1.000000	nontarget	14.000000	na
8.744086	0.050357	1.000000	nontarget	15.000000	na
8.794443	0.049400	1.000000	nontarget	16.000000	8.801289
8.843843	0.049799	2.000000	nontarget	1.000000	8.850676
8.893642	0.050418	2.000000	nontarget	2.000000	na
8.944060	0.049143	2.000000	nontarget	3.000000	na
8.993203	0.050803	2.000000	nontarget	4.000000	na
9.044006	0.050011	2.000000	nontarget	5.000000	na
9.094017	0.038631	2.000000	nontarget	6.000000	na
9.132648	0.044034	2.000000	nontarget	7.000000	na
9.176682	0.039508	2.000000	nontarget	8.000000	na
9.216191	0.044399	2.000000	nontarget	9.000000	na
9.260589	0.038654	2.000000	nontarget	10.000000	na
9.299243	0.044267	2.000000	nontarget	11.000000	na
9.343510	0.038391	2.000000	nontarget	12.000000	na
9.381901	0.045444	2.000000	nontarget	13.000000	na
9.427344	0.049668	2.000000	nontarget	14.000000	na
9.477012	0.050585	2.000000	nontarget	15.000000	na
9.527597	0.037852	2.000000	nontarget	16.000000	9.534301
9.565449	0.045467	3.000000	nontarget	1.000000	9.570519
9.610916	0.049978	3.000000	nontarget	2.000000	na
9.660894	0.049939	3.000000	nontarget	3.000000	na
9.710833	0.049913	3.000000	nontarget	4.000000	na
9.760746	0.050153	3.000000	nontarget	5.000000	na
9.810898	0.049193	3.000000	nontarget	6.000000	na
9.860092	0.050518	3.000000	nontarget	7.000000	na
9.910610	0.049537	3.000000	nontarget	8.000000	na
9.960147	0.049996	3.000000	nontarget	9.000000	na
10.010143	0.050489	3.000000	nontarget	10.000000	na
10.060632	0.049470	3.000000	nontarget	11.000000	na
10.110101	0.050042	3.000000	nontarget	12.000000	na
10.160144	0.050284	3.000000	nontarget	13.000000	na
10.210428	0.038195	3.000000	nontarget	14.000000	10.217026
10.248623	0.044850	3.000000	nontarget	15.000000	na
10.293473	0.038353	3.000000	nontarget	16.000000	na
10.331825	0.045283	4.000000	nontarget	1.000000	10.336861
10.377108	0.050038	4.000000	nontarget	2.000000	na
10.427146	0.038547	4.000000	nontarget	3.000000	na
10.465694	0.044925	4.000000	nontarget	4.000000	na
10.510618	0.038300	4.000000	nontarget	5.000000	na
10.548918	0.045483	4.000000	nontarget	6.000000	na
10.594401	0.049862	4.000000	nontarget	7.000000	na
10.644263	0.049543	4.000000	nontarget	8.000000	na
10.693805	0.049666	4.000000	nontarget	9.000000	na
10.743471	0.050358	4.000000	nontarget	10.000000	na
10.793829	0.050377	4.000000	nontarget	11.000000	na
10.844206	0.049981	4.000000	nontarget	12.000000	na
10.894188	0.049663	4.000000	nontarget	13.000000	10.900854
10.943851	0.038515	4.000000	nontarget	14.000000	na
10.982366	0.044632	4.000000	nontarget	15.000000	na
11.026998	0.050283	4.000000	nontarget	16.000000	na
11.077280	0.049878	5.000000	nontarget	1.000000	na
11.127158	0.050214	5.000000	nontarget	2.000000	na
11.177372	0.049612	5.000000	nontarget	3.000000	na
11.226984	0.038852	5.000000	nontarget	4.000000	na
11.265836	0.044319	5.000000	nontarget	5.000000	na
11.310155	0.038639	5.000000	nontarget	6.000000	na
11.348794	0.045547	5.000000	nontarget	7.000000	na
11.394340	0.049473	5.000000	nontarget	8.000000	na
11.443813	0.050048	5.000000	nontarget	9.000000	na
11.493861	0.050023	5.000000	nontarget	10.000000	na
11.543884	0.050194	5.000000	nontarget	11.000000	11.560072
11.594078	0.049187	5.000000	nontarget	12.000000	na
11.643265	0.050916	5.000000	nontarget	13.000000	na
11.694181	0.049576	5.000000	nontarget	14.000000	na
11.743757	0.038643	5.000000	nontarget	15.000000	na
11.782399	0.044634	5.000000	nontarget	16.000000	na
11.827033	0.049837	6.000000	nontarget	1.000000	na
11.876871	0.038527	6.000000	nontarget	2.000000	na
11.915397	0.045033	6.000000	nontarget	3.000000	na
11.960431	0.049353	6.000000	nontarget	4.000000	na
12.009783	0.050771	6.000000	nontarget	5.000000	na
12.060555	0.049902	6.000000	nontarget	6.000000	na
12.110457	0.050359	6.000000	nontarget	7.000000	na
12.160816	0.049650	6.000000	nontarget	8.000000	na
12.210466	0.049990	6.000000	nontarget	9.000000	na
12.260456	0.037981	6.000000	nontarget	10.000000	12.276136
12.298437	0.044951	6.000000	nontarget	11.000000	na
12.343388	0.038634	6.000000	nontarget	12.000000	na
12.382022	0.045190	6.000000	nontarget	13.000000	na
12.427212	0.050106	6.000000	nontarget	14.000000	na
12.477318	0.049861	6.000000	nontarget	15.000000	na
12.527179	0.049748	6.000000	nontarget	16.000000	na
12.576927	0.050414	7.000000	nontarget	1.000000	na
12.627340	0.038882	7.000000	nontarget	2.000000	na
12.666222	0.044270	7.000000	nontarget	3.000000	na
12.710492	0.050293	7.000000	nontarget	4.000000	na
12.760784	0.049615	7.000000	nontarget	5.000000	na
12.810400	0.049451	7.000000	nontarget	6.000000	na
12.859851	0.039586	7.000000	nontarget	7.000000	na
12.899438	0.044037	7.000000	nontarget	8.000000	na
12.943474	0.038267	7.000000	nontarget	9.000000	na
12.981741	0.045313	7.000000	nontarget	10.000000	12.986370
13.027054	0.049774	7.000000	nontarget	11.000000	na
13.076828	0.050636	7.000000	nontarget	12.000000	na
13.127465	0.049026	7.000000	nontarget	13.000000	na
13.176491	0.050610	7.000000	nontarget	14.000000	na
13.227101	0.050040	7.000000	nontarget	15.000000	na
13.277141	0.049970	7.000000	nontarget	16.000000	na
13.327112	0.050009	8.000000	nontarget	1.000000	na
13.377121	0.050175	8.000000	nontarget	2.000000	na
13.427296	0.049647	8.000000	nontarget	3.000000	na
13.476943	0.050201	8.000000	nontarget	4.000000	na
13.527144	0.049717	8.000000	nontarget	5.000000	na
13.576861	0.050238	8.000000	nontarget	6.000000	na
13.627099	0.050355	8.000000	nontarget	7.000000	na
13.677454	0.049626	8.000000	nontarget	8.000000	na
13.727080	0.049817	8.000000	nontarget	9.000000	na
13.776897	0.049389	8.000000	nontarget	10.000000	13.811979
13.826285	0.050829	8.000000	nontarget	11.000000	na
13.877114	0.050001	8.000000	nontarget	12.000000	na
13.927115	0.049629	8.000000	nontarget	13.000000	na
13.976744	0.038437	8.000000	nontarget	14.000000	na
14.015181	0.044498	8.000000	nontarget	15.000000	na
14.059679	0.038917	8.000000	nontarget	16.000000	na
14.098596	0.045192	9.000000	nontarget	1.000000	na
14.143788	0.038346	9.000000	nontarget	2.000000	na
14.182134	0.044790	9.000000	nontarget	3.000000	na
14.226924	0.038352	9.000000	nontarget	4.000000	na
14.265275	0.044599	9.000000	nontarget	5.000000	na
14.309874	0.038407	9.000000	nontarget	6.000000	na
14.348281	0.045347	9.000000	nontarget	7.000000	na
14.393627	0.050146	9.000000	nontarget	8.000000	na
14.443774	0.049429	9.000000	nontarget	9.000000	na
14.493202	0.050410	9.000000	nontarget	10.000000	na
14.543612	0.049513	9.000000	nontarget	11.000000	14.550079
14.593126	0.039202	9.000000	nontarget	12.000000	na
14.632327	0.044209	9.000000	nontarget	13.000000	na
14.676536	0.039008	9.000000	nontarget	14.000000	na
14.715544	0.045053	9.000000	nontarget	15.000000	na
14.760598	0.049856	9.000000	nontarget	16.000000	na
14.810454	0.049999	10.000000	nontarget	1.000000	na
14.860453	0.050146	10.000000	nontarget	2.000000	na
14.910599	0.050004	10.000000	nontarget	3.000000	na
14.960603	0.049548	10.000000	nontarget	4.000000	na
15.010152	0.038509	10.000000	nontarget	5.000000	na
15.048661	0.044357	10.000000	nontarget	6.000000	na
15.093018	0.038541	10.000000	nontarget	7.000000	na
15.131559	0.045387	10.000000	nontarget	8.000000	na
15.176945	0.050087	10.000000	nontarget	9.000000	na
15.227032	0.038680	10.000000	nontarget	10.000000	na
15.265713	0.044383	10.000000	nontarget	11.000000	na
15.310096	0.039231	10.000000	nontarget	12.000000	15.321486
15.349327	0.043697	10.000000	nontarget	13.000000	na
15.393024	0.038677	10.000000	nontarget	14.000000	na
15.431702	0.044982	10.000000	nontarget	15.000000	na
15.476684	0.038693	10.000000	nontarget	16.000000	na
15.515377	0.044929	11.000000	nontarget	1.000000	na
15.560306	0.038541	11.000000	nontarget	2.000000	na
15.598848	0.045176	11.000000	nontarget	3.000000	na
15.644023	0.048804	11.000000	nontarget	4.000000	na
15.692827	0.039132	11.000000	nontarget	5.000000	na
15.731959	0.044824	11.000000	nontarget	6.000000	na
15.776784	0.038278	11.000000	nontarget	7.000000	na
15.815062	0.045414	11.000000	nontarget	8.000000	na
15.860476	0.037755	11.000000	nontarget	9.000000	na
15.898232	0.044813	11.000000	nontarget	10.000000	na
15.943045	0.050493	11.000000	nontarget	11.000000	na
15.993538	0.050396	11.000000	nontarget	12.000000	na
16.043934	0.049859	11.000000	nontarget	13.000000	na
16.093793	0.039018	11.000000	nontarget	14.000000	16.117702
16.132811	0.043965	11.000000	nontarget	15.000000	na
16.176775	0.039016	11.000000	nontarget	16.000000	na
16.215792	0.044889	12.000000	nontarget	1.000000	16.221142
16.260681	0.049785	12.000000	nontarget	2.000000	na
16.310466	0.050147	12.000000	nontarget	3.000000	na
16.360614	0.048994	12.000000	nontarget	4.000000	na
16.409608	0.050906	12.000000	nontarget	5.000000	na
16.460514	0.037721	12.000000	nontarget	6.000000	na
16.498236	0.044995	12.000000	nontarget	7.000000	na
16.543231	0.038901	12.000000	nontarget	8.000000	na
16.582132	0.044582	12.000000	nontarget	9.000000	na
16.626714	0.038571	12.000000	nontarget	10.000000	na
16.665285	0.044661	12.000000	nontarget	11.000000	na
16.709946	0.038647	12.000000	nontarget	12.000000	na
16.748593	0.044903	12.000000	nontarget	13.000000	na
16.793496	0.038582	12.000000	nontarget	14.000000	na
16.832078	0.044923	12.000000	nontarget	15.000000	na
16.877002	0.049342	12.000000	nontarget	16.000000	na
16.926344	0.050709	13.000000	nontarget	1.000000	na
16.977052	0.049386	13.000000	nontarget	2.000000	16.983745
17.026439	0.050745	13.000000	nontarget	3.000000	na
17.077184	0.049007	13.000000	nontarget	4.000000	na
17.126191	0.051043	13.000000	nontarget	5.000000	na
17.177234	0.049814	13.000000	nontarget	6.000000	na
17.227048	0.049869	13.000000	nontarget	7.000000	na
17.276916	0.049937	13.000000	nontarget	8.000000	na
17.326854	0.049984	13.000000	nontarget	9.000000	na
17.376838	0.050179	13.000000	nontarget	10.000000	na
17.427017	0.049772	13.000000	nontarget	11.000000	na
17.476788	0.038755	13.000000	nontarget	12.000000	na
17.515543	0.044581	13.000000	nontarget	13.000000	na
17.560124	0.038304	13.000000	nontarget	14.000000	na
17.598428	0.044232	13.000000	nontarget	15.000000	na
17.642660	0.039457	13.000000	nontarget	16.000000	na
17.682117	0.044490	14.000000	nontarget	1.000000	na
17.726607	0.050417	14.000000	nontarget	2.000000	17.733245
17.777024	0.038529	14.000000	nontarget	3.000000	na
17.815553	0.044341	14.000000	nontarget	4.000000	na
17.859894	0.038966	14.000000	nontarget	5.000000	na
17.898859	0.044031	14.000000	nontarget	6.000000	na
17.942891	0.039365	14.000000	nontarget	7.000000	na
17.982256	0.044513	14.000000	nontarget	8.000000	na
18.026769	0.049699	14.000000	nontarget	9.000000	na
18.076468	0.050594	14.000000	nontarget	10.000000	na
18.127062	0.049861	14.000000	nontarget	11.000000	na
18.176923	0.050168	14.000000	nontarget	12.000000	na
18.227091	0.049862	14.000000	nontarget	13.000000	na
18.276954	0.050051	14.000000	nontarget	14.000000	na
18.327005	0.049111	14.000000	nontarget	15.000000	na
18.376116	0.050790	14.000000	nontarget	16.000000	na
18.426906	0.050102	15.000000	nontarget	1.000000	18.438673
18.477008	0.050129	15.000000	nontarget	2.000000	na
18.527137	0.038480	15.000000	nontarget	3.000000	na
18.565617	0.044833	15.000000	nontarget	4.000000	na
18.610450	0.038396	15.000000	nontarget	5.000000	na
18.648846	0.044549	15.000000	nontarget	6.000000	na
18.693395	0.038536	15.000000	nontarget	7.000000	na
18.731932	0.044291	15.000000	nontarget	8.000000	na
18.776222	0.039489	15.000000	nontarget	9.000000	na
18.815711	0.044139	15.000000	nontarget	10.000000	na
18.859850	0.038590	15.000000	nontarget	11.000000	na
18.898441	0.044514	15.000000	nontarget	12.000000	na
18.942955	0.039693	15.000000	nontarget	13.000000	na
18.982648	0.043353	15.000000	nontarget	14.000000	na
19.026001	0.051013	15.000000	nontarget	15.000000	na
19.077014	0.049987	15.000000	nontarget	16.000000	na
19.127001	0.049733	16.000000	nontarget	1.000000	na
19.176735	0.038529	16.000000	nontarget	2.000000	19.201347
19.215263	0.044181	16.000000	nontarget	3.000000	na
19.259445	0.039597	16.000000	nontarget	4.000000	na
19.299042	0.044339	16.000000	nontarget	5.000000	na
19.343381	0.049462	16.000000	nontarget	6.000000	na
19.392843	0.039898	16.000000	nontarget	7.000000	na
19.432741	0.043762	16.000000	nontarget	8.000000	na
19.476503	0.039554	16.000000	nontarget	9.000000	na
19.516057	0.043908	16.000000	nontarget	10.000000	na
19.559964	0.039051	16.000000	nontarget	11.000000	na
19.599015	0.044022	16.000000	nontarget	12.000000	na
19.643037	0.039263	16.000000	nontarget	13.000000	na
19.682300	0.044197	16.000000	nontarget	14.000000	na
19.726496	0.039502	16.000000	nontarget	15.000000	na
19.765999	0.044010	16.000000	nontarget	16.000000	na
19.810009	0.038486	17.000000	target	1.000000	na
19.848495	0.045103	17.000000	target	2.000000	na
19.893598	0.038627	17.000000	target	3.000000	na
19.932225	0.044009	17.000000	target	4.000000	na
19.976234	0.050732	17.000000	target	5.000000	na
20.026966	0.049664	17.000000	target	6.000000	na
20.076630	0.050040	17.000000	target	7.000000	na
20.126670	0.049549	17.000000	target	8.000000	na
20.176219	0.050760	17.000000	target	9.000000	na
20.226979	0.050054	17.000000	target	10.000000	na
20.277033	0.049269	17.000000	target	11.000000	na
20.326303	0.050700	17.000000	target	12.000000	na
20.377002	0.049947	17.000000	target	13.000000	na
20.426949	0.049759	17.000000	target	14.000000	na
20.476708	0.049941	17.000000	target	15.000000	na
20.526649	0.049232	17.000000	target	16.000000	na
20.575881	0.050503	18.000000	nontarget	1.000000	20.582578
20.626384	0.050634	18.000000	nontarget	2.000000	na
20.677018	0.048860	18.000000	nontarget	3.000000	na
20.725878	0.039018	18.000000	nontarget	4.000000	na
20.764896	0.045095	18.000000	nontarget	5.000000	na
20.809991	0.049643	18.000000	nontarget	6.000000	na
20.859635	0.050476	18.000000	nontarget	7.000000	na
20.910111	0.050058	18.000000	nontarget	8.000000	na
20.960169	0.049671	18.000000	nontarget	9.000000	na
21.009840	0.038502	18.000000	nontarget	10.000000	na
21.048342	0.044736	18.000000	nontarget	11.000000	na
21.093078	0.039194	18.000000	nontarget	12.000000	na
21.132272	0.044289	18.000000	nontarget	13.000000	na
21.176561	0.038359	18.000000	nontarget	14.000000	na
21.214920	0.044889	18.000000	nontarget	15.000000	na
21.259809	0.049421	18.000000	nontarget	16.000000	21.282912
21.309230	0.039425	19.000000	nontarget	1.000000	21.315833
21.348655	0.044157	19.000000	nontarget	2.000000	na
21.392813	0.050900	19.000000	nontarget	3.000000	na
21.443712	0.049544	19.000000	nontarget	4.000000	na
21.493256	0.050227	19.000000	nontarget	5.000000	na
21.543483	0.038894	19.000000	nontarget	6.000000	na
21.582376	0.044456	19.000000	nontarget	7.000000	na
21.626832	0.049892	19.000000	nontarget	8.000000	na
21.676724	0.049244	19.000000	nontarget	9.000000	na
21.725969	0.039719	19.000000	nontarget	10.000000	na
21.765688	0.043642	19.000000	nontarget	11.000000	na
21.809330	0.040028	19.000000	nontarget	12.000000	na
21.849358	0.043837	19.000000	nontarget	13.000000	na
21.893195	0.038586	19.000000	nontarget	14.000000	na
21.931781	0.044177	19.000000	nontarget	15.000000	na
21.975958	0.049984	19.000000	nontarget	16.000000	na
22.025942	0.039764	20.000000	nontarget	1.000000	22.046264
22.065706	0.043707	20.000000	nontarget	2.000000	na
22.109412	0.039936	20.000000	nontarget	3.000000	na
22.149348	0.043021	20.000000	nontarget	4.000000	na
22.192369	0.039299	20.000000	nontarget	5.000000	na
22.231668	0.044713	20.000000	nontarget	6.000000	na
22.276381	0.039065	20.000000	nontarget	7.000000	na
22.315446	0.043867	20.000000	nontarget	8.000000	na
22.359314	0.039747	20.000000	nontarget	9.000000	na
22.399060	0.043722	20.000000	nontarget	10.000000	na
22.442782	0.038952	20.000000	nontarget	11.000000	na
22.481734	0.044533	20.000000	nontarget	12.000000	na
22.526267	0.038597	20.000000	nontarget	13.000000	na
22.564865	0.044975	20.000000	nontarget	14.000000	na
22.609840	0.039062	20.000000	nontarget	15.000000	na
22.648903	0.043557	20.000000	nontarget	16.000000	na
22.692460	0.038989	21.000000	nontarget	1.000000	na
22.731448	0.045067	21.000000	nontarget	2.000000	22.752075
22.776515	0.039441	21.000000	nontarget	3.000000	na
22.815956	0.043713	21.000000	nontarget	4.000000	na
22.859669	0.039372	21.000000	nontarget	5.000000	na
22.899041	0.044001	21.000000	nontarget	6.000000	na
22.943042	0.038558	21.000000	nontarget	7.000000	na
22.981600	0.044554	21.000000	nontarget	8.000000	na
23.026154	0.050348	21.000000	nontarget	9.000000	na
23.076502	0.049448	21.000000	nontarget	10.000000	na
23.125950	0.050551	21.000000	nontarget	11.000000	na
23.176501	0.050001	21.000000	nontarget	12.000000	na
23.226502	0.049980	21.000000	nontarget	13.000000	na
23.276481	0.049395	21.000000	nontarget	14.000000	na
23.325877	0.050504	21.000000	nontarget	15.000000	na
23.376381	0.049984	21.000000	nontarget	16.000000	na
23.426365	0.049575	22.000000	nontarget	1.000000	na
23.475939	0.040018	22.000000	nontarget	2.000000	na
23.515957	0.043600	22.000000	nontarget	3.000000	23.536888
23.559556	0.038886	22.000000	nontarget	4.000000	na
23.598442	0.044665	22.000000	nontarget	5.000000	na
23.643107	0.038994	22.000000	nontarget	6.000000	na
23.682101	0.044207	22.000000	nontarget	7.000000	na
23.726308	0.038550	22.000000	nontarget	8.000000	na
23.764858	0.044737	22.000000	nontarget	9.000000	na
23.809594	0.039802	22.000000	nontarget	10.000000	na
23.849397	0.043955	22.000000	nontarget	11.000000	na
23.893352	0.049413	22.000000	nontarget	12.000000	na
23.942765	0.049564	22.000000	nontarget	13.000000	na
23.992329	0.039552	22.000000	nontarget	14.000000	na
24.031881	0.044536	22.000000	nontarget	15.000000	na
24.076417	0.039641	22.000000	nontarget	16.000000	na
24.116058	0.043530	23.000000	nontarget	1.000000	na
24.159588	0.039447	23.000000	nontarget	2.000000	na
24.199035	0.043536	23.000000	nontarget	3.000000	na
24.242571	0.050098	23.000000	nontarget	4.000000	24.269287
24.292669	0.038979	23.000000	nontarget	5.000000	na
24.331649	0.044719	23.000000	nontarget	6.000000	na
24.376367	0.039315	23.000000	nontarget	7.000000	na
24.415682	0.043698	23.000000	nontarget	8.000000	na
24.459380	0.038971	23.000000	nontarget	9.000000	na
24.498352	0.044067	23.000000	nontarget	10.000000	na
24.542418	0.039267	23.000000	nontarget	11.000000	na
24.581685	0.044420	23.000000	nontarget	12.000000	na
24.626105	0.038740	23.000000	nontarget	13.000000	na
24.664845	0.045080	23.000000	nontarget	14.000000	na
24.709925	0.049435	23.000000	nontarget	15.000000	na
24.759361	0.050286	23.000000	nontarget	16.000000	na
24.809647	0.050056	24.000000	target	1.000000	na
24.859703	0.049137	24.000000	target	2.000000	na
24.908840	0.040192	24.000000	target	3.000000	na
24.949032	0.043870	24.000000	target	4.000000	na
24.992903	0.039343	24.000000	target	5.000000	na
25.032245	0.043422	24.000000	target	6.000000	na
25.075668	0.039498	24.000000	target	7.000000	na
25.115165	0.044081	24.000000	target	8.000000	na
25.159246	0.039637	24.000000	target	9.000000	na
25.198883	0.043511	24.000000	target	10.000000	na
25.242394	0.039683	24.000000	target	11.000000	na
25.282078	0.044607	24.000000	target	12.000000	na
25.326685	0.049238	24.000000	target	13.000000	na
25.375923	0.038803	24.000000	target	14.000000	na
25.414726	0.044721	24.000000	target	15.000000	na
25.459447	0.039574	24.000000	target	16.000000	na
25.499020	0.043815	25.000000	nontarget	1.000000	na
25.542835	0.039455	25.000000	nontarget	2.000000	na
25.582291	0.043802	25.000000	nontarget	3.000000	na
25.626093	0.050018	25.000000	nontarget	4.000000	25.653717
25.676111	0.050157	25.000000	nontarget	5.000000	na
25.726268	0.039115	25.000000	nontarget	6.000000	na
25.765383	0.044380	25.000000	nontarget	7.000000	na
25.809764	0.049412	25.000000	nontarget	8.000000	na
25.859176	0.050454	25.000000	nontarget	9.000000	na
25.909630	0.049630	25.000000	nontarget	10.000000	na
25.959260	0.039577	25.000000	nontarget	11.000000	na
25.998837	0.044119	25.000000	nontarget	12.000000	na
26.042956	0.049639	25.000000	nontarget	13.000000	na
26.092595	0.050466	25.000000	nontarget	14.000000	na
26.143061	0.049629	25.000000	nontarget	15.000000	na
26.192690	0.039370	25.000000	nontarget	16.000000	na
26.232060	0.044139	26.000000	nontarget	1.000000	na
26.276199	0.038574	26.000000	nontarget	2.000000	na
26.314772	0.044849	26.000000	nontarget	3.000000	na
26.359621	0.038559	26.000000	nontarget	4.000000	na
26.398180	0.044301	26.000000	nontarget	5.000000	26.418538
26.442481	0.040045	26.000000	nontarget	6.000000	na
26.482526	0.042947	26.000000	nontarget	7.000000	na
26.525473	0.039288	26.000000	nontarget	8.000000	na
26.564761	0.043974	26.000000	nontarget	9.000000	na
26.608735	0.040178	26.000000	nontarget	10.000000	na
26.648913	0.043847	26.000000	nontarget	11.000000	na
26.692760	0.039424	26.000000	nontarget	12.000000	na
26.732185	0.043235	26.000000	nontarget	13.000000	na
26.775419	0.039573	26.000000	nontarget	14.000000	na
26.814992	0.044323	26.000000	nontarget	15.000000	na
26.859316	0.050259	26.000000	nontarget	16.000000	na
26.909575	0.049611	27.000000	nontarget	1.000000	na
26.959186	0.039880	27.000000	nontarget	2.000000	na
26.999066	0.043652	27.000000	nontarget	3.000000	na
27.042718	0.039707	27.000000	nontarget	4.000000	na
27.082425	0.043673	27.000000	nontarget	5.000000	na
27.126098	0.038679	27.000000	nontarget	6.000000	na
27.164777	0.044602	27.000000	nontarget	7.000000	27.193092
27.209379	0.038878	27.000000	nontarget	8.000000	na
27.248257	0.044477	27.000000	nontarget	9.000000	na
27.292734	0.039259	27.000000	nontarget	10.000000	na
27.331993	0.043434	27.000000	nontarget	11.000000	na
27.375427	0.039979	27.000000	nontarget	12.000000	na
27.415406	0.044000	27.000000	nontarget	13.000000	na
27.459406	0.038681	27.000000	nontarget	14.000000	na
27.498087	0.044192	27.000000	nontarget	15.000000	na
27.542280	0.039927	27.000000	nontarget	16.000000	na
27.582207	0.043215	28.000000	nontarget	1.000000	na
27.625422	0.039522	28.000000	nontarget	2.000000	na
27.664945	0.044383	28.000000	nontarget	3.000000	na
27.709328	0.039350	28.000000	nontarget	4.000000	na
27.748678	0.043495	28.000000	nontarget	5.000000	na
27.792172	0.040403	28.000000	nontarget	6.000000	na
27.832575	0.043508	28.000000	nontarget	7.000000	na
27.876084	0.039362	28.000000	nontarget	8.000000	na
27.915445	0.043744	28.000000	nontarget	9.000000	na
27.959189	0.039177	28.000000	nontarget	10.000000	na
27.998366	0.044279	28.000000	nontarget	11.000000	na
28.042645	0.039116	28.000000	nontarget	12.000000	na
28.081761	0.043708	28.000000	nontarget	13.000000	28.102745
28.125470	0.040273	28.000000	nontarget	14.000000	na
28.165742	0.042807	28.000000	nontarget	15.000000	na
28.208550	0.050553	28.000000	nontarget	16.000000	na
28.259102	0.040132	29.000000	nontarget	1.000000	na
28.299234	0.042710	29.000000	nontarget	2.000000	na
28.341944	0.039801	29.000000	nontarget	3.000000	na
28.381745	0.044597	29.000000	nontarget	4.000000	na
28.426342	0.039550	29.000000	nontarget	5.000000	na
28.465892	0.043380	29.000000	nontarget	6.000000	na
28.509272	0.050191	29.000000	nontarget	7.000000	na
28.559463	0.050018	29.000000	nontarget	8.000000	na
28.609481	0.050076	29.000000	nontarget	9.000000	na
28.659557	0.038881	29.000000	nontarget	10.000000	na
28.698438	0.044125	29.000000	nontarget	11.000000	na
28.742563	0.039786	29.000000	nontarget	12.000000	na
28.782349	0.043570	29.000000	nontarget	13.000000	na
28.825919	0.038902	29.000000	nontarget	14.000000	na
28.864822	0.043679	29.000000	nontarget	15.000000	na
28.908501	0.040649	29.000000	nontarget	16.000000	na
28.949150	0.042400	30.000000	nontarget	1.000000	28.985543
28.991549	0.040007	30.000000	nontarget	2.000000	na
29.031556	0.044592	30.000000	nontarget	3.000000	na
29.076148	0.039521	30.000000	nontarget	4.000000	na
29.115670	0.042675	30.000000	nontarget	5.000000	na
29.158345	0.039954	30.000000	nontarget	6.000000	na
29.198299	0.044481	30.000000	nontarget	7.000000	na
29.242779	0.039170	30.000000	nontarget	8.000000	na
29.281949	0.044131	30.000000	nontarget	9.000000	na
29.326080	0.039435	30.000000	nontarget	10.000000	na
29.365515	0.043627	30.000000	nontarget	11.000000	na
29.409142	0.050130	30.000000	nontarget	12.000000	na
29.459272	0.049929	30.000000	nontarget	13.000000	na
29.509201	0.049912	30.000000	nontarget	14.000000	na
29.559113	0.049420	30.000000	nontarget	15.000000	na
29.608532	0.040706	30.000000	nontarget	16.000000	na
29.649239	0.042457	31.000000	nontarget	1.000000	na
29.691696	0.050996	31.000000	nontarget	2.000000	na
29.742692	0.039598	31.000000	nontarget	3.000000	na
29.782289	0.043617	31.000000	nontarget	4.000000	na
29.825907	0.038829	31.000000	nontarget	5.000000	29.844035
29.864735	0.044318	31.000000	nontarget	6.000000	na
29.909053	0.040093	31.000000	nontarget	7.000000	na
29.949146	0.043587	31.000000	nontarget	8.000000	na
29.992733	0.039943	31.000000	nontarget	9.000000	na
30.032676	0.043257	31.000000	nontarget	10.000000	na
30.075933	0.039011	31.000000	nontarget	11.000000	na
30.114945	0.043936	31.000000	nontarget	12.000000	na
30.158881	0.039347	31.000000	nontarget	13.000000	na
30.198228	0.043931	31.000000	nontarget	14.000000	na
30.242159	0.040139	31.000000	nontarget	15.000000	na
30.282298	0.043678	31.000000	nontarget	16.000000	na
30.325976	0.038825	32.000000	target	1.000000	na
30.364801	0.044553	32.000000	target	2.000000	na
30.409354	0.039785	32.000000	target	3.000000	na
30.449139	0.043399	32.000000	target	4.000000	na
30.492538	0.039380	32.000000	target	5.000000	na
30.531918	0.044196	32.000000	target	6.000000	na
30.576114	0.038670	32.000000	target	7.000000	na
30.614784	0.044652	32.000000	target	8.000000	na
30.659437	0.039510	32.000000	target	9.000000	na
30.698947	0.043289	32.000000	target	10.000000	na
30.742236	0.039318	32.000000	target	11.000000	na
30.781553	0.044290	32.000000	target	12.000000	na
30.825843	0.050006	32.000000	target	13.000000	na
30.875849	0.050012	32.000000	target	14.000000	na
30.925862	0.049498	32.000000	target	15.000000	na
30.975360	0.040290	32.000000	target	16.000000	na
31.015650	0.043094	33.000000	nontarget	1.000000	31.021707
31.058744	0.050531	33.000000	nontarget	2.000000	na
31.109275	0.050256	33.000000	nontarget	3.000000	na
31.159532	0.049795	33.000000	nontarget	4.000000	na
31.209327	0.049844	33.000000	nontarget	5.000000	na
31.259171	0.049645	33.000000	nontarget	6.000000	na
31.308816	0.039377	33.000000	nontarget	7.000000	na
31.348193	0.044228	33.000000	nontarget	8.000000	na
31.392421	0.050253	33.000000	nontarget	9.000000	na
31.442673	0.049953	33.000000	nontarget	10.000000	na
31.492626	0.049236	33.000000	nontarget	11.000000	na
31.541862	0.040469	33.000000	nontarget	12.000000	na
31.582332	0.043625	33.000000	nontarget	13.000000	na
31.625957	0.039743	33.000000	nontarget	14.000000	na
31.665700	0.042569	33.000000	nontarget	15.000000	na
31.708268	0.039999	33.000000	nontarget	16.000000	na
31.748267	0.043722	34.000000	nontarget	1.000000	na
31.791988	0.039597	34.000000	nontarget	2.000000	na
31.831585	0.043670	34.000000	nontarget	3.000000	31.856258
31.875255	0.050860	34.000000	nontarget	4.000000	na
31.926116	0.049721	34.000000	nontarget	5.000000	na
31.975837	0.039730	34.000000	nontarget	6.000000	na
32.015566	0.043027	34.000000	nontarget	7.000000	na
32.058593	0.040274	34.000000	nontarget	8.000000	na
32.098867	0.043573	34.000000	nontarget	9.000000	na
32.142440	0.050057	34.000000	nontarget	10.000000	na
32.192496	0.039617	34.000000	nontarget	11.000000	na
32.232113	0.042785	34.000000	nontarget	12.000000	na
32.274898	0.040730	34.000000	nontarget	13.000000	na
32.315627	0.043040	34.000000	nontarget	14.000000	na
32.358668	0.040235	34.000000	nontarget	15.000000	na
32.398903	0.042806	34.000000	nontarget	16.000000	na
32.441709	0.039887	35.000000	nontarget	1.000000	na
32.481596	0.044291	35.000000	nontarget	2.000000	na
32.525886	0.038942	35.000000	nontarget	3.000000	na
32.564828	0.043926	35.000000	nontarget	4.000000	na
32.608754	0.039774	35.000000	nontarget	5.000000	na
32.648528	0.043924	35.000000	nontarget	6.000000	na
32.692452	0.039869	35.000000	nontarget	7.000000	na
32.732321	0.043304	35.000000	nontarget	8.000000	na
32.775625	0.039143	35.000000	nontarget	9.000000	32.806230
32.814769	0.044170	35.000000	nontarget	10.000000	na
32.858939	0.039738	35.000000	nontarget	11.000000	na
32.898677	0.043444	35.000000	nontarget	12.000000	na
32.942121	0.040047	35.000000	nontarget	13.000000	na
32.982168	0.042913	35.000000	nontarget	14.000000	na
33.025082	0.039904	35.000000	nontarget	15.000000	na
33.064985	0.044384	35.000000	nontarget	16.000000	na
33.109369	0.039399	36.000000	nontarget	1.000000	na
33.148768	0.043608	36.000000	nontarget	2.000000	na
33.192375	0.050111	36.000000	nontarget	3.000000	na
33.242486	0.039484	36.000000	nontarget	4.000000	na
33.281970	0.043540	36.000000	nontarget	5.000000	na
33.325510	0.039731	36.000000	nontarget	6.000000	na
33.365241	0.044023	36.000000	nontarget	7.000000	na
33.409264	0.050223	36.000000	nontarget	8.000000	na
33.459486	0.039083	36.000000	nontarget	9.000000	na
33.498569	0.044233	36.000000	nontarget	10.000000	na
33.542802	0.038848	36.000000	nontarget	11.000000	na
33.581650	0.043645	36.000000	nontarget	12.000000	na
33.625296	0.039586	36.000000	nontarget	13.000000	na
33.664882	0.043987	36.000000	nontarget	14.000000	na
33.708869	0.039318	36.000000	nontarget	15.000000	na
33.748186	0.044143	36.000000	nontarget	16.000000	na
33.792329	0.039790	37.000000	nontarget	1.000000	na
33.832119	0.043209	37.000000	nontarget	2.000000	33.861190
33.875328	0.040213	37.000000	nontarget	3.000000	na
33.915540	0.042953	37.000000	nontarget	4.000000	na
33.958493	0.040506	37.000000	nontarget	5.000000	na
33.998999	0.043913	37.000000	nontarget	6.000000	na
34.042912	0.038646	37.000000	nontarget	7.000000	na
34.081558	0.044633	37.000000	nontarget	8.000000	na
34.126191	0.038487	37.000000	nontarget	9.000000	na
34.164678	0.044250	37.000000	nontarget	10.000000	na
34.208927	0.039920	37.000000	nontarget	11.000000	na
34.248847	0.043448	37.000000	nontarget	12.000000	na
34.292295	0.050167	37.000000	nontarget	13.000000	na
34.342462	0.050225	37.000000	nontarget	14.000000	na
34.392687	0.039589	37.000000	nontarget	15.000000	na
34.432276	0.043229	37.000000	nontarget	16.000000	na
34.475506	0.039778	38.000000	nontarget	1.000000	na
34.515283	0.043085	38.000000	nontarget	2.000000	na
34.558368	0.050592	38.000000	nontarget	3.000000	na
34.608960	0.039435	38.000000	nontarget	4.000000	na
34.648395	0.043498	38.000000	nontarget	5.000000	34.653264
34.691893	0.039908	38.000000	nontarget	6.000000	na
34.731801	0.043779	38.000000	nontarget	7.000000	na
34.775580	0.039751	38.000000	nontarget	8.000000	na
34.815331	0.043581	38.000000	nontarget	9.000000	na
34.858912	0.039860	38.000000	nontarget	10.000000	na
34.898773	0.043358	38.000000	nontarget	11.000000	na
34.942131	0.039390	38.000000	nontarget	12.000000	na
34.981521	0.043835	38.000000	nontarget	13.000000	na
35.025356	0.050411	38.000000	nontarget	14.000000	na
35.075767	0.050391	38.000000	nontarget	15.000000	na
35.126158	0.038882	38.000000	nontarget	16.000000	na
35.165040	0.043997	39.000000	nontarget	1.000000	na
35.209037	0.039791	39.000000	nontarget	2.000000	na
35.248828	0.043548	39.000000	nontarget	3.000000	na
35.292375	0.039975	39.000000	nontarget	4.000000	na
35.332351	0.042385	39.000000	nontarget	5.000000	na
35.374735	0.039887	39.000000	nontarget	6.000000	na
35.414623	0.043952	39.000000	nontarget	7.000000	na
35.458575	0.039598	39.000000	nontarget	8.000000	na
35.498173	0.044311	39.000000	nontarget	9.000000	na
35.542484	0.038980	39.000000	nontarget	10.000000	35.547830
35.581464	0.044220	39.000000	nontarget	11.000000	na
35.625684	0.039005	39.000000	nontarget	12.000000	na
35.664689	0.044158	39.000000	nontarget	13.000000	na
35.708847	0.040089	39.000000	nontarget	14.000000	na
35.748935	0.043279	39.000000	nontarget	15.000000	na
35.792214	0.040078	39.000000	nontarget	16.000000	na
35.832292	0.042891	40.000000	nontarget	1.000000	na
35.875184	0.050461	40.000000	nontarget	2.000000	na
35.925645	0.039249	40.000000	nontarget	3.000000	na
35.964894	0.043616	40.000000	nontarget	4.000000	na
36.008510	0.039462	40.000000	nontarget	5.000000	na
36.047972	0.044386	40.000000	nontarget	6.000000	na
36.092358	0.039842	40.000000	nontarget	7.000000	na
36.132200	0.043671	40.000000	nontarget	8.000000	na
36.175870	0.039437	40.000000	nontarget	9.000000	na
36.215307	0.043146	40.000000	nontarget	10.000000	na
36.258454	0.040321	40.000000	nontarget	11.000000	na
36.298775	0.043677	40.000000	nontarget	12.000000	na
36.342452	0.049880	40.000000	nontarget	13.000000	na
36.392332	0.049376	40.000000	nontarget	14.000000	na
36.441708	0.040381	40.000000	nontarget	15.000000	na
36.482089	0.043352	40.000000	nontarget	16.000000	na
36.525442	0.040128	41.000000	target	1.000000	na
36.565570	0.043167	41.000000	target	2.000000	na
36.608736	0.040104	41.000000	target	3.000000	na
36.648841	0.043684	41.000000	target	4.000000	na
36.692524	0.038953	41.000000	target	5.000000	na
36.731478	0.043334	41.000000	target	6.000000	na
36.774812	0.039974	41.000000	target	7.000000	na
36.814786	0.044262	41.000000	target	8.000000	na
36.859048	0.039798	41.000000	target	9.000000	na
36.898846	0.043109	41.000000	target	10.000000	na
36.941955	0.039732	41.000000	target	11.000000	na
36.981687	0.044232	41.000000	target	12.000000	na
37.025919	0.049822	41.000000	target	13.000000	na
37.075741	0.050197	41.000000	target	14.000000	na
37.125938	0.039181	41.000000	target	15.000000	na
37.165119	0.043198	41.000000	target	16.000000	na
37.208317	0.050686	42.000000	nontarget	1.000000	37.240769
37.259003	0.039923	42.000000	nontarget	2.000000	na
37.298926	0.043200	42.000000	nontarget	3.000000	na
37.342126	0.039589	42.000000	nontarget	4.000000	na
37.381715	0.043759	42.000000	nontarget	5.000000	na
37.425474	0.039865	42.000000	nontarget	6.000000	na
37.465339	0.043061	42.000000	nontarget	7.000000	na
37.508400	0.040228	42.000000	nontarget	8.000000	na
37.548628	0.043149	42.000000	nontarget	9.000000	na
37.591777	0.040363	42.000000	nontarget	10.000000	na
37.632139	0.042724	42.000000	nontarget	11.000000	na
37.674863	0.040111	42.000000	nontarget	12.000000	na
37.714974	0.043516	42.000000	nontarget	13.000000	na
37.758490	0.039418	42.000000	nontarget	14.000000	na
37.797908	0.044303	42.000000	nontarget	15.000000	na
37.842212	0.039926	42.000000	nontarget	16.000000	na
37.882137	0.042507	43.000000	nontarget	1.000000	na
37.924644	0.040140	43.000000	nontarget	2.000000	na
37.964784	0.043389	43.000000	nontarget	3.000000	na
38.008173	0.040640	43.000000	nontarget	4.000000	na
38.048813	0.042856	43.000000	nontarget	5.000000	38.063234
38.091669	0.040345	43.000000	nontarget	6.000000	na
38.132014	0.042395	43.000000	nontarget	7.000000	na
38.174409	0.041109	43.000000	nontarget	8.000000	na
38.215518	0.042817	43.000000	nontarget	9.000000	na
38.258334	0.039666	43.000000	nontarget	10.000000	na
38.298000	0.043354	43.000000	nontarget	11.000000	na
38.341354	0.041009	43.000000	nontarget	12.000000	na
38.382363	0.042369	43.000000	nontarget	13.000000	na
38.424733	0.040694	43.000000	nontarget	14.000000	na
38.465427	0.043149	43.000000	nontarget	15.000000	na
38.508576	0.039483	43.000000	nontarget	16.000000	na
38.548059	0.043397	44.000000	nontarget	1.000000	na
38.591456	0.040988	44.000000	nontarget	2.000000	na
38.632443	0.042412	44.000000	nontarget	3.000000	na
38.674856	0.040333	44.000000	nontarget	4.000000	na
38.715189	0.043685	44.000000	nontarget	5.000000	na
38.758874	0.039324	44.000000	nontarget	6.000000	na
38.798197	0.043276	44.000000	nontarget	7.000000	na
38.841473	0.039822	44.000000	nontarget	8.000000	na
38.881295	0.044123	44.000000	nontarget	9.000000	na
38.925418	0.049749	44.000000	nontarget	10.000000	38.952854
38.975167	0.049384	44.000000	nontarget	11.000000	na
39.024551	0.040593	44.000000	nontarget	12.000000	na
39.065144	0.042681	44.000000	nontarget	13.000000	na
39.107824	0.041279	44.000000	nontarget	14.000000	na
39.149104	0.043137	44.000000	nontarget	15.000000	na
39.192240	0.050058	44.000000	nontarget	16.000000	na
39.242298	0.049361	45.000000	nontarget	1.000000	na
39.291659	0.040334	45.000000	nontarget	2.000000	na
39.331993	0.042349	45.000000	nontarget	3.000000	na
39.374341	0.040257	45.000000	nontarget	4.000000	na
39.414598	0.043769	45.000000	nontarget	5.000000	na
39.458367	0.039769	45.000000	nontarget	6.000000	na
39.498136	0.043460	45.000000	nontarget	7.000000	na
39.541596	0.040439	45.000000	nontarget	8.000000	na
39.582035	0.043193	45.000000	nontarget	9.000000	na
39.625227	0.039479	45.000000	nontarget	10.000000	na
39.664706	0.043780	45.000000	nontarget	11.000000	na
39.708487	0.040493	45.000000	nontarget	12.000000	na
39.748979	0.042816	45.000000	nontarget	13.000000	na
39.791795	0.039798	45.000000	nontarget	14.000000	na
39.831592	0.043686	45.000000	nontarget	15.000000	na
39.875279	0.040036	45.000000	nontarget	16.000000	na
39.915315	0.043223	46.000000	nontarget	1.000000	na
39.958538	0.050132	46.000000	nontarget	2.000000	39.989405
40.008670	0.050094	46.000000	nontarget	3.000000	na
40.058764	0.040011	46.000000	nontarget	4.000000	na
40.098775	0.043404	46.000000	nontarget	5.000000	na
40.142179	0.039462	46.000000	nontarget	6.000000	na
40.181641	0.043623	46.000000	nontarget	7.000000	na
40.225263	0.040071	46.000000	nontarget	8.000000	na
40.265334	0.043633	46.000000	nontarget	9.000000	na
40.308967	0.039633	46.000000	nontarget	10.000000	na
40.348600	0.043183	46.000000	nontarget	11.000000	na
40.391782	0.040513	46.000000	nontarget	12.000000	na
40.432295	0.042446	46.000000	nontarget	13.000000	na
40.474742	0.040738	46.000000	nontarget	14.000000	na
40.515479	0.043034	46.000000	nontarget	15.000000	na
40.558513	0.039664	46.000000	nontarget	16.000000	na
40.598177	0.044153	47.000000	target	1.000000	na
40.642331	0.039457	47.000000	target	2.000000	na
40.681787	0.042716	47.000000	target	3.000000	na
40.724503	0.040313	47.000000	target	4.000000	na
40.764816	0.043839	47.000000	target	5.000000	na
40.808654	0.039522	47.000000	target	6.000000	na
40.848176	0.043500	47.000000	target	7.000000	na
40.891676	0.040539	47.000000	target	8.000000	na
40.932215	0.043133	47.000000	target	9.000000	na
40.975348	0.039569	47.000000	target	10.000000	na
41.014918	0.043195	47.000000	target	11.000000	na
41.058113	0.040439	47.000000	target	12.000000	na
41.098551	0.042638	47.000000	target	13.000000	na
41.141189	0.040994	47.000000	target	14.000000	na
41.182183	0.042870	47.000000	target	15.000000	na
41.225053	0.040455	47.000000	target	16.000000	na
41.265508	0.043062	48.000000	nontarget	1.000000	na
41.308571	0.039425	48.000000	nontarget	2.000000	na
41.347995	0.043984	48.000000	nontarget	3.000000	na
41.391979	0.039541	48.000000	nontarget	4.000000	na
41.431520	0.043066	48.000000	nontarget	5.000000	na
41.474586	0.040410	48.000000	nontarget	6.000000	na
41.514996	0.043985	48.000000	nontarget	7.000000	41.546970
41.558981	0.039941	48.000000	nontarget	8.000000	na
41.598922	0.042391	48.000000	nontarget	9.000000	na
41.641313	0.040828	48.000000	nontarget	10.000000	na
41.682140	0.042976	48.000000	nontarget	11.000000	na
41.725117	0.039945	48.000000	nontarget	12.000000	na
41.765062	0.043564	48.000000	nontarget	13.000000	na
41.808626	0.039949	48.000000	nontarget	14.000000	na
41.848575	0.042647	48.000000	nontarget	15.000000	na
41.891222	0.041015	48.000000	nontarget	16.000000	na
41.932237	0.043086	49.000000	nontarget	1.000000	na
41.975323	0.049974	49.000000	nontarget	2.000000	na
42.025296	0.049206	49.000000	nontarget	3.000000	na
42.074502	0.040106	49.000000	nontarget	4.000000	na
42.114608	0.043193	49.000000	nontarget	5.000000	na
42.157801	0.040614	49.000000	nontarget	6.000000	na
42.198415	0.043341	49.000000	nontarget	7.000000	42.219960
42.241756	0.039585	49.000000	nontarget	8.000000	na
42.281341	0.043711	49.000000	nontarget	9.000000	na
42.325052	0.040143	49.000000	nontarget	10.000000	na
42.365195	0.043166	49.000000	nontarget	11.000000	na
42.408361	0.040140	49.000000	nontarget	12.000000	na
42.448502	0.042771	49.000000	nontarget	13.000000	na
42.491273	0.040388	49.000000	nontarget	14.000000	na
42.531661	0.042838	49.000000	nontarget	15.000000	na
42.574499	0.040982	49.000000	nontarget	16.000000	na
42.615481	0.042237	50.000000	nontarget	1.000000	na
42.657718	0.040423	50.000000	nontarget	2.000000	na
42.698142	0.043587	50.000000	nontarget	3.000000	na
42.741729	0.040189	50.000000	nontarget	4.000000	na
42.781919	0.042644	50.000000	nontarget	5.000000	na
42.824562	0.040595	50.000000	nontarget	6.000000	na
42.865157	0.043643	50.000000	nontarget	7.000000	na
42.908800	0.039942	50.000000	nontarget	8.000000	na
42.948742	0.042832	50.000000	nontarget	9.000000	42.962495
42.991573	0.039854	50.000000	nontarget	10.000000	na
43.031427	0.043279	50.000000	nontarget	11.000000	na
43.074706	0.040874	50.000000	nontarget	12.000000	na
43.115580	0.042825	50.000000	nontarget	13.000000	na
43.158406	0.039769	50.000000	nontarget	14.000000	na
43.198175	0.043480	50.000000	nontarget	15.000000	na
43.241654	0.049610	50.000000	nontarget	16.000000	na
43.291264	0.040980	51.000000	nontarget	1.000000	na
43.332244	0.041848	51.000000	nontarget	2.000000	na
43.374091	0.041635	51.000000	nontarget	3.000000	na
43.415726	0.042916	51.000000	nontarget	4.000000	na
43.458643	0.049865	51.000000	nontarget	5.000000	na
43.508507	0.049775	51.000000	nontarget	6.000000	na
43.558282	0.049644	51.000000	nontarget	7.000000	na
43.607926	0.040868	51.000000	nontarget	8.000000	na
43.648794	0.042878	51.000000	nontarget	9.000000	na
43.691672	0.039786	51.000000	nontarget	10.000000	na
43.731457	0.042773	51.000000	nontarget	11.000000	na
43.774230	0.040495	51.000000	nontarget	12.000000	43.795130
43.814725	0.042989	51.000000	nontarget	13.000000	na
43.857714	0.041071	51.000000	nontarget	14.000000	na
43.898786	0.042763	51.000000	nontarget	15.000000	na
43.941548	0.040733	51.000000	nontarget	16.000000	na
43.982281	0.042668	52.000000	nontarget	1.000000	na
44.024949	0.040437	52.000000	nontarget	2.000000	na
44.065386	0.042347	52.000000	nontarget	3.000000	na
44.107733	0.040807	52.000000	nontarget	4.000000	na
44.148539	0.042670	52.000000	nontarget	5.000000	na
44.191209	0.040487	52.000000	nontarget	6.000000	na
44.231697	0.043054	52.000000	nontarget	7.000000	na
44.274751	0.039829	52.000000	nontarget	8.000000	na
44.314580	0.043729	52.000000	nontarget	9.000000	na
44.358308	0.040386	52.000000	nontarget	10.000000	na
44.398695	0.042571	52.000000	nontarget	11.000000	na
44.441266	0.040727	52.000000	nontarget	12.000000	na
44.481993	0.042857	52.000000	nontarget	13.000000	na
44.524850	0.040551	52.000000	nontarget	14.000000	na
44.565401	0.042948	52.000000	nontarget	15.000000	na
44.608349	0.039869	52.000000	nontarget	16.000000	na
44.648218	0.043248	53.000000	nontarget	1.000000	44.653037
44.691466	0.049876	53.000000	nontarget	2.000000	na
44.741342	0.049568	53.000000	nontarget	3.000000	na
44.790910	0.041245	53.000000	nontarget	4.000000	na
44.832154	0.042751	53.000000	nontarget	5.000000	na
44.874905	0.039718	53.000000	nontarget	6.000000	na
44.914623	0.043227	53.000000	nontarget	7.000000	na
44.957849	0.040047	53.000000	nontarget	8.000000	na
44.997896	0.042988	53.000000	nontarget	9.000000	na
45.040884	0.040868	53.000000	nontarget	10.000000	na
45.081753	0.042534	53.000000	nontarget	11.000000	na
45.124287	0.040216	53.000000	nontarget	12.000000	na
45.164503	0.044253	53.000000	nontarget	13.000000	na
45.208756	0.039665	53.000000	nontarget	14.000000	na
45.248421	0.042690	53.000000	nontarget	15.000000	na
45.291111	0.041010	53.000000	nontarget	16.000000	na
45.332121	0.042856	54.000000	nontarget	1.000000	na
45.374977	0.040474	54.000000	nontarget	2.000000	na
45.415451	0.041845	54.000000	nontarget	3.000000	45.421405
45.457296	0.041205	54.000000	nontarget	4.000000	na
45.498501	0.042988	54.000000	nontarget	5.000000	na
45.541489	0.050283	54.000000	nontarget	6.000000	na
45.591773	0.049926	54.000000	nontarget	7.000000	na
45.641699	0.049999	54.000000	nontarget	8.000000	na
45.691698	0.039650	54.000000	nontarget	9.000000	na
45.731348	0.043739	54.000000	nontarget	10.000000	na
45.775087	0.039792	54.000000	nontarget	11.000000	na
45.814879	0.043213	54.000000	nontarget	12.000000	na
45.858093	0.049878	54.000000	nontarget	13.000000	na
45.907971	0.040617	54.000000	nontarget	14.000000	na
45.948588	0.041880	54.000000	nontarget	15.000000	na
45.990467	0.040906	54.000000	nontarget	16.000000	na
46.031373	0.043493	55.000000	nontarget	1.000000	na
46.074866	0.040585	55.000000	nontarget	2.000000	na
46.115451	0.042753	55.000000	nontarget	3.000000	na
46.158204	0.039621	55.000000	nontarget	4.000000	na
46.197826	0.042883	55.000000	nontarget	5.000000	na
46.240708	0.041128	55.000000	nontarget	6.000000	46.257798
46.281836	0.043030	55.000000	nontarget	7.000000	na
46.324866	0.039790	55.000000	nontarget	8.000000	na
46.364656	0.043799	55.000000	nontarget	9.000000	na
46.408455	0.040543	55.000000	nontarget	10.000000	na
46.448998	0.041629	55.000000	nontarget	11.000000	na
46.490627	0.041051	55.000000	nontarget	12.000000	na
46.531678	0.043018	55.000000	nontarget	13.000000	na
46.574696	0.040142	55.000000	nontarget	14.000000	na
46.614837	0.042666	55.000000	nontarget	15.000000	na
46.657504	0.040467	55.000000	nontarget	16.000000	na
46.697971	0.043676	56.000000	nontarget	1.000000	na
46.741647	0.040431	56.000000	nontarget	2.000000	na
46.782078	0.042209	56.000000	nontarget	3.000000	na
46.824287	0.040234	56.000000	nontarget	4.000000	na
46.864522	0.043771	56.000000	nontarget	5.000000	na
46.908293	0.040085	56.000000	nontarget	6.000000	46.931467
46.948378	0.043145	56.000000	nontarget	7.000000	na
46.991522	0.040207	56.000000	nontarget	8.000000	na
47.031729	0.043064	56.000000	nontarget	9.000000	na
47.074793	0.040114	56.000000	nontarget	10.000000	na
47.114907	0.043217	56.000000	nontarget	11.000000	na
47.158125	0.040804	56.000000	nontarget	12.000000	na
47.198929	0.042470	56.000000	nontarget	13.000000	na
47.241399	0.039995	56.000000	nontarget	14.000000	na
47.281394	0.042824	56.000000	nontarget	15.000000	na
47.324218	0.041109	56.000000	nontarget	16.000000	na
47.365327	0.042806	57.000000	nontarget	1.000000	na
47.408133	0.040623	57.000000	nontarget	2.000000	na
47.448756	0.041861	57.000000	nontarget	3.000000	na
47.490617	0.041625	57.000000	nontarget	4.000000	na
47.532243	0.042696	57.000000	nontarget	5.000000	na
47.574939	0.040347	57.000000	nontarget	6.000000	na
47.615285	0.042856	57.000000	nontarget	7.000000	na
47.658141	0.040626	57.000000	nontarget	8.000000	47.691350
47.698767	0.042730	57.000000	nontarget	9.000000	na
47.741497	0.040438	57.000000	nontarget	10.000000	na
47.781935	0.042200	57.000000	nontarget	11.000000	na
47.824135	0.040966	57.000000	nontarget	12.000000	na
47.865101	0.043477	57.000000	nontarget	13.000000	na
47.908579	0.040091	57.000000	nontarget	14.000000	na
47.948669	0.042037	57.000000	nontarget	15.000000	na
47.990706	0.041523	57.000000	nontarget	16.000000	na
48.032229	0.042403	58.000000	nontarget	1.000000	na
48.074633	0.040494	58.000000	nontarget	2.000000	na
48.115127	0.042941	58.000000	nontarget	3.000000	na
48.158068	0.049616	58.000000	nontarget	4.000000	na
48.207684	0.040179	58.000000	nontarget	5.000000	na
48.247863	0.043608	58.000000	nontarget	6.000000	na
48.291472	0.039894	58.000000	nontarget	7.000000	na
48.331365	0.043364	58.000000	nontarget	8.000000	na
48.374730	0.039722	58.000000	nontarget	9.000000	na
48.414452	0.042934	58.000000	nontarget	10.000000	na
48.457386	0.040776	58.000000	nontarget	11.000000	48.482473
48.498162	0.043144	58.000000	nontarget	12.000000	na
48.541306	0.041036	58.000000	nontarget	13.000000	na
48.582342	0.042338	58.000000	nontarget	14.000000	na
48.624680	0.040702	58.000000	nontarget	15.000000	na
48.665383	0.042760	58.000000	nontarget	16.000000	na
48.708143	0.040553	59.000000	nontarget	1.000000	na
48.748696	0.041931	59.000000	nontarget	2.000000	na
48.790628	0.041151	59.000000	nontarget	3.000000	na
48.831778	0.042254	59.000000	nontarget	4.000000	na
48.874032	0.040518	59.000000	nontarget	5.000000	na
48.914550	0.043305	59.000000	nontarget	6.000000	na
48.957855	0.040416	59.000000	nontarget	7.000000	na
48.998271	0.043364	59.000000	nontarget	8.000000	na
49.041635	0.040472	59.000000	nontarget	9.000000	na
49.082107	0.041884	59.000000	nontarget	10.000000	na
49.123991	0.041660	59.000000	nontarget	11.000000	na
49.165651	0.042502	59.000000	nontarget	12.000000	na
49.208153	0.040637	59.000000	nontarget	13.000000	na
49.248790	0.042219	59.000000	nontarget	14.000000	na
49.291009	0.040660	59.000000	nontarget	15.000000	na
49.331669	0.043283	59.000000	nontarget	16.000000	49.356863
49.374953	0.049989	60.000000	nontarget	1.000000	49.381531
49.424941	0.040150	60.000000	nontarget	2.000000	na
49.465091	0.042187	60.000000	nontarget	3.000000	na
49.507278	0.041165	60.000000	nontarget	4.000000	na
49.548444	0.042216	60.000000	nontarget	5.000000	na
49.590659	0.041617	60.000000	nontarget	6.000000	na
49.632276	0.042859	60.000000	nontarget	7.000000	na
49.675134	0.040026	60.000000	nontarget	8.000000	na
49.715160	0.042481	60.000000	nontarget	9.000000	na
49.757641	0.040405	60.000000	nontarget	10.000000	na
49.798046	0.043228	60.000000	nontarget	11.000000	na
49.841273	0.040846	60.000000	nontarget	12.000000	na
49.882120	0.042297	60.000000	nontarget	13.000000	na
49.924417	0.040824	60.000000	nontarget	14.000000	na
49.965241	0.043206	60.000000	nontarget	15.000000	na
50.008447	0.039286	60.000000	nontarget	16.000000	na
50.047733	0.043566	61.000000	nontarget	1.000000	na
50.091299	0.040686	61.000000	nontarget	2.000000	50.101580
50.131985	0.042628	61.000000	nontarget	3.000000	na
50.174613	0.040356	61.000000	nontarget	4.000000	na
50.214969	0.043130	61.000000	nontarget	5.000000	na
50.258099	0.039974	61.000000	nontarget	6.000000	na
50.298073	0.043143	61.000000	nontarget	7.000000	na
50.341217	0.040871	61.000000	nontarget	8.000000	na
50.382088	0.042648	61.000000	nontarget	9.000000	na
50.424735	0.039966	61.000000	nontarget	10.000000	na
50.464701	0.043490	61.000000	nontarget	11.000000	na
50.508191	0.040793	61.000000	nontarget	12.000000	na
50.548984	0.049613	61.000000	nontarget	13.000000	na
50.598598	0.042646	61.000000	nontarget	14.000000	na
50.641244	0.041144	61.000000	nontarget	15.000000	na
50.682388	0.042275	61.000000	nontarget	16.000000	na
50.724663	0.040644	62.000000	nontarget	1.000000	na
50.765307	0.042625	62.000000	nontarget	2.000000	na
50.807931	0.040195	62.000000	nontarget	3.000000	na
50.848126	0.043252	62.000000	nontarget	4.000000	50.857204
50.891378	0.040086	62.000000	nontarget	5.000000	na
50.931464	0.042712	62.000000	nontarget	6.000000	na
50.974175	0.041574	62.000000	nontarget	7.000000	na
51.015750	0.042210	62.000000	nontarget	8.000000	na
51.057960	0.039857	62.000000	nontarget	9.000000	na
51.097817	0.043817	62.000000	nontarget	10.000000	na
51.141634	0.039690	62.000000	nontarget	11.000000	na
51.181324	0.042496	62.000000	nontarget	12.000000	na
51.223820	0.040826	62.000000	nontarget	13.000000	na
51.264646	0.043045	62.000000	nontarget	14.000000	na
51.307691	0.041008	62.000000	nontarget	15.000000	na
51.348700	0.042220	62.000000	nontarget	16.000000	na
51.390920	0.040318	63.000000	nontarget	1.000000	na
51.431238	0.043692	63.000000	nontarget	2.000000	na
51.474930	0.039896	63.000000	nontarget	3.000000	na
51.514826	0.043058	63.000000	nontarget	4.000000	na
51.557883	0.041119	63.000000	nontarget	5.000000	51.579561
51.599002	0.042038	63.000000	nontarget	6.000000	na
51.641040	0.040069	63.000000	nontarget	7.000000	na
51.681109	0.043006	63.000000	nontarget	8.000000	na
51.724115	0.040523	63.000000	nontarget	9.000000	na
51.764639	0.042851	63.000000	nontarget	10.000000	na
51.807490	0.040319	63.000000	nontarget	11.000000	na
51.847809	0.043911	63.000000	nontarget	12.000000	na
51.891720	0.040027	63.000000	nontarget	13.000000	na
51.931746	0.042262	63.000000	nontarget	14.000000	na
51.974008	0.040900	63.000000	nontarget	15.000000	na
52.014908	0.042904	63.000000	nontarget	16.000000	na
52.057813	0.040867	64.000000	nontarget	1.000000	na
52.098680	0.042486	64.000000	nontarget	2.000000	na
52.141166	0.041198	64.000000	nontarget	3.000000	na
52.182364	0.042219	64.000000	nontarget	4.000000	na
52.224583	0.040931	64.000000	nontarget	5.000000	na
52.265514	0.042240	64.000000	nontarget	6.000000	na
52.307754	0.040932	64.000000	nontarget	7.000000	na
52.348686	0.042572	64.000000	nontarget	8.000000	na
52.391258	0.040978	64.000000	nontarget	9.000000	52.419698
52.432237	0.042006	64.000000	nontarget	10.000000	na
52.474243	0.041011	64.000000	nontarget	11.000000	na
52.515254	0.042798	64.000000	nontarget	12.000000	na
52.558052	0.040661	64.000000	nontarget	13.000000	na
52.598714	0.041938	64.000000	nontarget	14.000000	na
52.640652	0.041315	64.000000	nontarget	15.000000	na
52.681967	0.041982	64.000000	nontarget	16.000000	na
52.723949	0.041513	65.000000	nontarget	1.000000	na
52.765461	0.042128	65.000000	nontarget	2.000000	na
52.807589	0.040097	65.000000	nontarget	3.000000	na
52.847686	0.043560	65.000000	nontarget	4.000000	na
52.891245	0.040002	65.000000	nontarget	5.000000	na
52.931247	0.043124	65.000000	nontarget	6.000000	na
52.974372	0.040798	65.000000	nontarget	7.000000	na
53.015170	0.042746	65.000000	nontarget	8.000000	na
53.057915	0.040757	65.000000	nontarget	9.000000	na
53.098672	0.042580	65.000000	nontarget	10.000000	na
53.141252	0.039929	65.000000	nontarget	11.000000	na
53.181182	0.042658	65.000000	nontarget	12.000000	53.206067
53.223839	0.041499	65.000000	nontarget	13.000000	na
53.265338	0.042547	65.000000	nontarget	14.000000	na
53.307885	0.040789	65.000000	nontarget	15.000000	na
53.348674	0.042209	65.000000	nontarget	16.000000	na
53.390883	0.041136	66.000000	nontarget	1.000000	na
53.432018	0.042062	66.000000	nontarget	2.000000	na
53.474081	0.040947	66.000000	nontarget	3.000000	na
53.515028	0.043063	66.000000	nontarget	4.000000	na
53.558090	0.040730	66.000000	nontarget	5.000000	na
53.598820	0.042380	66.000000	nontarget	6.000000	na
53.641200	0.040575	66.000000	nontarget	7.000000	na
53.681775	0.043015	66.000000	nontarget	8.000000	na
53.724790	0.040348	66.000000	nontarget	9.000000	na
53.765138	0.042596	66.000000	nontarget	10.000000	na
53.807734	0.040105	66.000000	nontarget	11.000000	na
53.847839	0.043123	66.000000	nontarget	12.000000	na
53.890962	0.049430	66.000000	nontarget	13.000000	53.927620
53.940392	0.041605	66.000000	nontarget	14.000000	na
53.981997	0.042014	66.000000	nontarget	15.000000	na
54.024011	0.040570	66.000000	nontarget	16.000000	na
54.064581	0.042558	67.000000	nontarget	1.000000	54.069386
54.107139	0.041337	67.000000	nontarget	2.000000	na
54.148476	0.042199	67.000000	nontarget	3.000000	na
54.190675	0.041224	67.000000	nontarget	4.000000	na
54.231899	0.042362	67.000000	nontarget	5.000000	na
54.274261	0.040573	67.000000	nontarget	6.000000	na
54.314834	0.042249	67.000000	nontarget	7.000000	na
54.357082	0.040923	67.000000	nontarget	8.000000	na
54.398005	0.043090	67.000000	nontarget	9.000000	na
54.441095	0.040917	67.000000	nontarget	10.000000	na
54.482013	0.041970	67.000000	nontarget	11.000000	na
54.523983	0.041587	67.000000	nontarget	12.000000	na
54.565570	0.042163	67.000000	nontarget	13.000000	na
54.607733	0.040536	67.000000	nontarget	14.000000	na
54.648269	0.041953	67.000000	nontarget	15.000000	na
54.690222	0.041549	67.000000	nontarget	16.000000	54.695105
54.731771	0.042711	68.000000	nontarget	1.000000	54.737098
54.774482	0.040495	68.000000	nontarget	2.000000	na
54.814978	0.041780	68.000000	nontarget	3.000000	na
54.856757	0.041242	68.000000	nontarget	4.000000	na
54.898000	0.042709	68.000000	nontarget	5.000000	na
54.940709	0.041214	68.000000	nontarget	6.000000	na
54.981923	0.041583	68.000000	nontarget	7.000000	na
55.023506	0.040939	68.000000	nontarget	8.000000	na
55.064445	0.043106	68.000000	nontarget	9.000000	na
55.107551	0.040369	68.000000	nontarget	10.000000	na
55.147921	0.042676	68.000000	nontarget	11.000000	na
55.190597	0.041239	68.000000	nontarget	12.000000	na
55.231836	0.041654	68.000000	nontarget	13.000000	na
55.273490	0.041823	68.000000	nontarget	14.000000	na
55.315314	0.042027	68.000000	nontarget	15.000000	na
55.357341	0.041340	68.000000	nontarget	16.000000	na
55.398681	0.041767	69.000000	nontarget	1.000000	na
55.440449	0.040845	69.000000	nontarget	2.000000	na
55.481293	0.042563	69.000000	nontarget	3.000000	na
55.523857	0.041255	69.000000	nontarget	4.000000	na
55.565112	0.042426	69.000000	nontarget	5.000000	55.569882
55.607537	0.040923	69.000000	nontarget	6.000000	na
55.648460	0.041770	69.000000	nontarget	7.000000	na
55.690230	0.041025	69.000000	nontarget	8.000000	na
55.731255	0.042820	69.000000	nontarget	9.000000	na
55.774075	0.040319	69.000000	nontarget	10.000000	na
55.814395	0.042979	69.000000	nontarget	11.000000	na
55.857374	0.040821	69.000000	nontarget	12.000000	na
55.898195	0.042294	69.000000	nontarget	13.000000	na
55.940488	0.041479	69.000000	nontarget	14.000000	na
55.981967	0.041980	69.000000	nontarget	15.000000	na
56.023947	0.041316	69.000000	nontarget	16.000000	na
56.065262	0.042228	70.000000	nontarget	1.000000	na
56.107491	0.040968	70.000000	nontarget	2.000000	na
56.148458	0.042078	70.000000	nontarget	3.000000	na
56.190536	0.040788	70.000000	nontarget	4.000000	na
56.231325	0.042237	70.000000	nontarget	5.000000	na
56.273562	0.041335	70.000000	nontarget	6.000000	na
56.314897	0.041638	70.000000	nontarget	7.000000	na
56.356535	0.041745	70.000000	nontarget	8.000000	56.361417
56.398280	0.041751	70.000000	nontarget	9.000000	na
56.440031	0.041789	70.000000	nontarget	10.000000	na
56.481820	0.042319	70.000000	nontarget	11.000000	na
56.524138	0.041127	70.000000	nontarget	12.000000	na
56.565265	0.041835	70.000000	nontarget	13.000000	na
56.607101	0.041273	70.000000	nontarget	14.000000	na
56.648373	0.041657	70.000000	nontarget	15.000000	na
56.690031	0.041910	70.000000	nontarget	16.000000	na
56.731940	0.042017	71.000000	nontarget	1.000000	na
56.773957	0.041606	71.000000	nontarget	2.000000	na
56.815563	0.041314	71.000000	nontarget	3.000000	na
56.856877	0.041521	71.000000	nontarget	4.000000	na
56.898398	0.042252	71.000000	nontarget	5.000000	na
56.940650	0.041257	71.000000	nontarget	6.000000	na
56.981908	0.042643	71.000000	nontarget	7.000000	na
57.024551	0.040346	71.000000	nontarget	8.000000	na
57.064897	0.042763	71.000000	nontarget	9.000000	57.089810
57.107660	0.041111	71.000000	nontarget	10.000000	na
57.148770	0.041979	71.000000	nontarget	11.000000	na
57.190749	0.040498	71.000000	nontarget	12.000000	na
57.231248	0.041939	71.000000	nontarget	13.000000	na
57.273186	0.042094	71.000000	nontarget	14.000000	na
57.315280	0.042344	71.000000	nontarget	15.000000	na
57.357624	0.040887	71.000000	nontarget	16.000000	na
57.398511	0.041404	72.000000	nontarget	1.000000	na
57.439915	0.041284	72.000000	nontarget	2.000000	na
57.481199	0.043244	72.000000	nontarget	3.000000	na
57.524443	0.040822	72.000000	nontarget	4.000000	na
57.565265	0.041987	72.000000	nontarget	5.000000	na
57.607252	0.041275	72.000000	nontarget	6.000000	na
57.648527	0.041424	72.000000	nontarget	7.000000	na
57.689952	0.041122	72.000000	nontarget	8.000000	na
57.731073	0.043117	72.000000	nontarget	9.000000	na
57.774191	0.041023	72.000000	nontarget	10.000000	na
57.815214	0.041509	72.000000	nontarget	11.000000	na
57.856723	0.041867	72.000000	nontarget	12.000000	57.862561
57.898590	0.042304	72.000000	nontarget	13.000000	na
57.940894	0.040367	72.000000	nontarget	14.000000	na
57.981260	0.042870	72.000000	nontarget	15.000000	na
58.024130	0.041029	72.000000	nontarget	16.000000	na
58.065159	0.042059	73.000000	target	1.000000	na
58.107218	0.040756	73.000000	target	2.000000	na
58.147974	0.042265	73.000000	target	3.000000	na
58.190240	0.041854	73.000000	target	4.000000	na
58.232094	0.041711	73.000000	target	5.000000	na
58.273805	0.041257	73.000000	target	6.000000	na
58.315062	0.042841	73.000000	target	7.000000	na
58.357904	0.040162	73.000000	target	8.000000	na
58.398066	0.042230	73.000000	target	9.000000	na
58.440296	0.040742	73.000000	target	10.000000	na
58.481037	0.042671	73.000000	target	11.000000	na
58.523708	0.040631	73.000000	target	12.000000	na
58.564339	0.042229	73.000000	target	13.000000	na
58.606569	0.041938	73.000000	target	14.000000	na
58.648507	0.041656	73.000000	target	15.000000	na
58.690163	0.041727	73.000000	target	16.000000	na
58.731891	0.042069	74.000000	nontarget	1.000000	na
58.773960	0.041305	74.000000	nontarget	2.000000	na
58.815265	0.041708	74.000000	nontarget	3.000000	na
58.856973	0.041794	74.000000	nontarget	4.000000	na
58.898767	0.041934	74.000000	nontarget	5.000000	na
58.940701	0.040380	74.000000	nontarget	6.000000	58.970383
58.981081	0.043087	74.000000	nontarget	7.000000	na
59.024168	0.041000	74.000000	nontarget	8.000000	na
59.065168	0.042112	74.000000	nontarget	9.000000	na
59.107279	0.041612	74.000000	nontarget	10.000000	na
59.148891	0.041089	74.000000	nontarget	11.000000	na
59.189980	0.041371	74.000000	nontarget	12.000000	na
59.231351	0.041898	74.000000	nontarget	13.000000	na
59.273250	0.041254	74.000000	nontarget	14.000000	na
59.314504	0.042892	74.000000	nontarget	15.000000	na
59.357396	0.040985	74.000000	nontarget	16.000000	na
59.398381	0.042704	75.000000	nontarget	1.000000	na
59.441085	0.040705	75.000000	nontarget	2.000000	na
59.481789	0.041757	75.000000	nontarget	3.000000	na
59.523546	0.041108	75.000000	nontarget	4.000000	na
59.564655	0.042686	75.000000	nontarget	5.000000	na
59.607340	0.040606	75.000000	nontarget	6.000000	na
59.647946	0.042879	75.000000	nontarget	7.000000	na
59.690825	0.040987	75.000000	nontarget	8.000000	na
59.731812	0.041450	75.000000	nontarget	9.000000	na
59.773262	0.041059	75.000000	nontarget	10.000000	na
59.814321	0.043492	75.000000	nontarget	11.000000	59.827649
59.857813	0.040708	75.000000	nontarget	12.000000	na
59.898521	0.042108	75.000000	nontarget	13.000000	na
59.940629	0.041429	75.000000	nontarget	14.000000	na
59.982058	0.041376	75.000000	nontarget	15.000000	na
60.023434	0.042004	75.000000	nontarget	16.000000	na
60.065438	0.041105	76.000000	nontarget	1.000000	na
60.106543	0.041146	76.000000	nontarget	2.000000	na
60.147689	0.043159	76.000000	nontarget	3.000000	na
60.190848	0.041068	76.000000	nontarget	4.000000	na
60.231916	0.042362	76.000000	nontarget	5.000000	na
60.274278	0.040472	76.000000	nontarget	6.000000	na
60.314750	0.042551	76.000000	nontarget	7.000000	na
60.357301	0.040778	76.000000	nontarget	8.000000	na
60.398079	0.042022	76.000000	nontarget	9.000000	na
60.440101	0.041941	76.000000	nontarget	10.000000	na
60.482042	0.042076	76.000000	nontarget	11.000000	na
60.524118	0.040972	76.000000	nontarget	12.000000	na
60.565090	0.041563	76.000000	nontarget	13.000000	na
60.606654	0.041901	76.000000	nontarget	14.000000	na
60.648554	0.042056	76.000000	nontarget	15.000000	na
60.690610	0.040565	76.000000	nontarget	16.000000	na
60.731175	0.042227	77.000000	nontarget	1.000000	na
60.773403	0.041275	77.000000	nontarget	2.000000	na
60.814678	0.042105	77.000000	nontarget	3.000000	na
60.856783	0.042047	77.000000	nontarget	4.000000	60.862214
60.898830	0.041659	77.000000	nontarget	5.000000	na
60.940489	0.041464	77.000000	nontarget	6.000000	na
60.981953	0.041867	77.000000	nontarget	7.000000	na
61.023820	0.041614	77.000000	nontarget	8.000000	na
61.065433	0.042123	77.000000	nontarget	9.000000	na
61.107557	0.040266	77.000000	nontarget	10.000000	na
61.147822	0.042631	77.000000	nontarget	11.000000	na
61.190453	0.041671	77.000000	nontarget	12.000000	na
61.232124	0.041144	77.000000	nontarget	13.000000	na
61.273269	0.041052	77.000000	nontarget	14.000000	na
61.314321	0.042928	77.000000	nontarget	15.000000	na
61.357249	0.040836	77.000000	nontarget	16.000000	na
61.398086	0.041689	78.000000	nontarget	1.000000	na
61.439775	0.042352	78.000000	nontarget	2.000000	na
61.482127	0.041922	78.000000	nontarget	3.000000	na
61.524049	0.040956	78.000000	nontarget	4.000000	na
61.565005	0.042183	78.000000	nontarget	5.000000	61.590495
61.607187	0.041191	78.000000	nontarget	6.000000	na
61.648379	0.042098	78.000000	nontarget	7.000000	na
61.690476	0.041257	78.000000	nontarget	8.000000	na
61.731733	0.042057	78.000000	nontarget	9.000000	na
61.773790	0.040991	78.000000	nontarget	10.000000	na
61.814781	0.042821	78.000000	nontarget	11.000000	na
61.857602	0.040924	78.000000	nontarget	12.000000	na
61.898526	0.041924	78.000000	nontarget	13.000000	na
61.940450	0.041437	78.000000	nontarget	14.000000	na
61.981886	0.041760	78.000000	nontarget	15.000000	na
62.023646	0.041586	78.000000	nontarget	16.000000	na
62.065233	0.042441	79.000000	nontarget	1.000000	na
62.107674	0.040586	79.000000	nontarget	2.000000	na
62.148260	0.041484	79.000000	nontarget	3.000000	na
62.189743	0.042371	79.000000	nontarget	4.000000	na
62.232114	0.041882	79.000000	nontarget	5.000000	na
62.273996	0.040806	79.000000	nontarget	6.000000	na
62.314802	0.042238	79.000000	nontarget	7.000000	na
62.357040	0.041396	79.000000	nontarget	8.000000	62.376481
62.398436	0.041859	79.000000	nontarget	9.000000	na
62.440295	0.041232	79.000000	nontarget	10.000000	na
62.481526	0.042235	79.000000	nontarget	11.000000	na
62.523761	0.041579	79.000000	nontarget	12.000000	na
62.565340	0.041819	79.000000	nontarget	13.000000	na
62.607158	0.040853	79.000000	nontarget	14.000000	na
62.648011	0.042454	79.000000	nontarget	15.000000	na
62.690465	0.040748	79.000000	nontarget	16.000000	na
62.731213	0.042649	80.000000	nontarget	1.000000	na
62.773862	0.040985	80.000000	nontarget	2.000000	na
62.814847	0.041853	80.000000	nontarget	3.000000	na
62.856700	0.041092	80.000000	nontarget	4.000000	na
62.897792	0.041883	80.000000	nontarget	5.000000	na
62.939675	0.041655	80.000000	nontarget	6.000000	na
62.981330	0.042073	80.000000	nontarget	7.000000	na
63.023403	0.042197	80.000000	nontarget	8.000000	na
63.065600	0.041478	80.000000	nontarget	9.000000	na
63.107078	0.041902	80.000000	nontarget	10.000000	63.112713
63.148980	0.041332	80.000000	nontarget	11.000000	na
63.190312	0.041953	80.000000	nontarget	12.000000	na
63.232265	0.041049	80.000000	nontarget	13.000000	na
63.273313	0.041742	80.000000	nontarget	14.000000	na
63.315055	0.042339	80.000000	nontarget	15.000000	na
63.357395	0.040390	80.000000	nontarget	16.000000	na
63.397785	0.042740	81.000000	nontarget	1.000000	na
63.440525	0.041093	81.000000	nontarget	2.000000	na
63.481618	0.042469	81.000000	nontarget	3.000000	na
63.524087	0.049797	81.000000	nontarget	4.000000	na
63.573883	0.041367	81.000000	nontarget	5.000000	na
63.615251	0.041740	81.000000	nontarget	6.000000	na
63.656991	0.041701	81.000000	nontarget	7.000000	na
63.698692	0.041580	81.000000	nontarget	8.000000	na
63.740271	0.041068	81.000000	nontarget	9.000000	na
63.781340	0.042286	81.000000	nontarget	10.000000	na
63.823626	0.041284	81.000000	nontarget	11.000000	na
63.864911	0.041346	81.000000	nontarget	12.000000	na
63.906257	0.042526	81.000000	nontarget	13.000000	63.927445
63.948782	0.040816	81.000000	nontarget	14.000000	na
63.989598	0.041551	81.000000	nontarget	15.000000	na
64.031149	0.042854	81.000000	nontarget	16.000000	na
64.074003	0.040928	82.000000	nontarget	1.000000	na
64.114931	0.042153	82.000000	nontarget	2.000000	na
64.157084	0.041583	82.000000	nontarget	3.000000	na
64.198667	0.041547	82.000000	nontarget	4.000000	na
64.240215	0.040817	82.000000	nontarget	5.000000	na
64.281031	0.042177	82.000000	nontarget	6.000000	na
64.323208	0.041172	82.000000	nontarget	7.000000	na
64.364380	0.042087	82.000000	nontarget	8.000000	na
64.406467	0.042056	82.000000	nontarget	9.000000	na
64.448523	0.041850	82.000000	nontarget	10.000000	na
64.490374	0.040883	82.000000	nontarget	11.000000	na
64.531256	0.042420	82.000000	nontarget	12.000000	na
64.573676	0.041279	82.000000	nontarget	13.000000	na
64.614955	0.042152	82.000000	nontarget	14.000000	na
64.657106	0.041411	82.000000	nontarget	15.000000	na
64.698517	0.041695	82.000000	nontarget	16.000000	na
64.740212	0.041753	83.000000	nontarget	1.000000	na
64.781965	0.041765	83.000000	nontarget	2.000000	64.787302
64.823729	0.041377	83.000000	nontarget	3.000000	na
64.865106	0.041151	83.000000	nontarget	4.000000	na
64.906257	0.041679	83.000000	nontarget	5.000000	na
64.947936	0.041661	83.000000	nontarget	6.000000	na
64.989597	0.042617	83.000000	nontarget	7.000000	na
65.032214	0.040412	83.000000	nontarget	8.000000	na
65.072626	0.042987	83.000000	nontarget	9.000000	na
65.115613	0.041415	83.000000	nontarget	10.000000	na
65.157028	0.041418	83.000000	nontarget	11.000000	na
65.198446	0.040907	83.000000	nontarget	12.000000	na
65.239353	0.042541	83.000000	nontarget	13.000000	na
65.281894	0.041872	83.000000	nontarget	14.000000	na
65.323766	0.041533	83.000000	nontarget	15.000000	na
65.365299	0.041790	83.000000	nontarget	16.000000	na
65.407088	0.041478	84.000000	nontarget	1.000000	na
65.448566	0.041068	84.000000	nontarget	2.000000	na
65.489634	0.042005	84.000000	nontarget	3.000000	na
65.531639	0.041781	84.000000	nontarget	4.000000	65.536953
65.573420	0.041005	84.000000	nontarget	5.000000	na
65.614425	0.042240	84.000000	nontarget	6.000000	na
65.656665	0.041106	84.000000	nontarget	7.000000	na
65.697771	0.042121	84.000000	nontarget	8.000000	na
65.739892	0.041942	84.000000	nontarget	9.000000	na
65.781834	0.041364	84.000000	nontarget	10.000000	na
65.823198	0.041818	84.000000	nontarget	11.000000	na
65.865015	0.041912	84.000000	nontarget	12.000000	na
65.906928	0.041364	84.000000	nontarget	13.000000	na
65.948292	0.041366	84.000000	nontarget	14.000000	na
65.989658	0.042145	84.000000	nontarget	15.000000	na
66.031803	0.041680	84.000000	nontarget	16.000000	na
66.073483	0.041614	85.000000	nontarget	1.000000	na
66.115096	0.040903	85.000000	nontarget	2.000000	na
66.155999	0.042392	85.000000	nontarget	3.000000	na
66.198391	0.042169	85.000000	nontarget	4.000000	na
66.240560	0.040609	85.000000	nontarget	5.000000	na
66.281168	0.041527	85.000000	nontarget	6.000000	na
66.322696	0.041662	85.000000	nontarget	7.000000	na
66.364358	0.042234	85.000000	nontarget	8.000000	na
66.406592	0.041845	85.000000	nontarget	9.000000	na
66.448437	0.041123	85.000000	nontarget	10.000000	na
66.489560	0.042189	85.000000	nontarget	11.000000	na
66.531749	0.041144	85.000000	nontarget	12.000000	66.549167
66.572893	0.042455	85.000000	nontarget	13.000000	na
66.615348	0.041807	85.000000	nontarget	14.000000	na
66.657155	0.040778	85.000000	nontarget	15.000000	na
66.697933	0.042317	85.000000	nontarget	16.000000	na
66.740250	0.040682	86.000000	nontarget	1.000000	na
66.780933	0.041761	86.000000	nontarget	2.000000	na
66.822694	0.042689	86.000000	nontarget	3.000000	na
66.865383	0.041489	86.000000	nontarget	4.000000	na
66.906872	0.040919	86.000000	nontarget	5.000000	na
66.947792	0.041527	86.000000	nontarget	6.000000	na
66.989319	0.042478	86.000000	nontarget	7.000000	na
67.031797	0.041925	86.000000	nontarget	8.000000	na
67.073722	0.041254	86.000000	nontarget	9.000000	na
67.114976	0.041689	86.000000	nontarget	10.000000	na
67.156665	0.041267	86.000000	nontarget	11.000000	na
67.197933	0.042196	86.000000	nontarget	12.000000	na
67.240129	0.042002	86.000000	nontarget	13.000000	na
67.282131	0.041637	86.000000	nontarget	14.000000	na
67.323768	0.041336	86.000000	nontarget	15.000000	na
67.365104	0.041122	86.000000	nontarget	16.000000	na
67.406226	0.041824	87.000000	nontarget	1.000000	67.438842
67.448049	0.041886	87.000000	nontarget	2.000000	na
67.489935	0.042309	87.000000	nontarget	3.000000	na
67.532244	0.041340	87.000000	nontarget	4.000000	na
67.573584	0.041443	87.000000	nontarget	5.000000	na
67.615027	0.041468	87.000000	nontarget	6.000000	na
67.656495	0.041995	87.000000	nontarget	7.000000	na
67.698489	0.041241	87.000000	nontarget	8.000000	na
67.739731	0.041300	87.000000	nontarget	9.000000	na
67.781031	0.041496	87.000000	nontarget	10.000000	na
67.822528	0.042623	87.000000	nontarget	11.000000	na
67.865151	0.041635	87.000000	nontarget	12.000000	na
67.906786	0.041694	87.000000	nontarget	13.000000	na
67.948481	0.041777	87.000000	nontarget	14.000000	na
67.990258	0.041014	87.000000	nontarget	15.000000	na
68.031271	0.041899	87.000000	nontarget	16.000000	na
68.073171	0.042074	88.000000	target	1.000000	na
68.115245	0.041332	88.000000	target	2.000000	na
68.156577	0.041428	88.000000	target	3.000000	na
68.198005	0.042132	88.000000	target	4.000000	na
68.240137	0.041642	88.000000	target	5.000000	na
68.281778	0.041962	88.000000	target	6.000000	na
68.323741	0.040487	88.000000	target	7.000000	na
68.364227	0.042713	88.000000	target	8.000000	na
68.406940	0.041558	88.000000	target	9.000000	na
68.448498	0.041256	88.000000	target	10.000000	na
68.489753	0.042253	88.000000	target	11.000000	na
68.532006	0.041291	88.000000	target	12.000000	na
68.573297	0.041824	88.000000	target	13.000000	na
68.615121	0.041234	88.000000	target	14.000000	na
68.656355	0.041794	88.000000	target	15.000000	na
68.698149	0.042091	88.000000	target	16.000000	na
68.740240	0.041728	89.000000	target	1.000000	na
68.781967	0.041160	89.000000	target	2.000000	na
68.823127	0.042240	89.000000	target	3.000000	na
68.865367	0.040973	89.000000	target	4.000000	na
68.906340	0.042266	89.000000	target	5.000000	na
68.948606	0.041274	89.000000	target	6.000000	na
68.989880	0.041142	89.000000	target	7.000000	na
69.031022	0.042416	89.000000	target	8.000000	na
69.073439	0.041935	89.000000	target	9.000000	na
69.115374	0.041282	89.000000	target	10.000000	na
69.156656	0.041137	89.000000	target	11.000000	na
69.197793	0.041647	89.000000	target	12.000000	na
69.239440	0.042375	89.000000	target	13.000000	na
69.281815	0.041115	89.000000	target	14.000000	na
69.322931	0.041737	89.000000	target	15.000000	na
69.364668	0.041714	89.000000	target	16.000000	na
69.406381	0.041546	90.000000	nontarget	1.000000	69.424665
69.447927	0.042039	90.000000	nontarget	2.000000	na
69.489967	0.042121	90.000000	nontarget	3.000000	na
69.532088	0.041113	90.000000	nontarget	4.000000	na
69.573200	0.041261	90.000000	nontarget	5.000000	na
69.614462	0.041593	90.000000	nontarget	6.000000	na
69.656055	0.041849	90.000000	nontarget	7.000000	na
69.697904	0.042135	90.000000	nontarget	8.000000	na
69.740039	0.041209	90.000000	nontarget	9.000000	na
69.781247	0.042061	90.000000	nontarget	10.000000	na
69.823308	0.040868	90.000000	nontarget	11.000000	na
69.864176	0.042146	90.000000	nontarget	12.000000	na
69.906322	0.042071	90.000000	nontarget	13.000000	na
69.948393	0.040767	90.000000	nontarget	14.000000	na
69.989160	0.042599	90.000000	nontarget	15.000000	na
70.031760	0.041206	90.000000	nontarget	16.000000	na
70.072965	0.042097	91.000000	nontarget	1.000000	na
70.115062	0.041656	91.000000	nontarget	2.000000	na
70.156718	0.041066	91.000000	nontarget	3.000000	na
70.197784	0.042667	91.000000	nontarget	4.000000	70.211192
70.240451	0.040429	91.000000	nontarget	5.000000	na
70.280880	0.041965	91.000000	nontarget	6.000000	na
70.322845	0.042084	91.000000	nontarget	7.000000	na
70.364929	0.041632	91.000000	nontarget	8.000000	na
70.406561	0.041821	91.000000	nontarget	9.000000	na
70.448382	0.041630	91.000000	nontarget	10.000000	na
70.490012	0.041125	91.000000	nontarget	11.000000	na
70.531137	0.041582	91.000000	nontarget	12.000000	na
70.572718	0.042707	91.000000	nontarget	13.000000	na
70.615426	0.040472	91.000000	nontarget	14.000000	na
70.655897	0.041543	91.000000	nontarget	15.000000	na
70.697440	0.042522	91.000000	nontarget	16.000000	na
70.739962	0.041416	92.000000	nontarget	1.000000	na
70.781378	0.041975	92.000000	nontarget	2.000000	na
70.823354	0.041888	92.000000	nontarget	3.000000	na
70.865241	0.041468	92.000000	nontarget	4.000000	na
70.906709	0.041766	92.000000	nontarget	5.000000	na
70.948475	0.040487	92.000000	nontarget	6.000000	na
70.988963	0.042022	92.000000	nontarget	7.000000	71.018005
71.030984	0.042278	92.000000	nontarget	8.000000	na
71.073262	0.041771	92.000000	nontarget	9.000000	na
71.115033	0.041478	92.000000	nontarget	10.000000	na
71.156511	0.041442	92.000000	nontarget	11.000000	na
71.197954	0.041050	92.000000	nontarget	12.000000	na
71.239004	0.042032	92.000000	nontarget	13.000000	na
71.281036	0.042030	92.000000	nontarget	14.000000	na
71.323066	0.042295	92.000000	nontarget	15.000000	na
71.365361	0.041415	92.000000	nontarget	16.000000	na
71.406776	0.041385	93.000000	nontarget	1.000000	na
71.448160	0.041776	93.000000	nontarget	2.000000	na
71.489936	0.041953	93.000000	nontarget	3.000000	na
71.531889	0.040785	93.000000	nontarget	4.000000	na
71.572674	0.042545	93.000000	nontarget	5.000000	na
71.615219	0.040546	93.000000	nontarget	6.000000	na
71.655765	0.042170	93.000000	nontarget	7.000000	na
71.697936	0.041286	93.000000	nontarget	8.000000	na
71.739222	0.042009	93.000000	nontarget	9.000000	na
71.781231	0.042024	93.000000	nontarget	10.000000	na
71.823255	0.041866	93.000000	nontarget	11.000000	na
71.865121	0.041033	93.000000	nontarget	12.000000	na
71.906154	0.042208	93.000000	nontarget	13.000000	71.941508
71.948363	0.041275	93.000000	nontarget	14.000000	na
71.989637	0.041656	93.000000	nontarget	15.000000	na
72.031293	0.041341	93.000000	nontarget	16.000000	na
72.072634	0.042581	94.000000	nontarget	1.000000	72.077803
72.115215	0.041261	94.000000	nontarget	2.000000	na
72.156476	0.041246	94.000000	nontarget	3.000000	na
72.197722	0.041965	94.000000	nontarget	4.000000	na
72.239688	0.042210	94.000000	nontarget	5.000000	na
72.281897	0.041592	94.000000	nontarget	6.000000	na
72.323489	0.041276	94.000000	nontarget	7.000000	na
72.364765	0.041239	94.000000	nontarget	8.000000	na
72.406004	0.042533	94.000000	nontarget	9.000000	na
72.448537	0.041515	94.000000	nontarget	10.000000	na
72.490052	0.040847	94.000000	nontarget	11.000000	na
72.530899	0.041443	94.000000	nontarget	12.000000	na
72.572342	0.042741	94.000000	nontarget	13.000000	na
72.615083	0.040576	94.000000	nontarget	14.000000	na
72.655659	0.042607	94.000000	nontarget	15.000000	na
72.698266	0.041490	94.000000	nontarget	16.000000	na
72.739757	0.041551	95.000000	nontarget	1.000000	na
72.781307	0.041301	95.000000	nontarget	2.000000	na
72.822609	0.041687	95.000000	nontarget	3.000000	na
72.864296	0.041392	95.000000	nontarget	4.000000	na
72.905688	0.042842	95.000000	nontarget	5.000000	72.933961
72.948529	0.040583	95.000000	nontarget	6.000000	na
72.989112	0.041953	95.000000	nontarget	7.000000	na
73.031065	0.041408	95.000000	nontarget	8.000000	na
73.072473	0.042601	95.000000	nontarget	9.000000	na
73.115074	0.041717	95.000000	nontarget	10.000000	na
73.156791	0.040715	95.000000	nontarget	11.000000	na
73.197506	0.042284	95.000000	nontarget	12.000000	na
73.239790	0.042026	95.000000	nontarget	13.000000	na
73.281817	0.041283	95.000000	nontarget	14.000000	na
73.323100	0.041724	95.000000	nontarget	15.000000	na
73.364824	0.041441	95.000000	nontarget	16.000000	na
73.406265	0.042086	96.000000	nontarget	1.000000	na
73.448351	0.040726	96.000000	nontarget	2.000000	na
73.489077	0.042637	96.000000	nontarget	3.000000	na
73.531714	0.041337	96.000000	nontarget	4.000000	na
73.573051	0.042009	96.000000	nontarget	5.000000	na
73.615060	0.041366	96.000000	nontarget	6.000000	na
73.656427	0.041976	96.000000	nontarget	7.000000	73.683912
73.698403	0.041292	96.000000	nontarget	8.000000	na
73.739695	0.041038	96.000000	nontarget	9.000000	na
73.780733	0.042758	96.000000	nontarget	10.000000	na
73.823491	0.041854	96.000000	nontarget	11.000000	na
73.865345	0.040250	96.000000	nontarget	12.000000	na
73.905595	0.042791	96.000000	nontarget	13.000000	na
73.948386	0.041038	96.000000	nontarget	14.000000	na
73.989424	0.041515	96.000000	nontarget	15.000000	na
74.030939	0.042169	96.000000	nontarget	16.000000	na
74.073108	0.041845	97.000000	nontarget	1.000000	na
74.114953	0.041294	97.000000	nontarget	2.000000	na
74.156247	0.041607	97.000000	nontarget	3.000000	na
74.197854	0.042031	97.000000	nontarget	4.000000	na
74.239885	0.041328	97.000000	nontarget	5.000000	na
74.281214	0.041878	97.000000	nontarget	6.000000	na
74.323092	0.041683	97.000000	nontarget	7.000000	na
74.364775	0.041278	97.000000	nontarget	8.000000	na
74.406053	0.042282	97.000000	nontarget	9.000000	na
74.448334	0.041580	97.000000	nontarget	10.000000	na
74.489914	0.040986	97.000000	nontarget	11.000000	na
74.530900	0.042163	97.000000	nontarget	12.000000	na
74.573063	0.042256	97.000000	nontarget	13.000000	na
74.615320	0.040686	97.000000	nontarget	14.000000	74.639001
74.656005	0.041465	97.000000	nontarget	15.000000	na
74.697470	0.041588	97.000000	nontarget	16.000000	na
74.739059	0.042868	98.000000	nontarget	1.000000	74.744285
74.781926	0.040973	98.000000	nontarget	2.000000	na
74.822899	0.042138	98.000000	nontarget	3.000000	na
74.865037	0.041473	98.000000	nontarget	4.000000	na
74.906511	0.041958	98.000000	nontarget	5.000000	na
74.948468	0.041246	98.000000	nontarget	6.000000	na
74.989714	0.041640	98.000000	nontarget	7.000000	na
75.031355	0.041802	98.000000	nontarget	8.000000	na
75.073157	0.041903	98.000000	nontarget	9.000000	na
75.115060	0.040603	98.000000	nontarget	10.000000	na
75.155663	0.042354	98.000000	nontarget	11.000000	na
75.198016	0.041091	98.000000	nontarget	12.000000	na
75.239108	0.041970	98.000000	nontarget	13.000000	na
75.281078	0.041911	98.000000	nontarget	14.000000	na
75.322988	0.042028	98.000000	nontarget	15.000000	na
75.365016	0.041389	98.000000	nontarget	16.000000	na
75.406406	0.041287	99.000000	nontarget	1.000000	na
75.447693	0.042021	99.000000	nontarget	2.000000	na
75.489714	0.041968	99.000000	nontarget	3.000000	na
75.531682	0.040684	99.000000	nontarget	4.000000	na
75.572366	0.042977	99.000000	nontarget	5.000000	na
75.615343	0.041161	99.000000	nontarget	6.000000	75.620834
75.656504	0.041988	99.000000	nontarget	7.000000	na
75.698492	0.040779	99.000000	nontarget	8.000000	na
75.739271	0.042324	99.000000	nontarget	9.000000	na
75.781596	0.040843	99.000000	nontarget	10.000000	na
75.822439	0.042382	99.000000	nontarget	11.000000	na
75.864821	0.041095	99.000000	nontarget	12.000000	na
75.905916	0.042207	99.000000	nontarget	13.000000	na
75.948123	0.041546	99.000000	nontarget	14.000000	na
75.989669	0.041786	99.000000	nontarget	15.000000	na
76.031455	0.041346	99.000000	nontarget	16.000000	na
76.072801	0.042427	100.000000	nontarget	1.000000	na
76.115228	0.041092	100.000000	nontarget	2.000000	na
76.156320	0.041975	100.000000	nontarget	3.000000	na
76.198295	0.040797	100.000000	nontarget	4.000000	na
76.239092	0.042013	100.000000	nontarget	5.000000	na
76.281105	0.041753	100.000000	nontarget	6.000000	na
76.322858	0.042177	100.000000	nontarget	7.000000	na
76.365035	0.041030	100.000000	nontarget	8.000000	na
76.406065	0.042318	100.000000	nontarget	9.000000	na
76.448383	0.041299	100.000000	nontarget	10.000000	na
76.489682	0.041984	100.000000	nontarget	11.000000	na
76.531666	0.041012	100.000000	nontarget	12.000000	76.558167
76.572678	0.042173	100.000000	nontarget	13.000000	na
76.614851	0.041355	100.000000	nontarget	14.000000	na
76.656206	0.041978	100.000000	nontarget	15.000000	na
76.698184	0.041384	100.000000	nontarget	16.000000	na
76.739568	0.042249	101.000000	nontarget	1.000000	na
76.781816	0.041282	101.000000	nontarget	2.000000	na
76.823098	0.041643	101.000000	nontarget	3.000000	na
76.864741	0.040921	101.000000	nontarget	4.000000	na
76.905662	0.042007	101.000000	nontarget	5.000000	na
76.947670	0.041396	101.000000	nontarget	6.000000	na
76.989066	0.041981	101.000000	nontarget	7.000000	na
77.031047	0.041269	101.000000	nontarget	8.000000	na
77.072316	0.042853	101.000000	nontarget	9.000000	na
77.115169	0.040862	101.000000	nontarget	10.000000	na
77.156031	0.042070	101.000000	nontarget	11.000000	na
77.198101	0.041790	101.000000	nontarget	12.000000	na
77.239891	0.041686	101.000000	nontarget	13.000000	na
77.281577	0.040678	101.000000	nontarget	14.000000	na
77.322255	0.042511	101.000000	nontarget	15.000000	na
77.364766	0.040668	101.000000	nontarget	16.000000	na
77.405434	0.042980	102.000000	nontarget	1.000000	na
77.448414	0.041129	102.000000	nontarget	2.000000	na
77.489542	0.041453	102.000000	nontarget	3.000000	77.511709
77.530995	0.042345	102.000000	nontarget	4.000000	na
77.573340	0.041831	102.000000	nontarget	5.000000	na
77.615171	0.040747	102.000000	nontarget	6.000000	na
77.655919	0.041708	102.000000	nontarget	7.000000	na
77.697627	0.042308	102.000000	nontarget	8.000000	na
77.739935	0.042024	102.000000	nontarget	9.000000	na
77.781958	0.041030	102.000000	nontarget	10.000000	na
77.822988	0.041753	102.000000	nontarget	11.000000	na
77.864741	0.041164	102.000000	nontarget	12.000000	na
77.905904	0.042433	102.000000	nontarget	13.000000	na
77.948337	0.040439	102.000000	nontarget	14.000000	na
77.988776	0.042849	102.000000	nontarget	15.000000	na
78.031625	0.041167	102.000000	nontarget	16.000000	na
78.072792	0.041750	103.000000	nontarget	1.000000	na
78.114542	0.041657	103.000000	nontarget	2.000000	na
78.156200	0.042147	103.000000	nontarget	3.000000	na
78.198347	0.040952	103.000000	nontarget	4.000000	na
78.239299	0.041757	103.000000	nontarget	5.000000	78.273227
78.281057	0.041477	103.000000	nontarget	6.000000	na
78.322534	0.042335	103.000000	nontarget	7.000000	na
78.364868	0.041289	103.000000	nontarget	8.000000	na
78.406157	0.041839	103.000000	nontarget	9.000000	na
78.447996	0.041275	103.000000	nontarget	10.000000	na
78.489271	0.042012	103.000000	nontarget	11.000000	na
78.531283	0.041403	103.000000	nontarget	12.000000	na
78.572686	0.042054	103.000000	nontarget	13.000000	na
78.614741	0.041051	103.000000	nontarget	14.000000	na
78.655792	0.042989	103.000000	nontarget	15.000000	na
78.698780	0.039941	103.000000	nontarget	16.000000	na
78.738721	0.042444	104.000000	nontarget	1.000000	na
78.781165	0.040748	104.000000	nontarget	2.000000	na
78.821913	0.043402	104.000000	nontarget	3.000000	na
78.865315	0.040813	104.000000	nontarget	4.000000	na
78.906128	0.042125	104.000000	nontarget	5.000000	na
78.948253	0.040501	104.000000	nontarget	6.000000	na
78.988754	0.042388	104.000000	nontarget	7.000000	na
79.031142	0.040865	104.000000	nontarget	8.000000	79.037387
79.072007	0.042120	104.000000	nontarget	9.000000	na
79.114127	0.042208	104.000000	nontarget	10.000000	na
79.156335	0.042075	104.000000	nontarget	11.000000	na
79.198411	0.041012	104.000000	nontarget	12.000000	na
79.239423	0.041789	104.000000	nontarget	13.000000	na
79.281211	0.040785	104.000000	nontarget	14.000000	na
79.321997	0.043055	104.000000	nontarget	15.000000	na
79.365051	0.040298	104.000000	nontarget	16.000000	na
79.405349	0.043079	105.000000	nontarget	1.000000	na
79.448429	0.040047	105.000000	nontarget	2.000000	na
79.488476	0.042830	105.000000	nontarget	3.000000	na
79.531305	0.040875	105.000000	nontarget	4.000000	na
79.572180	0.042022	105.000000	nontarget	5.000000	na
79.614202	0.042121	105.000000	nontarget	6.000000	na
79.656323	0.042387	105.000000	nontarget	7.000000	na
79.698710	0.040697	105.000000	nontarget	8.000000	na
79.739407	0.042350	105.000000	nontarget	9.000000	na
79.781757	0.040499	105.000000	nontarget	10.000000	na
79.822257	0.042061	105.000000	nontarget	11.000000	na
79.864317	0.040909	105.000000	nontarget	12.000000	na
79.905226	0.042907	105.000000	nontarget	13.000000	na
79.948132	0.040200	105.000000	nontarget	14.000000	na
79.988333	0.042597	105.000000	nontarget	15.000000	80.001949
80.030929	0.040805	105.000000	nontarget	16.000000	na
80.071734	0.042925	106.000000	nontarget	1.000000	80.076708
80.114659	0.041566	106.000000	nontarget	2.000000	na
80.156226	0.042226	106.000000	nontarget	3.000000	na
80.198452	0.040725	106.000000	nontarget	4.000000	na
80.239177	0.042544	106.000000	nontarget	5.000000	na
80.281721	0.041126	106.000000	nontarget	6.000000	na
80.322846	0.041983	106.000000	nontarget	7.000000	na
80.364829	0.041215	106.000000	nontarget	8.000000	na
80.406044	0.041979	106.000000	nontarget	9.000000	na
80.448024	0.040544	106.000000	nontarget	10.000000	na
80.488568	0.042596	106.000000	nontarget	11.000000	na
80.531164	0.041546	106.000000	nontarget	12.000000	na
80.572710	0.042197	106.000000	nontarget	13.000000	na
80.614907	0.040463	106.000000	nontarget	14.000000	na
80.655371	0.042934	106.000000	nontarget	15.000000	na
80.698305	0.040803	106.000000	nontarget	16.000000	na
80.739107	0.042491	107.000000	nontarget	1.000000	na
80.781598	0.041061	107.000000	nontarget	2.000000	na
80.822659	0.041527	107.000000	nontarget	3.000000	80.830330
80.864186	0.040896	107.000000	nontarget	4.000000	na
80.905082	0.043215	107.000000	nontarget	5.000000	na
80.948297	0.040019	107.000000	nontarget	6.000000	na
80.988317	0.042850	107.000000	nontarget	7.000000	na
81.031167	0.041284	107.000000	nontarget	8.000000	na
81.072451	0.042900	107.000000	nontarget	9.000000	na
81.115351	0.039918	107.000000	nontarget	10.000000	na
81.155269	0.042286	107.000000	nontarget	11.000000	na
81.197555	0.041682	107.000000	nontarget	12.000000	na
81.239237	0.041955	107.000000	nontarget	13.000000	na
81.281192	0.041030	107.000000	nontarget	14.000000	na
81.322222	0.042469	107.000000	nontarget	15.000000	na
81.364691	0.041248	107.000000	nontarget	16.000000	na
81.405939	0.042812	108.000000	nontarget	1.000000	na
81.448750	0.039560	108.000000	nontarget	2.000000	na
81.488311	0.043401	108.000000	nontarget	3.000000	na
81.531712	0.040516	108.000000	nontarget	4.000000	na
81.572228	0.042338	108.000000	nontarget	5.000000	na
81.614566	0.041362	108.000000	nontarget	6.000000	na
81.655928	0.041885	108.000000	nontarget	7.000000	na
81.697813	0.041245	108.000000	nontarget	8.000000	81.703826
81.739059	0.042275	108.000000	nontarget	9.000000	na
81.781334	0.040762	108.000000	nontarget	10.000000	na
81.822096	0.042972	108.000000	nontarget	11.000000	na
81.865067	0.040921	108.000000	nontarget	12.000000	na
81.905988	0.042340	108.000000	nontarget	13.000000	na
81.948328	0.040787	108.000000	nontarget	14.000000	na
81.989115	0.041991	108.000000	nontarget	15.000000	na
82.031106	0.040977	108.000000	nontarget	16.000000	na
82.072083	0.042223	109.000000	nontarget	1.000000	na
82.114306	0.041349	109.000000	nontarget	2.000000	na
82.155654	0.042762	109.000000	nontarget	3.000000	na
82.198416	0.040787	109.000000	nontarget	4.000000	na
82.239202	0.041509	109.000000	nontarget	5.000000	na
82.280712	0.041092	109.000000	nontarget	6.000000	na
82.321804	0.042931	109.000000	nontarget	7.000000	na
82.364735	0.040241	109.000000	nontarget	8.000000	na
82.404976	0.042593	109.000000	nontarget	9.000000	82.410052
82.447569	0.041714	109.000000	nontarget	10.000000	na
82.489283	0.042552	109.000000	nontarget	11.000000	na
82.531835	0.039891	109.000000	nontarget	12.000000	na
82.571726	0.043607	109.000000	nontarget	13.000000	na
82.615332	0.040509	109.000000	nontarget	14.000000	na
82.655841	0.042361	109.000000	nontarget	15.000000	na
82.698203	0.041012	109.000000	nontarget	16.000000	na
82.739215	0.041959	110.000000	nontarget	1.000000	na
82.781174	0.041410	110.000000	nontarget	2.000000	na
82.822584	0.042803	110.000000	nontarget	3.000000	na
82.865387	0.040356	110.000000	nontarget	4.000000	na
82.905743	0.041597	110.000000	nontarget	5.000000	na
82.947340	0.040887	110.000000	nontarget	6.000000	na
82.988227	0.042671	110.000000	nontarget	7.000000	na
83.030898	0.041296	110.000000	nontarget	8.000000	na
83.072194	0.043119	110.000000	nontarget	9.000000	na
83.115313	0.040210	110.000000	nontarget	10.000000	na
83.155523	0.042720	110.000000	nontarget	11.000000	na
83.198243	0.040996	110.000000	nontarget	12.000000	na
83.239239	0.041430	110.000000	nontarget	13.000000	83.249652
83.280669	0.041539	110.000000	nontarget	14.000000	na
83.322208	0.042276	110.000000	nontarget	15.000000	na
83.364485	0.040811	110.000000	nontarget	16.000000	na
83.405296	0.042964	111.000000	nontarget	1.000000	na
83.448260	0.040854	111.000000	nontarget	2.000000	na
83.489114	0.042556	111.000000	nontarget	3.000000	na
83.531671	0.040132	111.000000	nontarget	4.000000	na
83.571802	0.042734	111.000000	nontarget	5.000000	na
83.614537	0.041179	111.000000	nontarget	6.000000	na
83.655716	0.042663	111.000000	nontarget	7.000000	na
83.698378	0.039993	111.000000	nontarget	8.000000	na
83.738371	0.043240	111.000000	nontarget	9.000000	na
83.781611	0.040543	111.000000	nontarget	10.000000	na
83.822155	0.042033	111.000000	nontarget	11.000000	na
83.864187	0.041617	111.000000	nontarget	12.000000	na
83.905805	0.042150	111.000000	nontarget	13.000000	na
83.947955	0.040124	111.000000	nontarget	14.000000	na
83.988079	0.043160	111.000000	nontarget	15.000000	na
84.031238	0.041213	111.000000	nontarget	16.000000	na
84.072451	0.042180	112.000000	target	1.000000	na
84.114631	0.040628	112.000000	target	2.000000	na
84.155259	0.042417	112.000000	target	3.000000	na
84.197675	0.040822	112.000000	target	4.000000	na
84.238497	0.043060	112.000000	target	5.000000	na
84.281557	0.040760	112.000000	target	6.000000	na
84.322317	0.041816	112.000000	target	7.000000	na
84.364133	0.040906	112.000000	target	8.000000	na
84.405039	0.042792	112.000000	target	9.000000	na
84.447831	0.041243	112.000000	target	10.000000	na
84.489074	0.042169	112.000000	target	11.000000	na
84.531243	0.040311	112.000000	target	12.000000	na
84.571554	0.042429	112.000000	target	13.000000	na
84.613984	0.041306	112.000000	target	14.000000	na
84.655290	0.042033	112.000000	target	15.000000	na
84.697323	0.041651	112.000000	target	16.000000	na
84.738974	0.042939	113.000000	nontarget	1.000000	na
84.781913	0.040107	113.000000	nontarget	2.000000	na
84.822021	0.042480	113.000000	nontarget	3.000000	84.840034
84.864501	0.040714	113.000000	nontarget	4.000000	na
84.905215	0.043166	113.000000	nontarget	5.000000	na
84.948381	0.040652	113.000000	nontarget	6.000000	na
84.989032	0.042016	113.000000	nontarget	7.000000	na
85.031048	0.041437	113.000000	nontarget	8.000000	na
85.072485	0.042095	113.000000	nontarget	9.000000	na
85.114581	0.040451	113.000000	nontarget	10.000000	na
85.155032	0.043209	113.000000	nontarget	11.000000	na
85.198241	0.049753	113.000000	nontarget	12.000000	na
85.247994	0.040930	113.000000	nontarget	13.000000	na
85.288924	0.042110	113.000000	nontarget	14.000000	na
85.331034	0.041177	113.000000	nontarget	15.000000	na
85.372212	0.041898	113.000000	nontarget	16.000000	na
85.414110	0.041578	114.000000	nontarget	1.000000	na
85.455688	0.042004	114.000000	nontarget	2.000000	na
85.497692	0.040732	114.000000	nontarget	3.000000	na
85.538424	0.043028	114.000000	nontarget	4.000000	na
85.581452	0.040912	114.000000	nontarget	5.000000	85.611313
85.622364	0.042388	114.000000	nontarget	6.000000	na
85.664751	0.040203	114.000000	nontarget	7.000000	na
85.704954	0.043273	114.000000	nontarget	8.000000	na
85.748227	0.041099	114.000000	nontarget	9.000000	na
85.789326	0.041747	114.000000	nontarget	10.000000	na
85.831073	0.040487	114.000000	nontarget	11.000000	na
85.871560	0.042735	114.000000	nontarget	12.000000	na
85.914296	0.041140	114.000000	nontarget	13.000000	na
85.955435	0.049746	114.000000	nontarget	14.000000	na
86.005182	0.042211	114.000000	nontarget	15.000000	na
86.047393	0.040672	114.000000	nontarget	16.000000	na
86.088065	0.043622	115.000000	nontarget	1.000000	na
86.131687	0.039629	115.000000	nontarget	2.000000	na
86.171316	0.043520	115.000000	nontarget	3.000000	na
86.214836	0.040612	115.000000	nontarget	4.000000	na
86.255449	0.042493	115.000000	nontarget	5.000000	na
86.297942	0.040985	115.000000	nontarget	6.000000	na
86.338927	0.049575	115.000000	nontarget	7.000000	86.375960
86.388501	0.043036	115.000000	nontarget	8.000000	na
86.431538	0.040782	115.000000	nontarget	9.000000	na
86.472319	0.042535	115.000000	nontarget	10.000000	na
86.514855	0.040564	115.000000	nontarget	11.000000	na
86.555419	0.042051	115.000000	nontarget	12.000000	na
86.597470	0.040681	115.000000	nontarget	13.000000	na
86.638151	0.043493	115.000000	nontarget	14.000000	na
86.681644	0.040157	115.000000	nontarget	15.000000	na
86.721801	0.042329	115.000000	nontarget	16.000000	na
86.764129	0.050792	116.000000	nontarget	1.000000	na
86.814921	0.040090	116.000000	nontarget	2.000000	na
86.855012	0.043291	116.000000	nontarget	3.000000	na
86.898302	0.039964	116.000000	nontarget	4.000000	na
86.938266	0.042478	116.000000	nontarget	5.000000	na
86.980744	0.041247	116.000000	nontarget	6.000000	na
87.021990	0.042173	116.000000	nontarget	7.000000	na
87.064164	0.041113	116.000000	nontarget	8.000000	na
87.105276	0.042269	116.000000	nontarget	9.000000	na
87.147545	0.041298	116.000000	nontarget	10.000000	na
87.188844	0.042236	116.000000	nontarget	11.000000	87.225205
87.231080	0.040186	116.000000	nontarget	12.000000	na
87.271266	0.043284	116.000000	nontarget	13.000000	na
87.314549	0.040796	116.000000	nontarget	14.000000	na
87.355346	0.042634	116.000000	nontarget	15.000000	na
87.397979	0.040187	116.000000	nontarget	16.000000	na
87.438166	0.042607	117.000000	nontarget	1.000000	na
87.480773	0.040980	117.000000	nontarget	2.000000	na
87.521753	0.043576	117.000000	nontarget	3.000000	na
87.565329	0.040153	117.000000	nontarget	4.000000	na
87.605482	0.042763	117.000000	nontarget	5.000000	na
87.648245	0.040644	117.000000	nontarget	6.000000	na
87.688889	0.042818	117.000000	nontarget	7.000000	na
87.731707	0.040421	117.000000	nontarget	8.000000	na
87.772128	0.042647	117.000000	nontarget	9.000000	na
87.814775	0.040806	117.000000	nontarget	10.000000	na
87.855581	0.042323	117.000000	nontarget	11.000000	na
87.897905	0.040935	117.000000	nontarget	12.000000	na
87.938840	0.041797	117.000000	nontarget	13.000000	na
87.980637	0.041414	117.000000	nontarget	14.000000	na
88.022051	0.043366	117.000000	nontarget	15.000000	na
88.065417	0.039408	117.000000	nontarget	16.000000	na
88.104825	0.043372	118.000000	nontarget	1.000000	na
88.148197	0.040323	118.000000	nontarget	2.000000	na
88.188520	0.043050	118.000000	nontarget	3.000000	na
88.231569	0.049811	118.000000	nontarget	4.000000	88.236877
88.281380	0.039961	118.000000	nontarget	5.000000	na
88.321341	0.043463	118.000000	nontarget	6.000000	na
88.364803	0.040625	118.000000	nontarget	7.000000	na
88.405428	0.042914	118.000000	nontarget	8.000000	na
88.448342	0.040137	118.000000	nontarget	9.000000	na
88.488479	0.042697	118.000000	nontarget	10.000000	na
88.531176	0.040948	118.000000	nontarget	11.000000	na
88.572124	0.042334	118.000000	nontarget	12.000000	na
88.614457	0.040605	118.000000	nontarget	13.000000	na
88.655062	0.042656	118.000000	nontarget	14.000000	na
88.697718	0.040873	118.000000	nontarget	15.000000	na
88.738591	0.042903	118.000000	nontarget	16.000000	na
88.781494	0.039745	119.000000	nontarget	1.000000	na
88.821239	0.042987	119.000000	nontarget	2.000000	na
88.864226	0.041432	119.000000	nontarget	3.000000	na
88.905659	0.042515	119.000000	nontarget	4.000000	na
88.948174	0.040831	119.000000	nontarget	5.000000	na
88.989005	0.042903	119.000000	nontarget	6.000000	89.011360
89.031908	0.039442	119.000000	nontarget	7.000000	na
89.071351	0.043482	119.000000	nontarget	8.000000	na
89.114832	0.039651	119.000000	nontarget	9.000000	na
89.154483	0.043801	119.000000	nontarget	10.000000	na
89.198283	0.039771	119.000000	nontarget	11.000000	na
89.238054	0.043415	119.000000	nontarget	12.000000	na
89.281469	0.040061	119.000000	nontarget	13.000000	na
89.321529	0.043665	119.000000	nontarget	14.000000	na
89.365194	0.040204	119.000000	nontarget	15.000000	na
89.405399	0.042718	119.000000	nontarget	16.000000	na
89.448116	0.040221	120.000000	nontarget	1.000000	na
89.488337	0.042891	120.000000	nontarget	2.000000	na
89.531228	0.040330	120.000000	nontarget	3.000000	na
89.571558	0.042445	120.000000	nontarget	4.000000	na
89.614003	0.041345	120.000000	nontarget	5.000000	na
89.655348	0.043108	120.000000	nontarget	6.000000	89.681623
89.698455	0.039557	120.000000	nontarget	7.000000	na
89.738012	0.043431	120.000000	nontarget	8.000000	na
89.781443	0.050237	120.000000	nontarget	9.000000	na
89.831680	0.049769	120.000000	nontarget	10.000000	na
89.881448	0.040317	120.000000	nontarget	11.000000	na
89.921766	0.042656	120.000000	nontarget	12.000000	na
89.964422	0.040232	120.000000	nontarget	13.000000	na
90.004654	0.043301	120.000000	nontarget	14.000000	na
90.047955	0.040391	120.000000	nontarget	15.000000	na
90.088346	0.042555	120.000000	nontarget	16.000000	na
90.130901	0.041091	121.000000	nontarget	1.000000	na
90.171992	0.042315	121.000000	nontarget	2.000000	na
90.214307	0.041100	121.000000	nontarget	3.000000	na
90.255407	0.042346	121.000000	nontarget	4.000000	na
90.297753	0.040040	121.000000	nontarget	5.000000	na
90.337793	0.043639	121.000000	nontarget	6.000000	na
90.381432	0.049700	121.000000	nontarget	7.000000	na
90.431132	0.040934	121.000000	nontarget	8.000000	na
90.472066	0.042119	121.000000	nontarget	9.000000	na
90.514185	0.040236	121.000000	nontarget	10.000000	90.548871
90.554421	0.043431	121.000000	nontarget	11.000000	na
90.597852	0.039983	121.000000	nontarget	12.000000	na
90.637836	0.043380	121.000000	nontarget	13.000000	na
