onset	duration	trial_number	trial_type	frame_number	time_of_response
8.056915	0.043139	1.000000	nontarget	1.000000	na
8.100054	0.049911	1.000000	nontarget	2.000000	na
8.149965	0.050227	1.000000	nontarget	3.000000	na
8.200192	0.049324	1.000000	nontarget	4.000000	na
8.249516	0.050139	1.000000	nontarget	5.000000	na
8.299655	0.050364	1.000000	nontarget	6.000000	na
8.350018	0.049958	1.000000	nontarget	7.000000	na
8.399976	0.049995	1.000000	nontarget	8.000000	na
8.449971	0.049848	1.000000	nontarget	9.000000	na
8.499819	0.050198	1.000000	nontarget	10.000000	na
8.550017	0.039509	1.000000	nontarget	11.000000	8.556724
8.589526	0.043567	1.000000	nontarget	12.000000	na
8.633093	0.050126	1.000000	nontarget	13.000000	na
8.683219	0.050126	1.000000	nontarget	14.000000	na
8.733346	0.049997	1.000000	nontarget	15.000000	na
8.783342	0.050029	1.000000	nontarget	16.000000	na
8.833372	0.049962	2.000000	nontarget	1.000000	na
8.883334	0.049581	2.000000	nontarget	2.000000	na
8.932915	0.050645	2.000000	nontarget	3.000000	na
8.983560	0.050296	2.000000	nontarget	4.000000	na
9.033856	0.049684	2.000000	nontarget	5.000000	na
9.083539	0.049933	2.000000	nontarget	6.000000	na
9.133472	0.049778	2.000000	nontarget	7.000000	na
9.183250	0.050145	2.000000	nontarget	8.000000	9.217738
9.233394	0.050027	2.000000	nontarget	9.000000	na
9.283421	0.049434	2.000000	nontarget	10.000000	na
9.332855	0.050781	2.000000	nontarget	11.000000	na
9.383636	0.049628	2.000000	nontarget	12.000000	na
9.433265	0.050235	2.000000	nontarget	13.000000	na
9.483499	0.050040	2.000000	nontarget	14.000000	na
9.533539	0.049745	2.000000	nontarget	15.000000	na
9.583284	0.049888	2.000000	nontarget	16.000000	na
9.633173	0.050076	3.000000	nontarget	1.000000	na
9.683248	0.039666	3.000000	nontarget	2.000000	na
9.722914	0.042911	3.000000	nontarget	3.000000	na
9.765825	0.050879	3.000000	nontarget	4.000000	na
9.816704	0.049302	3.000000	nontarget	5.000000	9.844011
9.866007	0.050651	3.000000	nontarget	6.000000	na
9.916658	0.039600	3.000000	nontarget	7.000000	na
9.956258	0.049748	3.000000	nontarget	8.000000	na
10.006005	0.043548	3.000000	nontarget	9.000000	na
10.049553	0.039872	3.000000	nontarget	10.000000	na
10.089425	0.043968	3.000000	nontarget	11.000000	na
10.133392	0.049943	3.000000	nontarget	12.000000	na
10.183336	0.050254	3.000000	nontarget	13.000000	na
10.233589	0.049604	3.000000	nontarget	14.000000	na
10.283194	0.050065	3.000000	nontarget	15.000000	na
10.333259	0.049840	3.000000	nontarget	16.000000	na
10.383099	0.050165	4.000000	nontarget	1.000000	na
10.433264	0.050443	4.000000	nontarget	2.000000	10.467481
10.483707	0.049990	4.000000	nontarget	3.000000	na
10.533697	0.049905	4.000000	nontarget	4.000000	na
10.583602	0.049181	4.000000	nontarget	5.000000	na
10.632783	0.050704	4.000000	nontarget	6.000000	na
10.683487	0.049867	4.000000	nontarget	7.000000	na
10.733354	0.050002	4.000000	nontarget	8.000000	na
10.783356	0.050052	4.000000	nontarget	9.000000	na
10.833408	0.050007	4.000000	nontarget	10.000000	na
10.883415	0.049920	4.000000	nontarget	11.000000	na
10.933335	0.049394	4.000000	nontarget	12.000000	na
10.982728	0.050661	4.000000	nontarget	13.000000	na
11.033389	0.049531	4.000000	nontarget	14.000000	na
11.082921	0.051314	4.000000	nontarget	15.000000	na
11.134234	0.049272	4.000000	nontarget	16.000000	11.140790
11.183507	0.049620	5.000000	nontarget	1.000000	11.190376
11.233127	0.050222	5.000000	nontarget	2.000000	na
11.283349	0.050355	5.000000	nontarget	3.000000	na
11.333704	0.050003	5.000000	nontarget	4.000000	na
11.383707	0.049666	5.000000	nontarget	5.000000	na
11.433373	0.049484	5.000000	nontarget	6.000000	na
11.482857	0.039805	5.000000	nontarget	7.000000	na
11.522662	0.043371	5.000000	nontarget	8.000000	na
11.566033	0.050131	5.000000	nontarget	9.000000	na
11.616164	0.050547	5.000000	nontarget	10.000000	na
11.666711	0.050035	5.000000	nontarget	11.000000	na
11.716746	0.049963	5.000000	nontarget	12.000000	na
11.766709	0.050651	5.000000	nontarget	13.000000	na
11.817360	0.049376	5.000000	nontarget	14.000000	11.823932
11.866736	0.049990	5.000000	nontarget	15.000000	na
11.916726	0.049668	5.000000	nontarget	16.000000	na
11.966394	0.050072	6.000000	nontarget	1.000000	na
12.016465	0.049635	6.000000	nontarget	2.000000	na
12.066101	0.039895	6.000000	nontarget	3.000000	na
12.105995	0.044029	6.000000	nontarget	4.000000	na
12.150024	0.050245	6.000000	nontarget	5.000000	na
12.200269	0.049387	6.000000	nontarget	6.000000	na
12.249656	0.050246	6.000000	nontarget	7.000000	na
12.299901	0.050068	6.000000	nontarget	8.000000	na
12.349969	0.049558	6.000000	nontarget	9.000000	na
12.399528	0.050493	6.000000	nontarget	10.000000	12.410735
12.450020	0.050392	6.000000	nontarget	11.000000	na
12.500413	0.050065	6.000000	nontarget	12.000000	na
12.550477	0.049493	6.000000	nontarget	13.000000	na
12.599970	0.049893	6.000000	nontarget	14.000000	na
12.649863	0.050256	6.000000	nontarget	15.000000	na
12.700119	0.049887	6.000000	nontarget	16.000000	na
12.750006	0.049989	7.000000	nontarget	1.000000	na
12.799995	0.049992	7.000000	nontarget	2.000000	na
12.849987	0.049539	7.000000	nontarget	3.000000	na
12.899526	0.049807	7.000000	nontarget	4.000000	na
12.949333	0.039661	7.000000	nontarget	5.000000	na
12.988994	0.044755	7.000000	nontarget	6.000000	na
13.033748	0.049668	7.000000	nontarget	7.000000	na
13.083417	0.050213	7.000000	nontarget	8.000000	13.090122
13.133629	0.049242	7.000000	nontarget	9.000000	na
13.182871	0.050448	7.000000	nontarget	10.000000	na
13.233320	0.049567	7.000000	nontarget	11.000000	na
13.282887	0.049976	7.000000	nontarget	12.000000	na
13.332863	0.039459	7.000000	nontarget	13.000000	na
13.372322	0.044422	7.000000	nontarget	14.000000	na
13.416744	0.049973	7.000000	nontarget	15.000000	na
13.466717	0.049795	7.000000	nontarget	16.000000	na
13.516512	0.049681	8.000000	target	1.000000	na
13.566192	0.050532	8.000000	target	2.000000	na
13.616725	0.050217	8.000000	target	3.000000	na
13.666942	0.049227	8.000000	target	4.000000	na
13.716169	0.039631	8.000000	target	5.000000	na
13.755800	0.044107	8.000000	target	6.000000	na
13.799907	0.050097	8.000000	target	7.000000	na
13.850004	0.049481	8.000000	target	8.000000	na
13.899485	0.050603	8.000000	target	9.000000	na
13.950088	0.050565	8.000000	target	10.000000	na
14.000653	0.049367	8.000000	target	11.000000	na
14.050020	0.049358	8.000000	target	12.000000	14.077240
14.099378	0.050739	8.000000	target	13.000000	na
14.150117	0.050002	8.000000	target	14.000000	na
14.200119	0.049478	8.000000	target	15.000000	na
14.249597	0.049929	8.000000	target	16.000000	na
14.299526	0.050479	9.000000	nontarget	1.000000	na
14.350006	0.050002	9.000000	nontarget	2.000000	na
14.400007	0.049975	9.000000	nontarget	3.000000	na
14.449982	0.050369	9.000000	nontarget	4.000000	na
14.500351	0.049703	9.000000	nontarget	5.000000	na
14.550054	0.050191	9.000000	nontarget	6.000000	na
14.600245	0.049398	9.000000	nontarget	7.000000	14.611433
14.649643	0.050716	9.000000	nontarget	8.000000	na
14.700358	0.049588	9.000000	nontarget	9.000000	na
14.749946	0.049679	9.000000	nontarget	10.000000	na
14.799625	0.050388	9.000000	nontarget	11.000000	na
14.850013	0.049969	9.000000	nontarget	12.000000	na
14.899982	0.050012	9.000000	nontarget	13.000000	na
14.949994	0.050826	9.000000	nontarget	14.000000	na
15.000820	0.049121	9.000000	nontarget	15.000000	na
15.049941	0.049587	9.000000	nontarget	16.000000	na
15.099527	0.050627	10.000000	nontarget	1.000000	na
15.150154	0.049854	10.000000	nontarget	2.000000	na
15.200008	0.049887	10.000000	nontarget	3.000000	15.219725
15.249895	0.050221	10.000000	nontarget	4.000000	na
15.300116	0.050047	10.000000	nontarget	5.000000	na
15.350163	0.049253	10.000000	nontarget	6.000000	na
15.399416	0.039567	10.000000	nontarget	7.000000	na
15.438982	0.043618	10.000000	nontarget	8.000000	na
15.482600	0.050655	10.000000	nontarget	9.000000	na
15.533255	0.050344	10.000000	nontarget	10.000000	na
15.583599	0.049890	10.000000	nontarget	11.000000	na
15.633489	0.049305	10.000000	nontarget	12.000000	na
15.682794	0.049907	10.000000	nontarget	13.000000	na
15.732700	0.050383	10.000000	nontarget	14.000000	na
15.783084	0.049620	10.000000	nontarget	15.000000	na
15.832703	0.050314	10.000000	nontarget	16.000000	15.839383
15.883017	0.050372	11.000000	nontarget	1.000000	15.889645
15.933389	0.049611	11.000000	nontarget	2.000000	na
15.983001	0.049904	11.000000	nontarget	3.000000	na
16.032904	0.049869	11.000000	nontarget	4.000000	na
16.082773	0.050637	11.000000	nontarget	5.000000	na
16.133410	0.049942	11.000000	nontarget	6.000000	na
16.183352	0.050012	11.000000	nontarget	7.000000	na
16.233364	0.049942	11.000000	nontarget	8.000000	na
16.283306	0.049595	11.000000	nontarget	9.000000	na
16.332901	0.049992	11.000000	nontarget	10.000000	na
16.382893	0.050459	11.000000	nontarget	11.000000	na
16.433352	0.049901	11.000000	nontarget	12.000000	na
16.483253	0.049472	11.000000	nontarget	13.000000	16.518056
16.532725	0.039350	11.000000	nontarget	14.000000	na
16.572075	0.043944	11.000000	nontarget	15.000000	na
16.616019	0.039487	11.000000	nontarget	16.000000	na
16.655505	0.043919	12.000000	nontarget	1.000000	16.660497
16.699425	0.050472	12.000000	nontarget	2.000000	na
16.749896	0.050297	12.000000	nontarget	3.000000	na
16.800193	0.049823	12.000000	nontarget	4.000000	na
16.850016	0.049477	12.000000	nontarget	5.000000	na
16.899493	0.050673	12.000000	nontarget	6.000000	na
16.950166	0.050449	12.000000	nontarget	7.000000	na
17.000615	0.049195	12.000000	nontarget	8.000000	na
17.049810	0.050228	12.000000	nontarget	9.000000	na
17.100038	0.049881	12.000000	nontarget	10.000000	na
17.149919	0.050143	12.000000	nontarget	11.000000	na
17.200062	0.049951	12.000000	nontarget	12.000000	na
17.250013	0.050058	12.000000	nontarget	13.000000	na
17.300071	0.051263	12.000000	nontarget	14.000000	na
17.351334	0.048706	12.000000	nontarget	15.000000	17.358029
17.400040	0.049539	12.000000	nontarget	16.000000	na
17.449579	0.049975	13.000000	nontarget	1.000000	17.456082
17.499554	0.039405	13.000000	nontarget	2.000000	na
17.538959	0.043992	13.000000	nontarget	3.000000	na
17.582951	0.050064	13.000000	nontarget	4.000000	na
17.633015	0.049979	13.000000	nontarget	5.000000	na
17.682994	0.039417	13.000000	nontarget	6.000000	na
17.722411	0.044087	13.000000	nontarget	7.000000	na
17.766498	0.039418	13.000000	nontarget	8.000000	na
17.805916	0.043035	13.000000	nontarget	9.000000	na
17.848951	0.044549	13.000000	nontarget	10.000000	17.877840
17.893500	0.046266	13.000000	nontarget	11.000000	na
17.939766	0.043800	13.000000	nontarget	12.000000	na
17.983565	0.049313	13.000000	nontarget	13.000000	na
18.032878	0.050249	13.000000	nontarget	14.000000	na
18.083127	0.050028	13.000000	nontarget	15.000000	na
18.133155	0.049864	13.000000	nontarget	16.000000	na
18.183018	0.050069	14.000000	nontarget	1.000000	na
18.233087	0.050086	14.000000	nontarget	2.000000	na
18.283173	0.049804	14.000000	nontarget	3.000000	na
18.332977	0.050375	14.000000	nontarget	4.000000	na
18.383352	0.049400	14.000000	nontarget	5.000000	na
18.432752	0.050101	14.000000	nontarget	6.000000	na
18.482853	0.050516	14.000000	nontarget	7.000000	na
18.533369	0.049392	14.000000	nontarget	8.000000	na
18.582762	0.040197	14.000000	nontarget	9.000000	18.599044
18.622959	0.042688	14.000000	nontarget	10.000000	na
18.665647	0.050128	14.000000	nontarget	11.000000	na
18.715775	0.050295	14.000000	nontarget	12.000000	na
18.766070	0.050632	14.000000	nontarget	13.000000	na
18.816702	0.049525	14.000000	nontarget	14.000000	na
18.866227	0.050471	14.000000	nontarget	15.000000	na
18.916699	0.049753	14.000000	nontarget	16.000000	na
18.966452	0.050015	15.000000	nontarget	1.000000	na
19.016467	0.049773	15.000000	nontarget	2.000000	na
19.066240	0.050408	15.000000	nontarget	3.000000	na
19.116648	0.050026	15.000000	nontarget	4.000000	na
19.166674	0.050052	15.000000	nontarget	5.000000	na
19.216727	0.050006	15.000000	nontarget	6.000000	na
19.266733	0.039309	15.000000	nontarget	7.000000	19.290308
19.306041	0.043540	15.000000	nontarget	8.000000	na
19.349582	0.050440	15.000000	nontarget	9.000000	na
19.400022	0.050241	15.000000	nontarget	10.000000	na
19.450263	0.049125	15.000000	nontarget	11.000000	na
19.499388	0.039762	15.000000	nontarget	12.000000	na
19.539150	0.043588	15.000000	nontarget	13.000000	na
19.582738	0.050007	15.000000	nontarget	14.000000	na
19.632745	0.050207	15.000000	nontarget	15.000000	na
19.682952	0.050383	15.000000	nontarget	16.000000	na
19.733335	0.049907	16.000000	nontarget	1.000000	na
19.783242	0.050121	16.000000	nontarget	2.000000	na
19.833364	0.049856	16.000000	nontarget	3.000000	na
19.883219	0.049633	16.000000	nontarget	4.000000	na
19.932853	0.050114	16.000000	nontarget	5.000000	na
19.982967	0.050361	16.000000	nontarget	6.000000	na
20.033328	0.050092	16.000000	nontarget	7.000000	na
20.083420	0.049967	16.000000	nontarget	8.000000	20.098853
20.133387	0.049380	16.000000	nontarget	9.000000	na
20.182767	0.050135	16.000000	nontarget	10.000000	na
20.232902	0.050467	16.000000	nontarget	11.000000	na
20.283369	0.049616	16.000000	nontarget	12.000000	na
20.332985	0.049797	16.000000	nontarget	13.000000	na
20.382781	0.050575	16.000000	nontarget	14.000000	na
20.433356	0.049993	16.000000	nontarget	15.000000	na
20.483349	0.049996	16.000000	nontarget	16.000000	na
20.533345	0.049610	17.000000	nontarget	1.000000	na
20.582955	0.040169	17.000000	nontarget	2.000000	na
20.623124	0.043333	17.000000	nontarget	3.000000	na
20.666457	0.050235	17.000000	nontarget	4.000000	na
20.716691	0.049962	17.000000	nontarget	5.000000	na
20.766653	0.049590	17.000000	nontarget	6.000000	na
20.816243	0.049866	17.000000	nontarget	7.000000	na
20.866110	0.050593	17.000000	nontarget	8.000000	na
20.916703	0.050458	17.000000	nontarget	9.000000	na
20.967161	0.049248	17.000000	nontarget	10.000000	20.973696
21.016409	0.049710	17.000000	nontarget	11.000000	na
21.066119	0.049968	17.000000	nontarget	12.000000	na
21.116087	0.050104	17.000000	nontarget	13.000000	na
21.166191	0.050164	17.000000	nontarget	14.000000	na
21.216355	0.049924	17.000000	nontarget	15.000000	na
21.266279	0.039524	17.000000	nontarget	16.000000	na
21.305803	0.044007	18.000000	nontarget	1.000000	na
21.349810	0.049835	18.000000	nontarget	2.000000	na
21.399645	0.050016	18.000000	nontarget	3.000000	na
21.449661	0.050356	18.000000	nontarget	4.000000	na
21.500018	0.049355	18.000000	nontarget	5.000000	na
21.549373	0.039654	18.000000	nontarget	6.000000	na
21.589027	0.044232	18.000000	nontarget	7.000000	na
21.633258	0.039167	18.000000	nontarget	8.000000	na
21.672425	0.044171	18.000000	nontarget	9.000000	na
21.716596	0.049762	18.000000	nontarget	10.000000	na
21.766358	0.049664	18.000000	nontarget	11.000000	na
21.816022	0.050542	18.000000	nontarget	12.000000	na
21.866564	0.050000	18.000000	nontarget	13.000000	na
21.916564	0.050137	18.000000	nontarget	14.000000	na
21.966700	0.049537	18.000000	nontarget	15.000000	na
22.016237	0.049895	18.000000	nontarget	16.000000	22.032062
22.066132	0.050414	19.000000	nontarget	1.000000	22.072690
22.116546	0.050048	19.000000	nontarget	2.000000	na
22.166594	0.049171	19.000000	nontarget	3.000000	na
22.215764	0.050923	19.000000	nontarget	4.000000	na
22.266688	0.049815	19.000000	nontarget	5.000000	na
22.316503	0.049750	19.000000	nontarget	6.000000	na
22.366252	0.050465	19.000000	nontarget	7.000000	na
22.416717	0.049980	19.000000	nontarget	8.000000	na
22.466697	0.049464	19.000000	nontarget	9.000000	na
22.516161	0.050291	19.000000	nontarget	10.000000	na
22.566452	0.049774	19.000000	nontarget	11.000000	na
22.616227	0.039518	19.000000	nontarget	12.000000	na
22.655744	0.044216	19.000000	nontarget	13.000000	na
22.699961	0.049796	19.000000	nontarget	14.000000	na
22.749757	0.050431	19.000000	nontarget	15.000000	na
22.800188	0.050008	19.000000	nontarget	16.000000	22.806768
22.850196	0.050038	20.000000	nontarget	1.000000	22.856448
22.900234	0.049016	20.000000	nontarget	2.000000	na
22.949250	0.039788	20.000000	nontarget	3.000000	na
22.989038	0.043349	20.000000	nontarget	4.000000	na
23.032387	0.039831	20.000000	nontarget	5.000000	na
23.072219	0.044535	20.000000	nontarget	6.000000	na
23.116754	0.039192	20.000000	nontarget	7.000000	na
23.155946	0.043981	20.000000	nontarget	8.000000	na
23.199928	0.039106	20.000000	nontarget	9.000000	na
23.239034	0.044227	20.000000	nontarget	10.000000	na
23.283261	0.039310	20.000000	nontarget	11.000000	na
23.322571	0.042964	20.000000	nontarget	12.000000	na
23.365535	0.051191	20.000000	nontarget	13.000000	na
23.416726	0.049442	20.000000	nontarget	14.000000	na
23.466168	0.039461	20.000000	nontarget	15.000000	na
23.505629	0.044365	20.000000	nontarget	16.000000	na
23.549994	0.049675	21.000000	target	1.000000	na
23.599669	0.049962	21.000000	target	2.000000	na
23.649631	0.050015	21.000000	target	3.000000	na
23.699646	0.050379	21.000000	target	4.000000	na
23.750025	0.049597	21.000000	target	5.000000	na
23.799621	0.049829	21.000000	target	6.000000	na
23.849450	0.039204	21.000000	target	7.000000	na
23.888654	0.044492	21.000000	target	8.000000	na
23.933146	0.039121	21.000000	target	9.000000	na
23.972266	0.044320	21.000000	target	10.000000	na
24.016587	0.049913	21.000000	target	11.000000	na
24.066500	0.049907	21.000000	target	12.000000	na
24.116407	0.050314	21.000000	target	13.000000	na
24.166721	0.041979	21.000000	target	14.000000	24.186910
24.208700	0.047095	21.000000	target	15.000000	na
24.255795	0.043588	21.000000	target	16.000000	na
24.299383	0.049978	22.000000	target	1.000000	24.305893
24.349361	0.050008	22.000000	target	2.000000	na
24.399369	0.039426	22.000000	target	3.000000	na
24.438796	0.044518	22.000000	target	4.000000	na
24.483314	0.049415	22.000000	target	5.000000	na
24.532728	0.050651	22.000000	target	6.000000	na
24.583380	0.049293	22.000000	target	7.000000	na
24.632673	0.039669	22.000000	target	8.000000	na
24.672342	0.044502	22.000000	target	9.000000	na
24.716844	0.049866	22.000000	target	10.000000	na
24.766710	0.049980	22.000000	target	11.000000	na
24.816690	0.050013	22.000000	target	12.000000	na
24.866703	0.050184	22.000000	target	13.000000	na
24.916887	0.049106	22.000000	target	14.000000	na
24.965993	0.050766	22.000000	target	15.000000	na
25.016758	0.049628	22.000000	target	16.000000	na
25.066387	0.050338	23.000000	nontarget	1.000000	na
25.116725	0.038783	23.000000	nontarget	2.000000	25.123349
25.155508	0.044409	23.000000	nontarget	3.000000	na
25.199917	0.039337	23.000000	nontarget	4.000000	na
25.239254	0.043965	23.000000	nontarget	5.000000	na
25.283218	0.049575	23.000000	nontarget	6.000000	na
25.332793	0.050037	23.000000	nontarget	7.000000	na
25.382830	0.049959	23.000000	nontarget	8.000000	na
25.432789	0.050229	23.000000	nontarget	9.000000	na
25.483018	0.050345	23.000000	nontarget	10.000000	na
25.533363	0.049989	23.000000	nontarget	11.000000	na
25.583351	0.049817	23.000000	nontarget	12.000000	na
25.633168	0.050393	23.000000	nontarget	13.000000	na
25.683561	0.049793	23.000000	nontarget	14.000000	na
25.733355	0.049851	23.000000	nontarget	15.000000	na
25.783206	0.049937	23.000000	nontarget	16.000000	na
25.833143	0.049812	24.000000	nontarget	1.000000	na
25.882955	0.049872	24.000000	nontarget	2.000000	na
25.932827	0.050391	24.000000	nontarget	3.000000	na
25.983218	0.050130	24.000000	nontarget	4.000000	25.989985
26.033348	0.049333	24.000000	nontarget	5.000000	na
26.082681	0.039806	24.000000	nontarget	6.000000	na
26.122487	0.043499	24.000000	nontarget	7.000000	na
26.165986	0.050000	24.000000	nontarget	8.000000	na
26.215986	0.050320	24.000000	nontarget	9.000000	na
26.266307	0.050599	24.000000	nontarget	10.000000	na
26.316906	0.049765	24.000000	nontarget	11.000000	na
26.366671	0.049905	24.000000	nontarget	12.000000	na
26.416576	0.050122	24.000000	nontarget	13.000000	na
26.466698	0.050091	24.000000	nontarget	14.000000	na
26.516789	0.049892	24.000000	nontarget	15.000000	na
26.566681	0.050023	24.000000	nontarget	16.000000	na
26.616704	0.049985	25.000000	nontarget	1.000000	na
26.666689	0.050013	25.000000	nontarget	2.000000	na
26.716702	0.050001	25.000000	nontarget	3.000000	na
26.766703	0.050016	25.000000	nontarget	4.000000	na
26.816719	0.049760	25.000000	nontarget	5.000000	na
26.866479	0.050241	25.000000	nontarget	6.000000	na
26.916721	0.049559	25.000000	nontarget	7.000000	26.936444
26.966280	0.050476	25.000000	nontarget	8.000000	na
27.016757	0.049941	25.000000	nontarget	9.000000	na
27.066698	0.049454	25.000000	nontarget	10.000000	na
27.116152	0.050592	25.000000	nontarget	11.000000	na
27.166744	0.050232	25.000000	nontarget	12.000000	na
27.216976	0.049928	25.000000	nontarget	13.000000	na
27.266904	0.050113	25.000000	nontarget	14.000000	na
27.317017	0.049308	25.000000	nontarget	15.000000	na
27.366325	0.050376	25.000000	nontarget	16.000000	na
27.416700	0.050055	26.000000	nontarget	1.000000	na
27.466755	0.050112	26.000000	nontarget	2.000000	na
27.516867	0.049798	26.000000	nontarget	3.000000	na
27.566665	0.049996	26.000000	nontarget	4.000000	na
27.616660	0.050062	26.000000	nontarget	5.000000	na
27.666722	0.050021	26.000000	nontarget	6.000000	na
27.716743	0.050120	26.000000	nontarget	7.000000	na
27.766863	0.050127	26.000000	nontarget	8.000000	na
27.816990	0.049967	26.000000	nontarget	9.000000	na
27.866957	0.050006	26.000000	nontarget	10.000000	na
27.916963	0.049935	26.000000	nontarget	11.000000	na
27.966899	0.049853	26.000000	nontarget	12.000000	na
28.016752	0.050234	26.000000	nontarget	13.000000	28.029545
28.066986	0.049851	26.000000	nontarget	14.000000	na
28.116837	0.048948	26.000000	nontarget	15.000000	na
28.165785	0.050972	26.000000	nontarget	16.000000	na
28.216757	0.050292	27.000000	nontarget	1.000000	28.223304
28.267049	0.049040	27.000000	nontarget	2.000000	na
28.316089	0.050032	27.000000	nontarget	3.000000	na
28.366120	0.050769	27.000000	nontarget	4.000000	na
28.416889	0.050000	27.000000	nontarget	5.000000	na
28.466889	0.049183	27.000000	nontarget	6.000000	na
28.516072	0.050171	27.000000	nontarget	7.000000	na
28.566242	0.050002	27.000000	nontarget	8.000000	na
28.616245	0.050278	27.000000	nontarget	9.000000	na
28.666523	0.050028	27.000000	nontarget	10.000000	na
28.716551	0.050156	27.000000	nontarget	11.000000	na
28.766707	0.049984	27.000000	nontarget	12.000000	na
28.816691	0.049837	27.000000	nontarget	13.000000	na
28.866528	0.050063	27.000000	nontarget	14.000000	na
28.916591	0.049682	27.000000	nontarget	15.000000	na
28.966273	0.050658	27.000000	nontarget	16.000000	na
29.016931	0.049645	28.000000	nontarget	1.000000	na
29.066575	0.050353	28.000000	nontarget	2.000000	na
29.116929	0.049635	28.000000	nontarget	3.000000	29.152300
29.166563	0.050551	28.000000	nontarget	4.000000	na
29.217114	0.049864	28.000000	nontarget	5.000000	na
29.266978	0.049825	28.000000	nontarget	6.000000	na
29.316803	0.049903	28.000000	nontarget	7.000000	na
29.366706	0.050146	28.000000	nontarget	8.000000	na
29.416852	0.050139	28.000000	nontarget	9.000000	na
29.466991	0.049968	28.000000	nontarget	10.000000	na
29.516959	0.050024	28.000000	nontarget	11.000000	na
29.566983	0.049055	28.000000	nontarget	12.000000	na
29.616038	0.050782	28.000000	nontarget	13.000000	na
29.666820	0.049968	28.000000	nontarget	14.000000	na
29.716788	0.050078	28.000000	nontarget	15.000000	na
29.766866	0.050079	28.000000	nontarget	16.000000	na
29.816945	0.049996	29.000000	nontarget	1.000000	na
29.866941	0.049979	29.000000	nontarget	2.000000	na
29.916920	0.050022	29.000000	nontarget	3.000000	na
29.966943	0.049690	29.000000	nontarget	4.000000	na
30.016633	0.050122	29.000000	nontarget	5.000000	30.023269
30.066755	0.050254	29.000000	nontarget	6.000000	na
30.117009	0.049502	29.000000	nontarget	7.000000	na
30.166512	0.050532	29.000000	nontarget	8.000000	na
30.217043	0.049080	29.000000	nontarget	9.000000	na
30.266123	0.050242	29.000000	nontarget	10.000000	na
30.316365	0.050332	29.000000	nontarget	11.000000	na
30.366697	0.050029	29.000000	nontarget	12.000000	na
30.416727	0.049729	29.000000	nontarget	13.000000	na
30.466456	0.050251	29.000000	nontarget	14.000000	na
30.516707	0.050146	29.000000	nontarget	15.000000	na
30.566853	0.050071	29.000000	nontarget	16.000000	na
30.616924	0.049779	30.000000	nontarget	1.000000	na
30.666702	0.049731	30.000000	nontarget	2.000000	na
30.716433	0.049853	30.000000	nontarget	3.000000	na
30.766286	0.039402	30.000000	nontarget	4.000000	na
30.805689	0.044456	30.000000	nontarget	5.000000	na
30.850144	0.049545	30.000000	nontarget	6.000000	na
30.899689	0.050583	30.000000	nontarget	7.000000	30.906260
30.950272	0.050508	30.000000	nontarget	8.000000	na
31.000780	0.049241	30.000000	nontarget	9.000000	na
31.050020	0.050510	30.000000	nontarget	10.000000	na
31.100530	0.049556	30.000000	nontarget	11.000000	na
31.150087	0.050105	30.000000	nontarget	12.000000	na
31.200191	0.050042	30.000000	nontarget	13.000000	na
31.250234	0.049412	30.000000	nontarget	14.000000	na
31.299645	0.050584	30.000000	nontarget	15.000000	na
31.350229	0.050224	30.000000	nontarget	16.000000	na
31.400454	0.049699	31.000000	nontarget	1.000000	na
31.450153	0.049866	31.000000	nontarget	2.000000	na
31.500019	0.049681	31.000000	nontarget	3.000000	na
31.549700	0.049871	31.000000	nontarget	4.000000	na
31.599570	0.050449	31.000000	nontarget	5.000000	na
31.650019	0.050195	31.000000	nontarget	6.000000	na
31.700214	0.049651	31.000000	nontarget	7.000000	na
31.749865	0.050527	31.000000	nontarget	8.000000	na
31.800392	0.049325	31.000000	nontarget	9.000000	na
31.849717	0.050307	31.000000	nontarget	10.000000	na
31.900025	0.049998	31.000000	nontarget	11.000000	na
31.950023	0.050906	31.000000	nontarget	12.000000	na
32.000929	0.049081	31.000000	nontarget	13.000000	32.031913
32.050010	0.050181	31.000000	nontarget	14.000000	na
32.100191	0.049646	31.000000	nontarget	15.000000	na
32.149837	0.050171	31.000000	nontarget	16.000000	na
32.200008	0.049980	32.000000	target	1.000000	na
32.249988	0.050263	32.000000	target	2.000000	na
32.300251	0.049921	32.000000	target	3.000000	na
32.350172	0.048825	32.000000	target	4.000000	na
32.398998	0.050999	32.000000	target	5.000000	na
32.449997	0.050022	32.000000	target	6.000000	na
32.500018	0.049998	32.000000	target	7.000000	na
32.550016	0.050004	32.000000	target	8.000000	na
32.600020	0.049937	32.000000	target	9.000000	na
32.649957	0.050040	32.000000	target	10.000000	na
32.699997	0.050243	32.000000	target	11.000000	na
32.750240	0.049778	32.000000	target	12.000000	na
32.800018	0.049737	32.000000	target	13.000000	na
32.849755	0.050257	32.000000	target	14.000000	na
32.900011	0.049981	32.000000	target	15.000000	na
32.949992	0.050562	32.000000	target	16.000000	32.956512
33.000554	0.049462	33.000000	nontarget	1.000000	33.006982
33.050016	0.049529	33.000000	nontarget	2.000000	na
33.099545	0.050544	33.000000	nontarget	3.000000	na
33.150090	0.049951	33.000000	nontarget	4.000000	na
33.200041	0.049905	33.000000	nontarget	5.000000	na
33.249947	0.050074	33.000000	nontarget	6.000000	na
33.300021	0.050159	33.000000	nontarget	7.000000	na
33.350180	0.049832	33.000000	nontarget	8.000000	na
33.400011	0.049814	33.000000	nontarget	9.000000	na
33.449825	0.050374	33.000000	nontarget	10.000000	na
33.500199	0.049822	33.000000	nontarget	11.000000	na
33.550021	0.049834	33.000000	nontarget	12.000000	na
33.599855	0.049864	33.000000	nontarget	13.000000	na
33.649720	0.050304	33.000000	nontarget	14.000000	na
33.700024	0.050192	33.000000	nontarget	15.000000	na
33.750216	0.049921	33.000000	nontarget	16.000000	na
33.800137	0.050096	34.000000	nontarget	1.000000	na
33.850233	0.049751	34.000000	nontarget	2.000000	na
33.899984	0.050035	34.000000	nontarget	3.000000	na
33.950019	0.050312	34.000000	nontarget	4.000000	na
34.000331	0.049555	34.000000	nontarget	5.000000	34.007399
34.049886	0.050156	34.000000	nontarget	6.000000	na
34.100041	0.050159	34.000000	nontarget	7.000000	na
34.150200	0.049770	34.000000	nontarget	8.000000	na
34.199970	0.049042	34.000000	nontarget	9.000000	na
34.249013	0.051014	34.000000	nontarget	10.000000	na
34.300027	0.050006	34.000000	nontarget	11.000000	na
34.350033	0.050115	34.000000	nontarget	12.000000	na
34.400148	0.049086	34.000000	nontarget	13.000000	na
34.449234	0.039467	34.000000	nontarget	14.000000	na
34.488701	0.044463	34.000000	nontarget	15.000000	na
34.533164	0.038690	34.000000	nontarget	16.000000	na
34.571854	0.044637	35.000000	nontarget	1.000000	na
34.616491	0.049528	35.000000	nontarget	2.000000	na
34.666019	0.050097	35.000000	nontarget	3.000000	na
34.716116	0.050090	35.000000	nontarget	4.000000	na
34.766205	0.050493	35.000000	nontarget	5.000000	na
34.816698	0.050004	35.000000	nontarget	6.000000	na
34.866702	0.049516	35.000000	nontarget	7.000000	na
34.916218	0.049983	35.000000	nontarget	8.000000	na
34.966201	0.049558	35.000000	nontarget	9.000000	na
35.015759	0.050714	35.000000	nontarget	10.000000	35.029112
35.066473	0.050328	35.000000	nontarget	11.000000	na
35.116800	0.049935	35.000000	nontarget	12.000000	na
35.166735	0.050134	35.000000	nontarget	13.000000	na
35.216869	0.049998	35.000000	nontarget	14.000000	na
35.266868	0.049519	35.000000	nontarget	15.000000	na
35.316387	0.050312	35.000000	nontarget	16.000000	na
35.366699	0.050160	36.000000	nontarget	1.000000	na
35.416858	0.049837	36.000000	nontarget	2.000000	na
35.466695	0.050007	36.000000	nontarget	3.000000	na
35.516701	0.050028	36.000000	nontarget	4.000000	na
35.566729	0.049963	36.000000	nontarget	5.000000	na
35.616692	0.050002	36.000000	nontarget	6.000000	na
35.666694	0.049981	36.000000	nontarget	7.000000	na
35.716675	0.050230	36.000000	nontarget	8.000000	na
35.766905	0.049979	36.000000	nontarget	9.000000	na
35.816884	0.049183	36.000000	nontarget	10.000000	na
35.866066	0.049999	36.000000	nontarget	11.000000	na
35.916065	0.050559	36.000000	nontarget	12.000000	na
35.966624	0.049842	36.000000	nontarget	13.000000	na
36.016466	0.050299	36.000000	nontarget	14.000000	36.048431
36.066765	0.050023	36.000000	nontarget	15.000000	na
36.116788	0.050066	36.000000	nontarget	16.000000	na
36.166854	0.049917	37.000000	nontarget	1.000000	36.173365
36.216771	0.049538	37.000000	nontarget	2.000000	na
36.266309	0.050004	37.000000	nontarget	3.000000	na
36.316313	0.050386	37.000000	nontarget	4.000000	na
36.366699	0.050100	37.000000	nontarget	5.000000	na
36.416799	0.049906	37.000000	nontarget	6.000000	na
36.466706	0.049997	37.000000	nontarget	7.000000	na
36.516702	0.050037	37.000000	nontarget	8.000000	na
36.566739	0.049228	37.000000	nontarget	9.000000	na
36.615967	0.050738	37.000000	nontarget	10.000000	na
36.666705	0.049839	37.000000	nontarget	11.000000	na
36.716543	0.050174	37.000000	nontarget	12.000000	na
36.766717	0.050179	37.000000	nontarget	13.000000	na
36.816896	0.049876	37.000000	nontarget	14.000000	na
36.866772	0.049933	37.000000	nontarget	15.000000	na
36.916705	0.052437	37.000000	nontarget	16.000000	na
36.969142	0.046975	38.000000	nontarget	1.000000	36.974346
37.016117	0.050561	38.000000	nontarget	2.000000	na
37.066678	0.049608	38.000000	nontarget	3.000000	na
37.116286	0.050548	38.000000	nontarget	4.000000	na
37.166834	0.050043	38.000000	nontarget	5.000000	na
37.216876	0.050010	38.000000	nontarget	6.000000	na
37.266886	0.050029	38.000000	nontarget	7.000000	na
37.316915	0.049849	38.000000	nontarget	8.000000	na
37.366763	0.050131	38.000000	nontarget	9.000000	na
37.416894	0.049803	38.000000	nontarget	10.000000	na
37.466697	0.050210	38.000000	nontarget	11.000000	na
37.516907	0.049806	38.000000	nontarget	12.000000	na
37.566713	0.050115	38.000000	nontarget	13.000000	na
37.616828	0.049482	38.000000	nontarget	14.000000	na
37.666309	0.050391	38.000000	nontarget	15.000000	na
37.716701	0.049990	38.000000	nontarget	16.000000	na
37.766691	0.049965	39.000000	target	1.000000	na
37.816656	0.050187	39.000000	target	2.000000	na
37.866843	0.049852	39.000000	target	3.000000	na
37.916695	0.050132	39.000000	target	4.000000	na
37.966827	0.049750	39.000000	target	5.000000	na
38.016577	0.049813	39.000000	target	6.000000	na
38.066389	0.049891	39.000000	target	7.000000	na
38.116280	0.050398	39.000000	target	8.000000	na
38.166678	0.050203	39.000000	target	9.000000	na
38.216881	0.049880	39.000000	target	10.000000	na
38.266761	0.050023	39.000000	target	11.000000	na
38.316784	0.049368	39.000000	target	12.000000	na
38.366152	0.049751	39.000000	target	13.000000	na
38.415903	0.050614	39.000000	target	14.000000	na
38.466517	0.050032	39.000000	target	15.000000	na
38.516549	0.050905	39.000000	target	16.000000	na
38.567454	0.048419	40.000000	nontarget	1.000000	38.574317
38.615874	0.050875	40.000000	nontarget	2.000000	na
38.666749	0.050081	40.000000	nontarget	3.000000	na
38.716830	0.049970	40.000000	nontarget	4.000000	na
38.766800	0.049913	40.000000	nontarget	5.000000	na
38.816713	0.050138	40.000000	nontarget	6.000000	na
38.866850	0.049965	40.000000	nontarget	7.000000	na
38.916816	0.049273	40.000000	nontarget	8.000000	na
38.966089	0.050295	40.000000	nontarget	9.000000	na
39.016383	0.049848	40.000000	nontarget	10.000000	na
39.066231	0.050588	40.000000	nontarget	11.000000	na
39.116819	0.049372	40.000000	nontarget	12.000000	39.148074
39.166191	0.050727	40.000000	nontarget	13.000000	na
39.216918	0.049801	40.000000	nontarget	14.000000	na
39.266719	0.050109	40.000000	nontarget	15.000000	na
39.316827	0.049904	40.000000	nontarget	16.000000	na
39.366731	0.049992	41.000000	nontarget	1.000000	na
39.416723	0.050014	41.000000	nontarget	2.000000	na
39.466737	0.049985	41.000000	nontarget	3.000000	na
39.516722	0.049989	41.000000	nontarget	4.000000	na
39.566711	0.050066	41.000000	nontarget	5.000000	na
39.616777	0.050033	41.000000	nontarget	6.000000	na
39.666810	0.049498	41.000000	nontarget	7.000000	na
39.716309	0.049878	41.000000	nontarget	8.000000	na
39.766187	0.050609	41.000000	nontarget	9.000000	na
39.816796	0.049488	41.000000	nontarget	10.000000	na
39.866284	0.050412	41.000000	nontarget	11.000000	na
39.916696	0.051813	41.000000	nontarget	12.000000	39.952079
39.968510	0.047385	41.000000	nontarget	13.000000	na
40.015894	0.039265	41.000000	nontarget	14.000000	na
40.055160	0.044132	41.000000	nontarget	15.000000	na
40.099292	0.050738	41.000000	nontarget	16.000000	na
40.150030	0.050148	42.000000	nontarget	1.000000	na
40.200178	0.050013	42.000000	nontarget	2.000000	na
40.250191	0.049832	42.000000	nontarget	3.000000	na
40.300023	0.050228	42.000000	nontarget	4.000000	na
40.350252	0.049396	42.000000	nontarget	5.000000	na
40.399647	0.050373	42.000000	nontarget	6.000000	na
40.450020	0.049433	42.000000	nontarget	7.000000	na
40.499454	0.050807	42.000000	nontarget	8.000000	na
40.550260	0.049742	42.000000	nontarget	9.000000	na
40.600002	0.050303	42.000000	nontarget	10.000000	na
40.650305	0.049877	42.000000	nontarget	11.000000	na
40.700182	0.049669	42.000000	nontarget	12.000000	na
40.749851	0.050170	42.000000	nontarget	13.000000	na
40.800022	0.049936	42.000000	nontarget	14.000000	na
40.849958	0.050063	42.000000	nontarget	15.000000	na
40.900021	0.049987	42.000000	nontarget	16.000000	na
40.950008	0.050613	43.000000	nontarget	1.000000	na
41.000621	0.049313	43.000000	nontarget	2.000000	na
41.049935	0.050086	43.000000	nontarget	3.000000	41.068965
41.100020	0.050133	43.000000	nontarget	4.000000	na
41.150153	0.049998	43.000000	nontarget	5.000000	na
41.200151	0.049823	43.000000	nontarget	6.000000	na
41.249975	0.049582	43.000000	nontarget	7.000000	na
41.299557	0.050714	43.000000	nontarget	8.000000	na
41.350271	0.049821	43.000000	nontarget	9.000000	na
41.400092	0.049933	43.000000	nontarget	10.000000	na
41.450025	0.050177	43.000000	nontarget	11.000000	na
41.500203	0.049970	43.000000	nontarget	12.000000	na
41.550173	0.049904	43.000000	nontarget	13.000000	na
41.600077	0.049944	43.000000	nontarget	14.000000	na
41.650021	0.049458	43.000000	nontarget	15.000000	na
41.699479	0.050661	43.000000	nontarget	16.000000	na
41.750140	0.049869	44.000000	nontarget	1.000000	na
41.800009	0.050044	44.000000	nontarget	2.000000	na
41.850053	0.038899	44.000000	nontarget	3.000000	na
41.888952	0.043819	44.000000	nontarget	4.000000	na
41.932771	0.050150	44.000000	nontarget	5.000000	na
41.982921	0.044796	44.000000	nontarget	6.000000	42.015077
42.027716	0.044554	44.000000	nontarget	7.000000	na
42.072270	0.044457	44.000000	nontarget	8.000000	na
42.116728	0.050048	44.000000	nontarget	9.000000	na
42.166775	0.050006	44.000000	nontarget	10.000000	na
42.216781	0.049989	44.000000	nontarget	11.000000	na
42.266770	0.049996	44.000000	nontarget	12.000000	na
42.316766	0.049996	44.000000	nontarget	13.000000	na
42.366762	0.049930	44.000000	nontarget	14.000000	na
42.416692	0.049307	44.000000	nontarget	15.000000	na
42.466000	0.050115	44.000000	nontarget	16.000000	na
42.516115	0.049908	45.000000	nontarget	1.000000	na
42.566023	0.039020	45.000000	nontarget	2.000000	na
42.605043	0.045112	45.000000	nontarget	3.000000	na
42.650155	0.049859	45.000000	nontarget	4.000000	na
42.700014	0.050237	45.000000	nontarget	5.000000	na
42.750252	0.049771	45.000000	nontarget	6.000000	na
42.800022	0.049062	45.000000	nontarget	7.000000	na
42.849085	0.039675	45.000000	nontarget	8.000000	na
42.888759	0.044488	45.000000	nontarget	9.000000	na
42.933248	0.050301	45.000000	nontarget	10.000000	na
42.983549	0.049448	45.000000	nontarget	11.000000	43.006148
43.032996	0.050447	45.000000	nontarget	12.000000	na
43.083443	0.049456	45.000000	nontarget	13.000000	na
43.132899	0.050453	45.000000	nontarget	14.000000	na
43.183352	0.049984	45.000000	nontarget	15.000000	na
43.233337	0.049717	45.000000	nontarget	16.000000	na
43.283054	0.049841	46.000000	target	1.000000	na
43.332895	0.049888	46.000000	target	2.000000	na
43.382783	0.050521	46.000000	target	3.000000	na
43.433304	0.050053	46.000000	target	4.000000	na
43.483357	0.050189	46.000000	target	5.000000	na
43.533545	0.049672	46.000000	target	6.000000	na
43.583217	0.050159	46.000000	target	7.000000	na
43.633376	0.049934	46.000000	target	8.000000	na
43.683310	0.050181	46.000000	target	9.000000	na
43.733490	0.050042	46.000000	target	10.000000	na
43.783532	0.049659	46.000000	target	11.000000	na
43.833191	0.049454	46.000000	target	12.000000	na
43.882645	0.050090	46.000000	target	13.000000	na
43.932734	0.050580	46.000000	target	14.000000	na
43.983314	0.049708	46.000000	target	15.000000	na
44.033022	0.049504	46.000000	target	16.000000	na
44.082526	0.050351	47.000000	nontarget	1.000000	44.097900
44.132877	0.049980	47.000000	nontarget	2.000000	na
44.182857	0.049921	47.000000	nontarget	3.000000	na
44.232777	0.050258	47.000000	nontarget	4.000000	na
44.283036	0.049825	47.000000	nontarget	5.000000	na
44.332861	0.039312	47.000000	nontarget	6.000000	na
44.372173	0.044014	47.000000	nontarget	7.000000	na
44.416188	0.050019	47.000000	nontarget	8.000000	na
44.466206	0.050168	47.000000	nontarget	9.000000	na
44.516374	0.049842	47.000000	nontarget	10.000000	na
44.566216	0.050037	47.000000	nontarget	11.000000	na
44.616254	0.050388	47.000000	nontarget	12.000000	na
44.666642	0.049988	47.000000	nontarget	13.000000	na
44.716630	0.050196	47.000000	nontarget	14.000000	na
44.766825	0.049951	47.000000	nontarget	15.000000	na
44.816776	0.049998	47.000000	nontarget	16.000000	na
44.866774	0.049943	48.000000	nontarget	1.000000	na
44.916717	0.049498	48.000000	nontarget	2.000000	na
44.966215	0.044525	48.000000	nontarget	3.000000	44.990756
45.010741	0.044881	48.000000	nontarget	4.000000	na
45.055622	0.044579	48.000000	nontarget	5.000000	na
45.100201	0.049418	48.000000	nontarget	6.000000	na
45.149619	0.049897	48.000000	nontarget	7.000000	na
45.199515	0.050611	48.000000	nontarget	8.000000	na
45.250126	0.049813	48.000000	nontarget	9.000000	na
45.299939	0.050074	48.000000	nontarget	10.000000	na
45.350013	0.049655	48.000000	nontarget	11.000000	na
45.399668	0.050393	48.000000	nontarget	12.000000	na
45.450061	0.049980	48.000000	nontarget	13.000000	na
45.500042	0.049855	48.000000	nontarget	14.000000	na
45.549897	0.050125	48.000000	nontarget	15.000000	na
45.600022	0.049997	48.000000	nontarget	16.000000	na
45.650019	0.049254	49.000000	nontarget	1.000000	na
45.699272	0.050752	49.000000	nontarget	2.000000	na
45.750024	0.049963	49.000000	nontarget	3.000000	na
45.799987	0.049594	49.000000	nontarget	4.000000	na
45.849581	0.050422	49.000000	nontarget	5.000000	na
45.900003	0.050096	49.000000	nontarget	6.000000	na
45.950099	0.050297	49.000000	nontarget	7.000000	na
46.000396	0.049684	49.000000	nontarget	8.000000	na
46.050080	0.050010	49.000000	nontarget	9.000000	na
46.100089	0.049706	49.000000	nontarget	10.000000	na
46.149795	0.050024	49.000000	nontarget	11.000000	46.157391
46.199819	0.050079	49.000000	nontarget	12.000000	na
46.249898	0.050164	49.000000	nontarget	13.000000	na
46.300062	0.049950	49.000000	nontarget	14.000000	na
46.350012	0.050169	49.000000	nontarget	15.000000	na
46.400180	0.049901	49.000000	nontarget	16.000000	na
46.450081	0.050134	50.000000	nontarget	1.000000	na
46.500216	0.049658	50.000000	nontarget	2.000000	na
46.549874	0.050150	50.000000	nontarget	3.000000	na
46.600023	0.050097	50.000000	nontarget	4.000000	na
46.650120	0.049903	50.000000	nontarget	5.000000	na
46.700023	0.050018	50.000000	nontarget	6.000000	na
46.750042	0.049926	50.000000	nontarget	7.000000	na
46.799968	0.050053	50.000000	nontarget	8.000000	na
46.850021	0.049954	50.000000	nontarget	9.000000	na
46.899975	0.050137	50.000000	nontarget	10.000000	na
46.950112	0.055028	50.000000	nontarget	11.000000	na
47.005140	0.043907	50.000000	nontarget	12.000000	47.013441
47.049047	0.051067	50.000000	nontarget	13.000000	na
47.100114	0.049896	50.000000	nontarget	14.000000	na
47.150010	0.050011	50.000000	nontarget	15.000000	na
47.200021	0.049865	50.000000	nontarget	16.000000	na
47.249886	0.050326	51.000000	nontarget	1.000000	na
47.300211	0.049806	51.000000	nontarget	2.000000	na
47.350017	0.049933	51.000000	nontarget	3.000000	na
47.399949	0.050072	51.000000	nontarget	4.000000	na
47.450022	0.050190	51.000000	nontarget	5.000000	na
47.500212	0.049362	51.000000	nontarget	6.000000	na
47.549574	0.050422	51.000000	nontarget	7.000000	na
47.599996	0.050262	51.000000	nontarget	8.000000	na
47.650257	0.049671	51.000000	nontarget	9.000000	na
47.699929	0.049745	51.000000	nontarget	10.000000	na
47.749674	0.050369	51.000000	nontarget	11.000000	na
47.800043	0.049992	51.000000	nontarget	12.000000	na
47.850035	0.049430	51.000000	nontarget	13.000000	na
47.899465	0.050700	51.000000	nontarget	14.000000	na
47.950165	0.050723	51.000000	nontarget	15.000000	na
48.000888	0.049154	51.000000	nontarget	16.000000	48.020651
48.050042	0.050126	52.000000	nontarget	1.000000	48.056553
48.100168	0.049872	52.000000	nontarget	2.000000	na
48.150040	0.049286	52.000000	nontarget	3.000000	na
48.199326	0.050793	52.000000	nontarget	4.000000	na
48.250119	0.049846	52.000000	nontarget	5.000000	na
48.299965	0.049894	52.000000	nontarget	6.000000	na
48.349858	0.050162	52.000000	nontarget	7.000000	na
48.400020	0.049794	52.000000	nontarget	8.000000	na
48.449814	0.050196	52.000000	nontarget	9.000000	na
48.500011	0.050005	52.000000	nontarget	10.000000	na
48.550016	0.049121	52.000000	nontarget	11.000000	na
48.599137	0.039539	52.000000	nontarget	12.000000	na
48.638676	0.044156	52.000000	nontarget	13.000000	na
48.682832	0.050618	52.000000	nontarget	14.000000	na
48.733450	0.049929	52.000000	nontarget	15.000000	na
48.783378	0.049921	52.000000	nontarget	16.000000	na
48.833299	0.049763	53.000000	nontarget	1.000000	na
48.883062	0.049908	53.000000	nontarget	2.000000	na
48.932970	0.050375	53.000000	nontarget	3.000000	na
48.983345	0.049626	53.000000	nontarget	4.000000	49.004302
49.032970	0.050701	53.000000	nontarget	5.000000	na
49.083671	0.049163	53.000000	nontarget	6.000000	na
49.132834	0.049912	53.000000	nontarget	7.000000	na
49.182746	0.050725	53.000000	nontarget	8.000000	na
49.233471	0.049303	53.000000	nontarget	9.000000	na
49.282774	0.050054	53.000000	nontarget	10.000000	na
49.332828	0.050148	53.000000	nontarget	11.000000	na
49.382975	0.050403	53.000000	nontarget	12.000000	na
49.433379	0.049630	53.000000	nontarget	13.000000	na
49.483008	0.049810	53.000000	nontarget	14.000000	na
49.532818	0.050113	53.000000	nontarget	15.000000	na
49.582932	0.050345	53.000000	nontarget	16.000000	na
49.633277	0.049739	54.000000	nontarget	1.000000	na
49.683016	0.049596	54.000000	nontarget	2.000000	na
49.732612	0.050406	54.000000	nontarget	3.000000	na
49.783018	0.050375	54.000000	nontarget	4.000000	na
49.833393	0.049153	54.000000	nontarget	5.000000	na
49.882547	0.050840	54.000000	nontarget	6.000000	na
49.933386	0.049821	54.000000	nontarget	7.000000	49.960921
49.983207	0.050104	54.000000	nontarget	8.000000	na
50.033311	0.050110	54.000000	nontarget	9.000000	na
50.083421	0.049856	54.000000	nontarget	10.000000	na
50.133277	0.050134	54.000000	nontarget	11.000000	na
50.183411	0.049291	54.000000	nontarget	12.000000	na
50.232703	0.050560	54.000000	nontarget	13.000000	na
50.283263	0.050129	54.000000	nontarget	14.000000	na
50.333392	0.049965	54.000000	nontarget	15.000000	na
50.383357	0.050010	54.000000	nontarget	16.000000	na
50.433366	0.050008	55.000000	nontarget	1.000000	na
50.483374	0.049906	55.000000	nontarget	2.000000	na
50.533280	0.050068	55.000000	nontarget	3.000000	na
50.583347	0.049340	55.000000	nontarget	4.000000	na
50.632687	0.050693	55.000000	nontarget	5.000000	na
50.683380	0.050117	55.000000	nontarget	6.000000	na
50.733497	0.049842	55.000000	nontarget	7.000000	na
50.783339	0.049794	55.000000	nontarget	8.000000	na
50.833133	0.050372	55.000000	nontarget	9.000000	na
50.883505	0.049265	55.000000	nontarget	10.000000	na
50.932770	0.050169	55.000000	nontarget	11.000000	50.940548
50.982940	0.049976	55.000000	nontarget	12.000000	na
51.032915	0.050530	55.000000	nontarget	13.000000	na
51.083446	0.049996	55.000000	nontarget	14.000000	na
51.133442	0.049905	55.000000	nontarget	15.000000	na
51.183347	0.049922	55.000000	nontarget	16.000000	na
51.233268	0.049833	56.000000	nontarget	1.000000	na
51.283102	0.050427	56.000000	nontarget	2.000000	na
51.333528	0.049180	56.000000	nontarget	3.000000	na
51.382708	0.050314	56.000000	nontarget	4.000000	na
51.433022	0.050319	56.000000	nontarget	5.000000	na
51.483341	0.049937	56.000000	nontarget	6.000000	na
51.533278	0.050028	56.000000	nontarget	7.000000	na
51.583305	0.050093	56.000000	nontarget	8.000000	na
51.633398	0.049832	56.000000	nontarget	9.000000	na
51.683229	0.050144	56.000000	nontarget	10.000000	na
51.733373	0.049858	56.000000	nontarget	11.000000	na
51.783231	0.050059	56.000000	nontarget	12.000000	na
51.833290	0.050035	56.000000	nontarget	13.000000	na
51.883325	0.049239	56.000000	nontarget	14.000000	51.902659
51.932564	0.051023	56.000000	nontarget	15.000000	na
51.983587	0.049222	56.000000	nontarget	16.000000	na
52.032809	0.050722	57.000000	nontarget	1.000000	52.039395
52.083531	0.049907	57.000000	nontarget	2.000000	na
52.133438	0.049980	57.000000	nontarget	3.000000	na
52.183418	0.049955	57.000000	nontarget	4.000000	na
52.233373	0.049828	57.000000	nontarget	5.000000	na
52.283201	0.049638	57.000000	nontarget	6.000000	na
52.332838	0.050544	57.000000	nontarget	7.000000	na
52.383382	0.049512	57.000000	nontarget	8.000000	na
52.432894	0.050401	57.000000	nontarget	9.000000	na
52.483295	0.049418	57.000000	nontarget	10.000000	na
52.532713	0.050603	57.000000	nontarget	11.000000	na
52.583317	0.049924	57.000000	nontarget	12.000000	na
52.633240	0.050076	57.000000	nontarget	13.000000	na
52.683316	0.049455	57.000000	nontarget	14.000000	na
52.732771	0.050138	57.000000	nontarget	15.000000	na
52.782910	0.050501	57.000000	nontarget	16.000000	na
52.833411	0.050109	58.000000	nontarget	1.000000	na
52.883520	0.049887	58.000000	nontarget	2.000000	na
52.933406	0.049384	58.000000	nontarget	3.000000	52.944600
52.982790	0.050023	58.000000	nontarget	4.000000	na
53.032813	0.050513	58.000000	nontarget	5.000000	na
53.083327	0.049270	58.000000	nontarget	6.000000	na
53.132597	0.050686	58.000000	nontarget	7.000000	na
53.183283	0.050060	58.000000	nontarget	8.000000	na
53.233343	0.049615	58.000000	nontarget	9.000000	na
53.282958	0.050027	58.000000	nontarget	10.000000	na
53.332985	0.050277	58.000000	nontarget	11.000000	na
53.383262	0.049414	58.000000	nontarget	12.000000	na
53.432675	0.050164	58.000000	nontarget	13.000000	na
53.482840	0.050722	58.000000	nontarget	14.000000	na
53.533561	0.049632	58.000000	nontarget	15.000000	na
53.583193	0.050120	58.000000	nontarget	16.000000	na
53.633314	0.050212	59.000000	nontarget	1.000000	na
53.683526	0.049519	59.000000	nontarget	2.000000	na
53.733045	0.049794	59.000000	nontarget	3.000000	na
53.782839	0.050417	59.000000	nontarget	4.000000	na
53.833256	0.049906	59.000000	nontarget	5.000000	na
53.883162	0.049540	59.000000	nontarget	6.000000	na
53.932702	0.039038	59.000000	nontarget	7.000000	53.940943
53.971740	0.045059	59.000000	nontarget	8.000000	na
54.016800	0.049417	59.000000	nontarget	9.000000	na
54.066217	0.050632	59.000000	nontarget	10.000000	na
54.116849	0.049373	59.000000	nontarget	11.000000	na
54.166221	0.050560	59.000000	nontarget	12.000000	na
54.216781	0.049211	59.000000	nontarget	13.000000	na
54.265992	0.049983	59.000000	nontarget	14.000000	na
54.315975	0.050200	59.000000	nontarget	15.000000	na
54.366175	0.050198	59.000000	nontarget	16.000000	na
54.416373	0.049615	60.000000	nontarget	1.000000	na
54.465987	0.050686	60.000000	nontarget	2.000000	na
54.516673	0.049451	60.000000	nontarget	3.000000	na
54.566124	0.050239	60.000000	nontarget	4.000000	na
54.616363	0.050057	60.000000	nontarget	5.000000	na
54.666420	0.050337	60.000000	nontarget	6.000000	na
54.716757	0.050016	60.000000	nontarget	7.000000	na
54.766773	0.049829	60.000000	nontarget	8.000000	na
54.816602	0.050106	60.000000	nontarget	9.000000	na
54.866708	0.049912	60.000000	nontarget	10.000000	na
54.916620	0.049987	60.000000	nontarget	11.000000	na
54.966606	0.049863	60.000000	nontarget	12.000000	na
55.016469	0.050280	60.000000	nontarget	13.000000	na
55.066750	0.050052	60.000000	nontarget	14.000000	na
55.116801	0.049447	60.000000	nontarget	15.000000	na
55.166249	0.050632	60.000000	nontarget	16.000000	na
55.216881	0.049766	61.000000	target	1.000000	na
55.266646	0.049914	61.000000	target	2.000000	na
55.316560	0.050145	61.000000	target	3.000000	na
55.366706	0.049633	61.000000	target	4.000000	na
55.416339	0.050381	61.000000	target	5.000000	na
55.466719	0.049906	61.000000	target	6.000000	na
55.516625	0.049678	61.000000	target	7.000000	na
55.566303	0.049918	61.000000	target	8.000000	na
55.616221	0.050495	61.000000	target	9.000000	na
55.666716	0.050001	61.000000	target	10.000000	na
55.716717	0.049904	61.000000	target	11.000000	na
55.766621	0.050047	61.000000	target	12.000000	na
55.816668	0.049251	61.000000	target	13.000000	na
55.865918	0.050809	61.000000	target	14.000000	na
55.916727	0.049862	61.000000	target	15.000000	na
55.966589	0.049799	61.000000	target	16.000000	na
56.016388	0.050085	62.000000	nontarget	1.000000	56.023095
56.066474	0.050255	62.000000	nontarget	2.000000	na
56.116729	0.049985	62.000000	nontarget	3.000000	na
56.166714	0.049833	62.000000	nontarget	4.000000	na
56.216547	0.050020	62.000000	nontarget	5.000000	na
56.266567	0.050028	62.000000	nontarget	6.000000	na
56.316595	0.050135	62.000000	nontarget	7.000000	na
56.366730	0.049851	62.000000	nontarget	8.000000	na
56.416582	0.049919	62.000000	nontarget	9.000000	na
56.466501	0.049636	62.000000	nontarget	10.000000	na
56.516137	0.050761	62.000000	nontarget	11.000000	na
56.566898	0.049425	62.000000	nontarget	12.000000	na
56.616323	0.050296	62.000000	nontarget	13.000000	na
56.666618	0.049815	62.000000	nontarget	14.000000	na
56.716433	0.050271	62.000000	nontarget	15.000000	na
56.766704	0.049900	62.000000	nontarget	16.000000	na
56.816605	0.049753	63.000000	nontarget	1.000000	na
56.866357	0.050055	63.000000	nontarget	2.000000	na
56.916413	0.050172	63.000000	nontarget	3.000000	na
56.966584	0.050139	63.000000	nontarget	4.000000	56.999611
57.016724	0.049957	63.000000	nontarget	5.000000	na
57.066681	0.050341	63.000000	nontarget	6.000000	na
57.117021	0.049584	63.000000	nontarget	7.000000	na
57.166605	0.049957	63.000000	nontarget	8.000000	na
57.216562	0.050190	63.000000	nontarget	9.000000	na
57.266752	0.050005	63.000000	nontarget	10.000000	na
57.316757	0.048820	63.000000	nontarget	11.000000	na
57.365576	0.050912	63.000000	nontarget	12.000000	na
57.416488	0.050263	63.000000	nontarget	13.000000	na
57.466751	0.049998	63.000000	nontarget	14.000000	na
57.516749	0.049255	63.000000	nontarget	15.000000	na
57.566004	0.050302	63.000000	nontarget	16.000000	na
57.616307	0.049685	64.000000	nontarget	1.000000	na
57.665992	0.050871	64.000000	nontarget	2.000000	na
57.716863	0.049687	64.000000	nontarget	3.000000	na
57.766550	0.049990	64.000000	nontarget	4.000000	na
57.816541	0.049772	64.000000	nontarget	5.000000	na
57.866312	0.049658	64.000000	nontarget	6.000000	na
57.915971	0.050661	64.000000	nontarget	7.000000	na
57.966632	0.050132	64.000000	nontarget	8.000000	na
58.016764	0.049379	64.000000	nontarget	9.000000	na
58.066143	0.050466	64.000000	nontarget	10.000000	na
58.116610	0.049389	64.000000	nontarget	11.000000	58.132222
58.165999	0.050444	64.000000	nontarget	12.000000	na
58.216442	0.049463	64.000000	nontarget	13.000000	na
58.265905	0.050780	64.000000	nontarget	14.000000	na
58.316686	0.049873	64.000000	nontarget	15.000000	na
58.366559	0.049814	64.000000	nontarget	16.000000	na
58.416373	0.050342	65.000000	nontarget	1.000000	na
58.466715	0.050004	65.000000	nontarget	2.000000	na
58.516719	0.049925	65.000000	nontarget	3.000000	na
58.566644	0.050131	65.000000	nontarget	4.000000	na
58.616775	0.049826	65.000000	nontarget	5.000000	na
58.666601	0.050114	65.000000	nontarget	6.000000	na
58.716716	0.050000	65.000000	nontarget	7.000000	na
58.766716	0.049901	65.000000	nontarget	8.000000	na
58.816617	0.049987	65.000000	nontarget	9.000000	na
58.866604	0.049752	65.000000	nontarget	10.000000	na
58.916356	0.050233	65.000000	nontarget	11.000000	na
58.966590	0.049860	65.000000	nontarget	12.000000	na
59.016449	0.049111	65.000000	nontarget	13.000000	na
59.065560	0.051141	65.000000	nontarget	14.000000	59.072327
59.116701	0.049569	65.000000	nontarget	15.000000	na
59.166270	0.050630	65.000000	nontarget	16.000000	na
59.216900	0.049224	66.000000	nontarget	1.000000	na
59.266123	0.050639	66.000000	nontarget	2.000000	na
59.316762	0.049860	66.000000	nontarget	3.000000	na
59.366622	0.050077	66.000000	nontarget	4.000000	na
59.416699	0.049688	66.000000	nontarget	5.000000	na
59.466387	0.049866	66.000000	nontarget	6.000000	na
59.516253	0.050429	66.000000	nontarget	7.000000	na
59.566681	0.049982	66.000000	nontarget	8.000000	na
59.616663	0.049803	66.000000	nontarget	9.000000	na
59.666467	0.049728	66.000000	nontarget	10.000000	na
59.716195	0.049958	66.000000	nontarget	11.000000	na
59.766153	0.050574	66.000000	nontarget	12.000000	na
59.816727	0.049847	66.000000	nontarget	13.000000	na
59.866573	0.049880	66.000000	nontarget	14.000000	na
59.916453	0.050275	66.000000	nontarget	15.000000	na
59.966728	0.049765	66.000000	nontarget	16.000000	na
60.016493	0.050509	67.000000	nontarget	1.000000	na
60.067003	0.049976	67.000000	nontarget	2.000000	na
60.116979	0.049940	67.000000	nontarget	3.000000	60.123331
60.166919	0.049838	67.000000	nontarget	4.000000	na
60.216757	0.050100	67.000000	nontarget	5.000000	na
60.266857	0.049141	67.000000	nontarget	6.000000	na
60.315998	0.050700	67.000000	nontarget	7.000000	na
60.366698	0.050014	67.000000	nontarget	8.000000	na
60.416711	0.049964	67.000000	nontarget	9.000000	na
60.466675	0.049635	67.000000	nontarget	10.000000	na
60.516310	0.049938	67.000000	nontarget	11.000000	na
60.566248	0.050662	67.000000	nontarget	12.000000	na
60.616910	0.049916	67.000000	nontarget	13.000000	na
60.666826	0.049760	67.000000	nontarget	14.000000	na
60.716586	0.050025	67.000000	nontarget	15.000000	na
60.766610	0.049590	67.000000	nontarget	16.000000	na
60.816200	0.050221	68.000000	nontarget	1.000000	na
60.866421	0.049884	68.000000	nontarget	2.000000	na
60.916306	0.050285	68.000000	nontarget	3.000000	na
60.966591	0.050182	68.000000	nontarget	4.000000	na
61.016772	0.050171	68.000000	nontarget	5.000000	na
61.066944	0.049588	68.000000	nontarget	6.000000	na
61.116532	0.050079	68.000000	nontarget	7.000000	na
61.166611	0.050165	68.000000	nontarget	8.000000	61.173255
61.216776	0.049989	68.000000	nontarget	9.000000	na
61.266765	0.049571	68.000000	nontarget	10.000000	na
61.316336	0.050628	68.000000	nontarget	11.000000	na
61.366964	0.049747	68.000000	nontarget	12.000000	na
61.416711	0.049804	68.000000	nontarget	13.000000	na
61.466515	0.049741	68.000000	nontarget	14.000000	na
61.516256	0.050392	68.000000	nontarget	15.000000	na
61.566648	0.049902	68.000000	nontarget	16.000000	na
61.616551	0.050061	69.000000	nontarget	1.000000	na
61.666612	0.050106	69.000000	nontarget	2.000000	na
61.716718	0.049988	69.000000	nontarget	3.000000	na
61.766706	0.049905	69.000000	nontarget	4.000000	na
61.816611	0.049789	69.000000	nontarget	5.000000	na
61.866400	0.050066	69.000000	nontarget	6.000000	na
61.916466	0.050502	69.000000	nontarget	7.000000	na
61.966968	0.049741	69.000000	nontarget	8.000000	61.999636
62.016709	0.049788	69.000000	nontarget	9.000000	na
62.066497	0.050260	69.000000	nontarget	10.000000	na
62.116757	0.049343	69.000000	nontarget	11.000000	na
62.166101	0.050303	69.000000	nontarget	12.000000	na
62.216404	0.049798	69.000000	nontarget	13.000000	na
62.266202	0.050534	69.000000	nontarget	14.000000	na
62.316736	0.049711	69.000000	nontarget	15.000000	na
62.366447	0.049946	69.000000	nontarget	16.000000	na
62.416393	0.050133	70.000000	nontarget	1.000000	na
62.466525	0.050236	70.000000	nontarget	2.000000	na
62.516761	0.049812	70.000000	nontarget	3.000000	na
62.566574	0.049830	70.000000	nontarget	4.000000	na
62.616404	0.038908	70.000000	nontarget	5.000000	na
62.655312	0.044977	70.000000	nontarget	6.000000	na
62.700289	0.049822	70.000000	nontarget	7.000000	na
62.750111	0.049801	70.000000	nontarget	8.000000	na
62.799912	0.050101	70.000000	nontarget	9.000000	na
62.850013	0.049775	70.000000	nontarget	10.000000	na
62.899788	0.050347	70.000000	nontarget	11.000000	na
62.950135	0.050965	70.000000	nontarget	12.000000	na
63.001100	0.053308	70.000000	nontarget	13.000000	na
63.054409	0.045736	70.000000	nontarget	14.000000	63.059762
63.100145	0.049922	70.000000	nontarget	15.000000	na
63.150067	0.049924	70.000000	nontarget	16.000000	na
63.199991	0.050030	71.000000	nontarget	1.000000	na
63.250021	0.049956	71.000000	nontarget	2.000000	na
63.299977	0.049322	71.000000	nontarget	3.000000	na
63.349299	0.050700	71.000000	nontarget	4.000000	na
63.399998	0.050206	71.000000	nontarget	5.000000	na
63.450204	0.049606	71.000000	nontarget	6.000000	na
63.499810	0.049455	71.000000	nontarget	7.000000	na
63.549266	0.050596	71.000000	nontarget	8.000000	na
63.599861	0.050366	71.000000	nontarget	9.000000	na
63.650228	0.049653	71.000000	nontarget	10.000000	na
63.699881	0.049844	71.000000	nontarget	11.000000	na
63.749726	0.050487	71.000000	nontarget	12.000000	na
63.800212	0.049594	71.000000	nontarget	13.000000	na
63.849806	0.050000	71.000000	nontarget	14.000000	na
63.899806	0.050271	71.000000	nontarget	15.000000	na
63.950077	0.050628	71.000000	nontarget	16.000000	na
64.000705	0.049369	72.000000	nontarget	1.000000	na
64.050074	0.049570	72.000000	nontarget	2.000000	64.056681
64.099644	0.049954	72.000000	nontarget	3.000000	na
64.149598	0.050235	72.000000	nontarget	4.000000	na
64.199832	0.050283	72.000000	nontarget	5.000000	na
64.250116	0.049906	72.000000	nontarget	6.000000	na
64.300022	0.049686	72.000000	nontarget	7.000000	na
64.349708	0.050312	72.000000	nontarget	8.000000	na
64.400020	0.049967	72.000000	nontarget	9.000000	na
64.449987	0.050042	72.000000	nontarget	10.000000	na
64.500029	0.049863	72.000000	nontarget	11.000000	na
64.549893	0.049886	72.000000	nontarget	12.000000	na
64.599779	0.050247	72.000000	nontarget	13.000000	na
64.650026	0.050026	72.000000	nontarget	14.000000	na
64.700052	0.049929	72.000000	nontarget	15.000000	na
64.749980	0.050109	72.000000	nontarget	16.000000	na
64.800090	0.049929	73.000000	nontarget	1.000000	na
64.850019	0.049998	73.000000	nontarget	2.000000	na
64.900017	0.050096	73.000000	nontarget	3.000000	na
64.950113	0.050731	73.000000	nontarget	4.000000	na
65.000844	0.048488	73.000000	nontarget	5.000000	na
65.049332	0.051080	73.000000	nontarget	6.000000	na
65.100412	0.049576	73.000000	nontarget	7.000000	65.106926
65.149988	0.049810	73.000000	nontarget	8.000000	na
65.199798	0.050218	73.000000	nontarget	9.000000	na
65.250015	0.049844	73.000000	nontarget	10.000000	na
65.299859	0.049921	73.000000	nontarget	11.000000	na
65.349780	0.049995	73.000000	nontarget	12.000000	na
65.399775	0.050269	73.000000	nontarget	13.000000	na
65.450044	0.049931	73.000000	nontarget	14.000000	na
65.499975	0.050002	73.000000	nontarget	15.000000	na
65.549977	0.049895	73.000000	nontarget	16.000000	na
65.599872	0.049875	74.000000	nontarget	1.000000	na
65.649748	0.049396	74.000000	nontarget	2.000000	na
65.699144	0.050886	74.000000	nontarget	3.000000	na
65.750030	0.049990	74.000000	nontarget	4.000000	na
65.800020	0.049999	74.000000	nontarget	5.000000	na
65.850018	0.051639	74.000000	nontarget	6.000000	na
65.901657	0.048630	74.000000	nontarget	7.000000	65.907299
65.950288	0.050330	74.000000	nontarget	8.000000	na
66.000618	0.049587	74.000000	nontarget	9.000000	na
66.050205	0.049881	74.000000	nontarget	10.000000	na
66.100085	0.049971	74.000000	nontarget	11.000000	na
66.150056	0.050200	74.000000	nontarget	12.000000	na
66.200256	0.049833	74.000000	nontarget	13.000000	na
66.250089	0.049580	74.000000	nontarget	14.000000	na
66.299669	0.050528	74.000000	nontarget	15.000000	na
66.350197	0.049823	74.000000	nontarget	16.000000	na
66.400021	0.049816	75.000000	nontarget	1.000000	na
66.449837	0.049421	75.000000	nontarget	2.000000	na
66.499258	0.050670	75.000000	nontarget	3.000000	na
66.549928	0.050086	75.000000	nontarget	4.000000	na
66.600014	0.050002	75.000000	nontarget	5.000000	na
66.650016	0.049837	75.000000	nontarget	6.000000	66.661226
66.699853	0.049971	75.000000	nontarget	7.000000	na
66.749824	0.050091	75.000000	nontarget	8.000000	na
66.799915	0.049998	75.000000	nontarget	9.000000	na
66.849913	0.050132	75.000000	nontarget	10.000000	na
66.900046	0.050011	75.000000	nontarget	11.000000	na
66.950057	0.050871	75.000000	nontarget	12.000000	na
67.000927	0.049281	75.000000	nontarget	13.000000	na
67.050208	0.049920	75.000000	nontarget	14.000000	na
67.100127	0.050179	75.000000	nontarget	15.000000	na
67.150307	0.049790	75.000000	nontarget	16.000000	na
67.200096	0.049939	76.000000	nontarget	1.000000	na
67.250035	0.049714	76.000000	nontarget	2.000000	na
67.299749	0.050003	76.000000	nontarget	3.000000	na
67.349752	0.050098	76.000000	nontarget	4.000000	na
67.399849	0.050151	76.000000	nontarget	5.000000	na
67.450000	0.050024	76.000000	nontarget	6.000000	na
67.500024	0.049792	76.000000	nontarget	7.000000	67.531000
67.549816	0.050267	76.000000	nontarget	8.000000	na
67.600083	0.049948	76.000000	nontarget	9.000000	na
67.650031	0.049663	76.000000	nontarget	10.000000	na
67.699694	0.049928	76.000000	nontarget	11.000000	na
67.749623	0.050518	76.000000	nontarget	12.000000	na
67.800141	0.050184	76.000000	nontarget	13.000000	na
67.850324	0.049415	76.000000	nontarget	14.000000	na
67.899739	0.049937	76.000000	nontarget	15.000000	na
67.949676	0.050764	76.000000	nontarget	16.000000	na
68.000440	0.049722	77.000000	nontarget	1.000000	na
68.050162	0.049901	77.000000	nontarget	2.000000	na
68.100063	0.049987	77.000000	nontarget	3.000000	na
68.150050	0.049947	77.000000	nontarget	4.000000	na
68.199998	0.050051	77.000000	nontarget	5.000000	na
68.250048	0.049842	77.000000	nontarget	6.000000	68.269603
68.299890	0.050246	77.000000	nontarget	7.000000	na
68.350136	0.050169	77.000000	nontarget	8.000000	na
68.400305	0.049391	77.000000	nontarget	9.000000	na
68.449697	0.050346	77.000000	nontarget	10.000000	na
68.500043	0.049575	77.000000	nontarget	11.000000	na
68.549617	0.050661	77.000000	nontarget	12.000000	na
68.600278	0.049958	77.000000	nontarget	13.000000	na
68.650236	0.049577	77.000000	nontarget	14.000000	na
68.699813	0.049856	77.000000	nontarget	15.000000	na
68.749669	0.050056	77.000000	nontarget	16.000000	na
68.799725	0.050111	78.000000	nontarget	1.000000	na
68.849836	0.050418	78.000000	nontarget	2.000000	na
68.900254	0.049709	78.000000	nontarget	3.000000	na
68.949963	0.050867	78.000000	nontarget	4.000000	na
69.000830	0.049362	78.000000	nontarget	5.000000	na
69.050192	0.050068	78.000000	nontarget	6.000000	na
69.100260	0.049642	78.000000	nontarget	7.000000	na
69.149902	0.050361	78.000000	nontarget	8.000000	na
69.200263	0.049282	78.000000	nontarget	9.000000	69.215676
69.249545	0.050616	78.000000	nontarget	10.000000	na
69.300161	0.049927	78.000000	nontarget	11.000000	na
69.350088	0.049332	78.000000	nontarget	12.000000	na
69.399421	0.050218	78.000000	nontarget	13.000000	na
69.449639	0.050734	78.000000	nontarget	14.000000	na
69.500373	0.049862	78.000000	nontarget	15.000000	na
69.550235	0.049796	78.000000	nontarget	16.000000	na
69.600031	0.049865	79.000000	nontarget	1.000000	na
69.649896	0.050606	79.000000	nontarget	2.000000	na
69.700502	0.049454	79.000000	nontarget	3.000000	na
69.749956	0.050065	79.000000	nontarget	4.000000	na
69.800021	0.050196	79.000000	nontarget	5.000000	na
69.850217	0.049816	79.000000	nontarget	6.000000	na
69.900033	0.050340	79.000000	nontarget	7.000000	na
69.950373	0.050648	79.000000	nontarget	8.000000	na
70.001021	0.049131	79.000000	nontarget	9.000000	na
70.050151	0.049882	79.000000	nontarget	10.000000	na
70.100033	0.050150	79.000000	nontarget	11.000000	70.123441
70.150183	0.049584	79.000000	nontarget	12.000000	na
70.199767	0.050274	79.000000	nontarget	13.000000	na
70.250041	0.050269	79.000000	nontarget	14.000000	na
70.300311	0.049886	79.000000	nontarget	15.000000	na
70.350197	0.049598	79.000000	nontarget	16.000000	na
70.399795	0.050344	80.000000	nontarget	1.000000	na
70.450139	0.049772	80.000000	nontarget	2.000000	na
70.499911	0.050571	80.000000	nontarget	3.000000	na
70.550482	0.049729	80.000000	nontarget	4.000000	na
70.600212	0.049989	80.000000	nontarget	5.000000	na
70.650200	0.049569	80.000000	nontarget	6.000000	na
70.699769	0.050444	80.000000	nontarget	7.000000	na
70.750213	0.049743	80.000000	nontarget	8.000000	na
70.799956	0.050327	80.000000	nontarget	9.000000	na
70.850283	0.050002	80.000000	nontarget	10.000000	na
70.900285	0.049823	80.000000	nontarget	11.000000	na
70.950108	0.050896	80.000000	nontarget	12.000000	na
71.001005	0.048687	80.000000	nontarget	13.000000	na
71.049692	0.050351	80.000000	nontarget	14.000000	na
71.100043	0.049700	80.000000	nontarget	15.000000	na
71.149743	0.054923	80.000000	nontarget	16.000000	na
71.204666	0.045279	81.000000	nontarget	1.000000	71.211388
71.249945	0.050089	81.000000	nontarget	2.000000	na
71.300034	0.050142	81.000000	nontarget	3.000000	na
71.350176	0.050175	81.000000	nontarget	4.000000	na
71.400350	0.049688	81.000000	nontarget	5.000000	na
71.450038	0.050029	81.000000	nontarget	6.000000	na
71.500067	0.049629	81.000000	nontarget	7.000000	na
71.549697	0.050004	81.000000	nontarget	8.000000	na
71.599701	0.050217	81.000000	nontarget	9.000000	na
71.649918	0.049792	81.000000	nontarget	10.000000	na
71.699709	0.050578	81.000000	nontarget	11.000000	na
71.750287	0.049457	81.000000	nontarget	12.000000	na
71.799745	0.049672	81.000000	nontarget	13.000000	na
71.849416	0.050572	81.000000	nontarget	14.000000	na
71.899989	0.050110	81.000000	nontarget	15.000000	na
71.950099	0.054037	81.000000	nontarget	16.000000	71.981739
72.004136	0.045620	82.000000	nontarget	1.000000	72.008744
72.049756	0.049878	82.000000	nontarget	2.000000	na
72.099634	0.050399	82.000000	nontarget	3.000000	na
72.150034	0.049943	82.000000	nontarget	4.000000	na
72.199976	0.050117	82.000000	nontarget	5.000000	na
72.250093	0.049955	82.000000	nontarget	6.000000	na
72.300048	0.050175	82.000000	nontarget	7.000000	na
72.350222	0.050031	82.000000	nontarget	8.000000	na
72.400254	0.049337	82.000000	nontarget	9.000000	na
72.449591	0.050656	82.000000	nontarget	10.000000	na
72.500247	0.049520	82.000000	nontarget	11.000000	na
72.549767	0.050465	82.000000	nontarget	12.000000	na
72.600232	0.049429	82.000000	nontarget	13.000000	na
72.649661	0.050556	82.000000	nontarget	14.000000	na
72.700218	0.049198	82.000000	nontarget	15.000000	na
72.749415	0.050818	82.000000	nontarget	16.000000	na
72.800233	0.049786	83.000000	nontarget	1.000000	na
72.850019	0.049975	83.000000	nontarget	2.000000	na
72.899994	0.049587	83.000000	nontarget	3.000000	72.930606
72.949581	0.050833	83.000000	nontarget	4.000000	na
73.000414	0.049399	83.000000	nontarget	5.000000	na
73.049812	0.049923	83.000000	nontarget	6.000000	na
73.099735	0.049970	83.000000	nontarget	7.000000	na
73.149705	0.050345	83.000000	nontarget	8.000000	na
73.200049	0.049931	83.000000	nontarget	9.000000	na
73.249980	0.050052	83.000000	nontarget	10.000000	na
73.300033	0.050269	83.000000	nontarget	11.000000	na
73.350302	0.049218	83.000000	nontarget	12.000000	na
73.399520	0.050214	83.000000	nontarget	13.000000	na
73.449734	0.050323	83.000000	nontarget	14.000000	na
73.500057	0.050157	83.000000	nontarget	15.000000	na
73.550213	0.049496	83.000000	nontarget	16.000000	na
73.599709	0.050314	84.000000	nontarget	1.000000	na
73.650023	0.050032	84.000000	nontarget	2.000000	na
73.700055	0.049555	84.000000	nontarget	3.000000	na
73.749610	0.050409	84.000000	nontarget	4.000000	na
73.800019	0.049684	84.000000	nontarget	5.000000	na
73.849704	0.049619	84.000000	nontarget	6.000000	na
73.899323	0.053038	84.000000	nontarget	7.000000	na
73.952361	0.049408	84.000000	nontarget	8.000000	73.959386
74.001769	0.048393	84.000000	nontarget	9.000000	na
74.050162	0.049888	84.000000	nontarget	10.000000	na
74.100050	0.049701	84.000000	nontarget	11.000000	na
74.149751	0.050309	84.000000	nontarget	12.000000	na
74.200060	0.050053	84.000000	nontarget	13.000000	na
74.250113	0.049578	84.000000	nontarget	14.000000	na
74.299691	0.050357	84.000000	nontarget	15.000000	na
74.350048	0.050021	84.000000	nontarget	16.000000	na
74.400068	0.049598	85.000000	target	1.000000	na
74.449666	0.050280	85.000000	target	2.000000	na
74.499946	0.049747	85.000000	target	3.000000	na
74.549693	0.050586	85.000000	target	4.000000	na
74.600279	0.049315	85.000000	target	5.000000	na
74.649594	0.050463	85.000000	target	6.000000	na
74.700057	0.049978	85.000000	target	7.000000	na
74.750035	0.050017	85.000000	target	8.000000	na
74.800052	0.050079	85.000000	target	9.000000	na
74.850130	0.049886	85.000000	target	10.000000	na
74.900017	0.049638	85.000000	target	11.000000	na
74.949655	0.050740	85.000000	target	12.000000	na
75.000395	0.049417	85.000000	target	13.000000	na
75.049812	0.050182	85.000000	target	14.000000	na
75.099994	0.050245	85.000000	target	15.000000	na
75.150239	0.049994	85.000000	target	16.000000	na
75.200234	0.049411	86.000000	nontarget	1.000000	na
75.249645	0.050406	86.000000	nontarget	2.000000	na
75.300051	0.050263	86.000000	nontarget	3.000000	75.331692
75.350314	0.049853	86.000000	nontarget	4.000000	na
75.400167	0.050125	86.000000	nontarget	5.000000	na
75.450293	0.049193	86.000000	nontarget	6.000000	na
75.499486	0.050728	86.000000	nontarget	7.000000	na
75.550214	0.049820	86.000000	nontarget	8.000000	na
75.600034	0.049467	86.000000	nontarget	9.000000	na
75.649501	0.050566	86.000000	nontarget	10.000000	na
75.700066	0.050036	86.000000	nontarget	11.000000	na
75.750102	0.049705	86.000000	nontarget	12.000000	na
75.799807	0.050205	86.000000	nontarget	13.000000	na
75.850012	0.049806	86.000000	nontarget	14.000000	na
75.899818	0.050238	86.000000	nontarget	15.000000	na
75.950056	0.050274	86.000000	nontarget	16.000000	na
76.000330	0.049826	87.000000	nontarget	1.000000	na
76.050156	0.049911	87.000000	nontarget	2.000000	na
76.100067	0.050305	87.000000	nontarget	3.000000	na
76.150372	0.049181	87.000000	nontarget	4.000000	na
76.199554	0.050541	87.000000	nontarget	5.000000	76.214829
76.250095	0.049146	87.000000	nontarget	6.000000	na
76.299241	0.050634	87.000000	nontarget	7.000000	na
76.349875	0.049968	87.000000	nontarget	8.000000	na
76.399844	0.049785	87.000000	nontarget	9.000000	na
76.449628	0.050412	87.000000	nontarget	10.000000	na
76.500040	0.050002	87.000000	nontarget	11.000000	na
76.550042	0.049597	87.000000	nontarget	12.000000	na
76.599639	0.050087	87.000000	nontarget	13.000000	na
76.649726	0.050324	87.000000	nontarget	14.000000	na
76.700050	0.050074	87.000000	nontarget	15.000000	na
76.750124	0.049916	87.000000	nontarget	16.000000	na
76.800040	0.050072	88.000000	nontarget	1.000000	na
76.850112	0.049512	88.000000	nontarget	2.000000	na
76.899624	0.050602	88.000000	nontarget	3.000000	na
76.950226	0.051421	88.000000	nontarget	4.000000	na
77.001647	0.047995	88.000000	nontarget	5.000000	na
77.049642	0.050063	88.000000	nontarget	6.000000	na
77.099705	0.050536	88.000000	nontarget	7.000000	na
77.150241	0.048898	88.000000	nontarget	8.000000	na
77.199139	0.051206	88.000000	nontarget	9.000000	77.207880
77.250345	0.049344	88.000000	nontarget	10.000000	na
77.299688	0.049472	88.000000	nontarget	11.000000	na
77.349161	0.050894	88.000000	nontarget	12.000000	na
77.400054	0.049614	88.000000	nontarget	13.000000	na
77.449668	0.050405	88.000000	nontarget	14.000000	na
77.500073	0.050126	88.000000	nontarget	15.000000	na
77.550200	0.049488	88.000000	nontarget	16.000000	na
77.599688	0.050273	89.000000	nontarget	1.000000	na
77.649962	0.049789	89.000000	nontarget	2.000000	na
77.699750	0.050380	89.000000	nontarget	3.000000	na
77.750130	0.049864	89.000000	nontarget	4.000000	na
77.799994	0.049940	89.000000	nontarget	5.000000	na
77.849934	0.050058	89.000000	nontarget	6.000000	na
77.899993	0.050040	89.000000	nontarget	7.000000	na
77.950033	0.050590	89.000000	nontarget	8.000000	na
78.000623	0.049440	89.000000	nontarget	9.000000	na
78.050062	0.050014	89.000000	nontarget	10.000000	na
78.100076	0.049827	89.000000	nontarget	11.000000	na
78.149903	0.050059	89.000000	nontarget	12.000000	na
78.199963	0.049980	89.000000	nontarget	13.000000	na
78.249943	0.050117	89.000000	nontarget	14.000000	na
78.300060	0.049740	89.000000	nontarget	15.000000	na
78.349800	0.049791	89.000000	nontarget	16.000000	na
78.399591	0.049972	90.000000	nontarget	1.000000	na
78.449563	0.050520	90.000000	nontarget	2.000000	78.479841
78.500083	0.049536	90.000000	nontarget	3.000000	na
78.549619	0.050446	90.000000	nontarget	4.000000	na
78.600065	0.049795	90.000000	nontarget	5.000000	na
78.649860	0.050201	90.000000	nontarget	6.000000	na
78.700061	0.050146	90.000000	nontarget	7.000000	na
78.750208	0.049811	90.000000	nontarget	8.000000	na
78.800019	0.050182	90.000000	nontarget	9.000000	na
78.850201	0.049866	90.000000	nontarget	10.000000	na
78.900068	0.049949	90.000000	nontarget	11.000000	na
78.950017	0.050290	90.000000	nontarget	12.000000	na
79.000307	0.049755	90.000000	nontarget	13.000000	na
79.050063	0.050107	90.000000	nontarget	14.000000	na
79.100170	0.049878	90.000000	nontarget	15.000000	na
79.150048	0.049605	90.000000	nontarget	16.000000	na
79.199653	0.050394	91.000000	nontarget	1.000000	79.215348
79.250047	0.050081	91.000000	nontarget	2.000000	na
79.300127	0.049470	91.000000	nontarget	3.000000	na
79.349598	0.049882	91.000000	nontarget	4.000000	na
79.399480	0.050110	91.000000	nontarget	5.000000	na
79.449590	0.050429	91.000000	nontarget	6.000000	na
79.500018	0.050014	91.000000	nontarget	7.000000	na
79.550033	0.050094	91.000000	nontarget	8.000000	na
79.600126	0.049471	91.000000	nontarget	9.000000	na
79.649598	0.050420	91.000000	nontarget	10.000000	na
79.700017	0.050068	91.000000	nontarget	11.000000	na
79.750085	0.049956	91.000000	nontarget	12.000000	na
79.800042	0.049984	91.000000	nontarget	13.000000	na
79.850025	0.050134	91.000000	nontarget	14.000000	na
79.900159	0.049429	91.000000	nontarget	15.000000	na
79.949588	0.051114	91.000000	nontarget	16.000000	na
80.000702	0.049384	92.000000	nontarget	1.000000	80.023667
80.050086	0.050128	92.000000	nontarget	2.000000	na
80.100214	0.049366	92.000000	nontarget	3.000000	na
80.149580	0.050234	92.000000	nontarget	4.000000	na
80.199814	0.049807	92.000000	nontarget	5.000000	na
80.249620	0.049962	92.000000	nontarget	6.000000	na
80.299582	0.050497	92.000000	nontarget	7.000000	na
80.350079	0.049868	92.000000	nontarget	8.000000	na
80.399947	0.050097	92.000000	nontarget	9.000000	na
80.450044	0.049964	92.000000	nontarget	10.000000	na
80.500009	0.049971	92.000000	nontarget	11.000000	na
80.549980	0.050062	92.000000	nontarget	12.000000	na
80.600042	0.049966	92.000000	nontarget	13.000000	na
80.650008	0.050032	92.000000	nontarget	14.000000	na
80.700041	0.050211	92.000000	nontarget	15.000000	na
80.750252	0.049873	92.000000	nontarget	16.000000	na
80.800125	0.049790	93.000000	nontarget	1.000000	na
80.849915	0.050279	93.000000	nontarget	2.000000	na
80.900193	0.049363	93.000000	nontarget	3.000000	na
80.949556	0.055112	93.000000	nontarget	4.000000	na
81.004668	0.053170	93.000000	nontarget	5.000000	81.040363
81.057838	0.041998	93.000000	nontarget	6.000000	na
81.099836	0.050402	93.000000	nontarget	7.000000	na
81.150238	0.049280	93.000000	nontarget	8.000000	na
81.199518	0.050164	93.000000	nontarget	9.000000	na
81.249682	0.049851	93.000000	nontarget	10.000000	na
81.299533	0.050532	93.000000	nontarget	11.000000	na
81.350065	0.049976	93.000000	nontarget	12.000000	na
81.400041	0.049977	93.000000	nontarget	13.000000	na
81.450018	0.050014	93.000000	nontarget	14.000000	na
81.500032	0.049543	93.000000	nontarget	15.000000	na
81.549575	0.049976	93.000000	nontarget	16.000000	na
81.599551	0.050660	94.000000	nontarget	1.000000	na
81.650210	0.049340	94.000000	nontarget	2.000000	na
81.699551	0.050506	94.000000	nontarget	3.000000	na
81.750057	0.050131	94.000000	nontarget	4.000000	na
81.800188	0.050977	94.000000	nontarget	5.000000	na
81.851165	0.048867	94.000000	nontarget	6.000000	81.857718
81.900032	0.049987	94.000000	nontarget	7.000000	na
81.950019	0.050400	94.000000	nontarget	8.000000	na
82.000419	0.049617	94.000000	nontarget	9.000000	na
82.050036	0.050068	94.000000	nontarget	10.000000	na
82.100104	0.049569	94.000000	nontarget	11.000000	na
82.149673	0.050377	94.000000	nontarget	12.000000	na
82.200050	0.049663	94.000000	nontarget	13.000000	na
82.249713	0.050346	94.000000	nontarget	14.000000	na
82.300058	0.049414	94.000000	nontarget	15.000000	na
82.349473	0.050759	94.000000	nontarget	16.000000	na
82.400232	0.049838	95.000000	nontarget	1.000000	na
82.450070	0.049479	95.000000	nontarget	2.000000	na
82.499549	0.050511	95.000000	nontarget	3.000000	na
82.550060	0.049986	95.000000	nontarget	4.000000	na
82.600045	0.049750	95.000000	nontarget	5.000000	na
82.649796	0.050258	95.000000	nontarget	6.000000	na
82.700054	0.049997	95.000000	nontarget	7.000000	na
82.750051	0.049533	95.000000	nontarget	8.000000	na
82.799584	0.050471	95.000000	nontarget	9.000000	na
82.850055	0.050000	95.000000	nontarget	10.000000	na
82.900055	0.050090	95.000000	nontarget	11.000000	na
82.950145	0.057808	95.000000	nontarget	12.000000	82.984492
83.007954	0.041243	95.000000	nontarget	13.000000	na
83.049197	0.050813	95.000000	nontarget	14.000000	na
83.100010	0.049694	95.000000	nontarget	15.000000	na
83.149704	0.050363	95.000000	nontarget	16.000000	na
83.200067	0.049945	96.000000	nontarget	1.000000	na
83.250012	0.050022	96.000000	nontarget	2.000000	na
83.300034	0.049716	96.000000	nontarget	3.000000	na
83.349750	0.049959	96.000000	nontarget	4.000000	na
83.399709	0.050217	96.000000	nontarget	5.000000	na
83.449926	0.049522	96.000000	nontarget	6.000000	na
83.499449	0.050586	96.000000	nontarget	7.000000	na
83.550035	0.049985	96.000000	nontarget	8.000000	na
83.600019	0.049968	96.000000	nontarget	9.000000	na
83.649988	0.049554	96.000000	nontarget	10.000000	na
83.699542	0.050522	96.000000	nontarget	11.000000	na
83.750064	0.049567	96.000000	nontarget	12.000000	na
83.799631	0.050651	96.000000	nontarget	13.000000	na
83.850282	0.049841	96.000000	nontarget	14.000000	na
83.900123	0.049897	96.000000	nontarget	15.000000	na
83.950020	0.050573	96.000000	nontarget	16.000000	na
84.000593	0.049164	97.000000	target	1.000000	na
84.049757	0.049832	97.000000	target	2.000000	na
84.099590	0.050143	97.000000	target	3.000000	na
84.149733	0.050308	97.000000	target	4.000000	na
84.200040	0.049452	97.000000	target	5.000000	na
84.249492	0.050558	97.000000	target	6.000000	na
84.300050	0.049476	97.000000	target	7.000000	na
84.349526	0.050516	97.000000	target	8.000000	na
84.400042	0.049988	97.000000	target	9.000000	na
84.450031	0.049427	97.000000	target	10.000000	na
84.499458	0.050567	97.000000	target	11.000000	na
84.550025	0.049612	97.000000	target	12.000000	na
84.599637	0.049888	97.000000	target	13.000000	na
84.649525	0.050470	97.000000	target	14.000000	na
84.699995	0.049859	97.000000	target	15.000000	na
84.749854	0.049641	97.000000	target	16.000000	na
84.799495	0.050690	98.000000	nontarget	1.000000	na
84.850185	0.049215	98.000000	nontarget	2.000000	84.861406
84.899400	0.050665	98.000000	nontarget	3.000000	na
84.950065	0.050796	98.000000	nontarget	4.000000	na
85.000860	0.049057	98.000000	nontarget	5.000000	na
85.049918	0.049826	98.000000	nontarget	6.000000	na
85.099743	0.050464	98.000000	nontarget	7.000000	na
85.150207	0.049191	98.000000	nontarget	8.000000	na
85.199399	0.050483	98.000000	nontarget	9.000000	na
85.249882	0.050025	98.000000	nontarget	10.000000	na
85.299907	0.050006	98.000000	nontarget	11.000000	na
85.349913	0.050037	98.000000	nontarget	12.000000	na
85.399950	0.049510	98.000000	nontarget	13.000000	na
85.449459	0.050545	98.000000	nontarget	14.000000	na
85.500004	0.049537	98.000000	nontarget	15.000000	na
85.549541	0.050625	98.000000	nontarget	16.000000	na
85.600167	0.049877	99.000000	nontarget	1.000000	na
85.650044	0.049947	99.000000	nontarget	2.000000	na
85.699991	0.050075	99.000000	nontarget	3.000000	na
85.750067	0.049978	99.000000	nontarget	4.000000	na
85.800045	0.049779	99.000000	nontarget	5.000000	na
85.849824	0.049966	99.000000	nontarget	6.000000	85.856377
85.899790	0.050308	99.000000	nontarget	7.000000	na
85.950098	0.050725	99.000000	nontarget	8.000000	na
86.000824	0.049479	99.000000	nontarget	9.000000	na
86.050302	0.049420	99.000000	nontarget	10.000000	na
86.099723	0.050421	99.000000	nontarget	11.000000	na
86.150144	0.049352	99.000000	nontarget	12.000000	na
86.199496	0.050752	99.000000	nontarget	13.000000	na
86.250248	0.049782	99.000000	nontarget	14.000000	na
86.300030	0.050102	99.000000	nontarget	15.000000	na
86.350132	0.049888	99.000000	nontarget	16.000000	na
86.400020	0.049986	100.000000	nontarget	1.000000	na
86.450005	0.049947	100.000000	nontarget	2.000000	na
86.499953	0.050066	100.000000	nontarget	3.000000	na
86.550019	0.049383	100.000000	nontarget	4.000000	na
86.599402	0.050643	100.000000	nontarget	5.000000	na
86.650045	0.049285	100.000000	nontarget	6.000000	na
86.699330	0.050785	100.000000	nontarget	7.000000	na
86.750115	0.049662	100.000000	nontarget	8.000000	86.761610
86.799777	0.050005	100.000000	nontarget	9.000000	na
86.849782	0.050309	100.000000	nontarget	10.000000	na
86.900090	0.049617	100.000000	nontarget	11.000000	na
86.949707	0.050907	100.000000	nontarget	12.000000	na
87.000614	0.049073	100.000000	nontarget	13.000000	na
87.049687	0.050459	100.000000	nontarget	14.000000	na
87.100146	0.049940	100.000000	nontarget	15.000000	na
87.150086	0.049956	100.000000	nontarget	16.000000	na
87.200042	0.050093	101.000000	nontarget	1.000000	na
87.250135	0.049937	101.000000	nontarget	2.000000	na
87.300072	0.050143	101.000000	nontarget	3.000000	na
87.350216	0.049691	101.000000	nontarget	4.000000	na
87.399907	0.050263	101.000000	nontarget	5.000000	na
87.450169	0.049906	101.000000	nontarget	6.000000	na
87.500075	0.049972	101.000000	nontarget	7.000000	na
87.550047	0.049992	101.000000	nontarget	8.000000	na
87.600039	0.050010	101.000000	nontarget	9.000000	na
87.650049	0.049458	101.000000	nontarget	10.000000	na
87.699507	0.050048	101.000000	nontarget	11.000000	na
87.749555	0.049912	101.000000	nontarget	12.000000	na
87.799467	0.050047	101.000000	nontarget	13.000000	na
87.849514	0.050196	101.000000	nontarget	14.000000	87.883868
87.899710	0.050038	101.000000	nontarget	15.000000	na
87.949747	0.050922	101.000000	nontarget	16.000000	na
88.000669	0.048876	102.000000	nontarget	1.000000	88.007196
88.049545	0.050475	102.000000	nontarget	2.000000	na
88.100021	0.049996	102.000000	nontarget	3.000000	na
88.150017	0.050185	102.000000	nontarget	4.000000	na
88.200202	0.049601	102.000000	nontarget	5.000000	na
88.249803	0.050269	102.000000	nontarget	6.000000	na
88.300072	0.050081	102.000000	nontarget	7.000000	na
88.350153	0.049792	102.000000	nontarget	8.000000	na
88.399945	0.050088	102.000000	nontarget	9.000000	na
88.450033	0.050037	102.000000	nontarget	10.000000	na
88.500070	0.049864	102.000000	nontarget	11.000000	na
88.549934	0.049594	102.000000	nontarget	12.000000	na
88.599528	0.050506	102.000000	nontarget	13.000000	na
88.650034	0.049996	102.000000	nontarget	14.000000	na
88.700030	0.050017	102.000000	nontarget	15.000000	na
88.750048	0.049868	102.000000	nontarget	16.000000	na
88.799916	0.049963	103.000000	nontarget	1.000000	na
88.849879	0.049936	103.000000	nontarget	2.000000	na
88.899815	0.049682	103.000000	nontarget	3.000000	na
88.949497	0.054046	103.000000	nontarget	4.000000	88.984146
89.003544	0.046375	103.000000	nontarget	5.000000	na
89.049919	0.049771	103.000000	nontarget	6.000000	na
89.099690	0.050094	103.000000	nontarget	7.000000	na
89.149783	0.050139	103.000000	nontarget	8.000000	na
89.199923	0.049622	103.000000	nontarget	9.000000	na
89.249544	0.050423	103.000000	nontarget	10.000000	na
89.299967	0.050174	103.000000	nontarget	11.000000	na
89.350141	0.050155	103.000000	nontarget	12.000000	na
89.400296	0.049517	103.000000	nontarget	13.000000	na
89.449813	0.050252	103.000000	nontarget	14.000000	na
89.500065	0.050142	103.000000	nontarget	15.000000	na
89.550207	0.049214	103.000000	nontarget	16.000000	na
89.599422	0.050781	104.000000	nontarget	1.000000	na
89.650202	0.049693	104.000000	nontarget	2.000000	na
89.699895	0.049546	104.000000	nontarget	3.000000	na
89.749441	0.050788	104.000000	nontarget	4.000000	na
89.800229	0.049188	104.000000	nontarget	5.000000	na
89.849417	0.050765	104.000000	nontarget	6.000000	na
89.900182	0.049886	104.000000	nontarget	7.000000	na
89.950067	0.050675	104.000000	nontarget	8.000000	na
90.000742	0.049381	104.000000	nontarget	9.000000	na
90.050124	0.049983	104.000000	nontarget	10.000000	na
90.100106	0.049910	104.000000	nontarget	11.000000	na
90.150017	0.051228	104.000000	nontarget	12.000000	na
90.201244	0.048614	104.000000	nontarget	13.000000	90.207299
90.249858	0.050175	104.000000	nontarget	14.000000	na
90.300033	0.050200	104.000000	nontarget	15.000000	na
90.350233	0.049252	104.000000	nontarget	16.000000	na
90.399485	0.049933	105.000000	nontarget	1.000000	na
90.449418	0.050550	105.000000	nontarget	2.000000	na
90.499967	0.050133	105.000000	nontarget	3.000000	na
90.550100	0.049920	105.000000	nontarget	4.000000	na
90.600020	0.049415	105.000000	nontarget	5.000000	na
90.649435	0.050642	105.000000	nontarget	6.000000	na
90.700077	0.049977	105.000000	nontarget	7.000000	na
90.750053	0.049995	105.000000	nontarget	8.000000	na
90.800049	0.049367	105.000000	nontarget	9.000000	na
90.849415	0.050827	105.000000	nontarget	10.000000	na
90.900242	0.049004	105.000000	nontarget	11.000000	na
90.949247	0.051423	105.000000	nontarget	12.000000	na
91.000670	0.049349	105.000000	nontarget	13.000000	na
91.050019	0.050133	105.000000	nontarget	14.000000	na
91.100152	0.049996	105.000000	nontarget	15.000000	na
91.150148	0.049384	105.000000	nontarget	16.000000	na
91.199532	0.049977	106.000000	nontarget	1.000000	91.218526
91.249509	0.050356	106.000000	nontarget	2.000000	na
91.299866	0.050561	106.000000	nontarget	3.000000	na
91.350426	0.049367	106.000000	nontarget	4.000000	na
91.399794	0.050102	106.000000	nontarget	5.000000	na
91.449896	0.050126	106.000000	nontarget	6.000000	na
91.500022	0.050058	106.000000	nontarget	7.000000	na
91.550081	0.049268	106.000000	nontarget	8.000000	na
91.599349	0.050261	106.000000	nontarget	9.000000	na
91.649609	0.050580	106.000000	nontarget	10.000000	na
91.700189	0.049946	106.000000	nontarget	11.000000	na
91.750135	0.049801	106.000000	nontarget	12.000000	na
91.799936	0.049963	106.000000	nontarget	13.000000	na
91.849899	0.050379	106.000000	nontarget	14.000000	na
91.900279	0.049114	106.000000	nontarget	15.000000	na
91.949392	0.051325	106.000000	nontarget	16.000000	na
92.000718	0.048966	107.000000	nontarget	1.000000	na
92.049684	0.049621	107.000000	nontarget	2.000000	na
92.099305	0.050746	107.000000	nontarget	3.000000	na
92.150051	0.049415	107.000000	nontarget	4.000000	92.161602
92.199466	0.050654	107.000000	nontarget	5.000000	na
92.250120	0.049951	107.000000	nontarget	6.000000	na
92.300071	0.049956	107.000000	nontarget	7.000000	na
92.350026	0.049404	107.000000	nontarget	8.000000	na
92.399431	0.050254	107.000000	nontarget	9.000000	na
92.449685	0.050069	107.000000	nontarget	10.000000	na
92.499754	0.049930	107.000000	nontarget	11.000000	na
92.549684	0.050515	107.000000	nontarget	12.000000	na
92.600199	0.049204	107.000000	nontarget	13.000000	na
92.649403	0.050544	107.000000	nontarget	14.000000	na
92.699947	0.050093	107.000000	nontarget	15.000000	na
92.750040	0.049720	107.000000	nontarget	16.000000	na
92.799760	0.049674	108.000000	nontarget	1.000000	na
92.849434	0.050558	108.000000	nontarget	2.000000	na
92.899991	0.049890	108.000000	nontarget	3.000000	na
92.949881	0.161888	108.000000	nontarget	4.000000	na
93.111769	0.042545	108.000000	nontarget	5.000000	na
93.154314	0.044930	108.000000	nontarget	6.000000	na
93.199244	0.050165	108.000000	nontarget	7.000000	93.207711
93.249409	0.049961	108.000000	nontarget	8.000000	na
93.299369	0.049863	108.000000	nontarget	9.000000	na
93.349233	0.050702	108.000000	nontarget	10.000000	na
93.399935	0.050013	108.000000	nontarget	11.000000	na
93.449948	0.050105	108.000000	nontarget	12.000000	na
93.500053	0.050000	108.000000	nontarget	13.000000	na
93.550053	0.050167	108.000000	nontarget	14.000000	na
93.600220	0.049215	108.000000	nontarget	15.000000	na
93.649434	0.050628	108.000000	nontarget	16.000000	na
93.700063	0.050015	109.000000	nontarget	1.000000	na
93.750078	0.049600	109.000000	nontarget	2.000000	na
93.799678	0.050350	109.000000	nontarget	3.000000	na
93.850028	0.049618	109.000000	nontarget	4.000000	na
93.899646	0.050434	109.000000	nontarget	5.000000	na
93.950080	0.054269	109.000000	nontarget	6.000000	na
94.004349	0.046046	109.000000	nontarget	7.000000	94.008910
94.050395	0.048998	109.000000	nontarget	8.000000	na
94.099394	0.050744	109.000000	nontarget	9.000000	na
94.150138	0.049921	109.000000	nontarget	10.000000	na
94.200058	0.049534	109.000000	nontarget	11.000000	na
94.249593	0.049681	109.000000	nontarget	12.000000	na
94.299273	0.050796	109.000000	nontarget	13.000000	na
94.350069	0.049512	109.000000	nontarget	14.000000	na
94.399581	0.050669	109.000000	nontarget	15.000000	na
94.450249	0.049780	109.000000	nontarget	16.000000	na
94.500030	0.050053	110.000000	nontarget	1.000000	na
94.550082	0.049963	110.000000	nontarget	2.000000	na
94.600045	0.049242	110.000000	nontarget	3.000000	na
94.649287	0.050812	110.000000	nontarget	4.000000	na
94.700099	0.050127	110.000000	nontarget	5.000000	na
94.750226	0.049993	110.000000	nontarget	6.000000	na
94.800219	0.049812	110.000000	nontarget	7.000000	na
94.850032	0.049315	110.000000	nontarget	8.000000	na
94.899346	0.050729	110.000000	nontarget	9.000000	na
94.950075	0.050743	110.000000	nontarget	10.000000	na
95.000818	0.049294	110.000000	nontarget	11.000000	95.016491
95.050112	0.049085	110.000000	nontarget	12.000000	na
95.099197	0.050961	110.000000	nontarget	13.000000	na
95.150158	0.049542	110.000000	nontarget	14.000000	na
95.199700	0.049636	110.000000	nontarget	15.000000	na
95.249336	0.050751	110.000000	nontarget	16.000000	na
95.300087	0.049193	111.000000	nontarget	1.000000	na
95.349280	0.050795	111.000000	nontarget	2.000000	na
95.400074	0.049982	111.000000	nontarget	3.000000	na
95.450057	0.050119	111.000000	nontarget	4.000000	na
95.500175	0.049302	111.000000	nontarget	5.000000	na
95.549477	0.050566	111.000000	nontarget	6.000000	na
95.600043	0.050004	111.000000	nontarget	7.000000	na
95.650047	0.049292	111.000000	nontarget	8.000000	na
95.699338	0.050754	111.000000	nontarget	9.000000	na
95.750093	0.049821	111.000000	nontarget	10.000000	na
95.799914	0.049458	111.000000	nontarget	11.000000	na
95.849372	0.050487	111.000000	nontarget	12.000000	na
95.899859	0.049278	111.000000	nontarget	13.000000	na
95.949138	0.051526	111.000000	nontarget	14.000000	na
96.000664	0.049435	111.000000	nontarget	15.000000	na
96.050099	0.049300	111.000000	nontarget	16.000000	na
96.099398	0.050669	112.000000	target	1.000000	na
96.150067	0.049712	112.000000	target	2.000000	na
96.199780	0.050276	112.000000	target	3.000000	na
96.250056	0.050027	112.000000	target	4.000000	na
96.300083	0.049921	112.000000	target	5.000000	na
96.350004	0.050044	112.000000	target	6.000000	na
96.400049	0.049293	112.000000	target	7.000000	na
96.449342	0.050723	112.000000	target	8.000000	na
96.500065	0.050061	112.000000	target	9.000000	na
96.550126	0.050132	112.000000	target	10.000000	na
96.600258	0.049931	112.000000	target	11.000000	na
96.650189	0.049876	112.000000	target	12.000000	na
96.700065	0.049992	112.000000	target	13.000000	na
96.750058	0.049959	112.000000	target	14.000000	na
96.800017	0.050032	112.000000	target	15.000000	na
96.850049	0.050003	112.000000	target	16.000000	na
96.900052	0.050091	113.000000	nontarget	1.000000	na
96.950144	0.057073	113.000000	nontarget	2.000000	96.984792
97.007217	0.042105	113.000000	nontarget	3.000000	na
97.049322	0.050984	113.000000	nontarget	4.000000	na
97.100306	0.048973	113.000000	nontarget	5.000000	na
97.149279	0.050779	113.000000	nontarget	6.000000	na
97.200058	0.050305	113.000000	nontarget	7.000000	na
97.250363	0.049686	113.000000	nontarget	8.000000	na
97.300050	0.050004	113.000000	nontarget	9.000000	na
97.350053	0.050000	113.000000	nontarget	10.000000	na
97.400054	0.049988	113.000000	nontarget	11.000000	na
97.450041	0.050294	113.000000	nontarget	12.000000	na
97.500335	0.050057	113.000000	nontarget	13.000000	na
97.550392	0.049196	113.000000	nontarget	14.000000	na
97.599588	0.050736	113.000000	nontarget	15.000000	na
97.650324	0.049440	113.000000	nontarget	16.000000	na
97.699765	0.050592	114.000000	nontarget	1.000000	na
97.750357	0.050014	114.000000	nontarget	2.000000	na
97.800371	0.050074	114.000000	nontarget	3.000000	na
97.850444	0.049384	114.000000	nontarget	4.000000	na
97.899829	0.050559	114.000000	nontarget	5.000000	97.908254
97.950388	0.050269	114.000000	nontarget	6.000000	na
98.000657	0.049228	114.000000	nontarget	7.000000	na
98.049885	0.050246	114.000000	nontarget	8.000000	na
98.100131	0.050090	114.000000	nontarget	9.000000	na
98.150221	0.050269	114.000000	nontarget	10.000000	na
98.200490	0.049565	114.000000	nontarget	11.000000	na
98.250055	0.050006	114.000000	nontarget	12.000000	na
98.300061	0.050047	114.000000	nontarget	13.000000	na
98.350109	0.050281	114.000000	nontarget	14.000000	na
98.400390	0.049119	114.000000	nontarget	15.000000	na
98.449509	0.050478	114.000000	nontarget	16.000000	na
98.499987	0.049878	115.000000	nontarget	1.000000	na
98.549865	0.050389	115.000000	nontarget	2.000000	na
98.600254	0.049802	115.000000	nontarget	3.000000	na
98.650056	0.050273	115.000000	nontarget	4.000000	na
98.700329	0.049827	115.000000	nontarget	5.000000	na
98.750156	0.050053	115.000000	nontarget	6.000000	na
98.800209	0.049785	115.000000	nontarget	7.000000	na
98.849994	0.049801	115.000000	nontarget	8.000000	na
98.899795	0.050521	115.000000	nontarget	9.000000	98.910969
98.950316	0.050262	115.000000	nontarget	10.000000	na
99.000578	0.049550	115.000000	nontarget	11.000000	na
99.050128	0.050273	115.000000	nontarget	12.000000	na
99.100401	0.049981	115.000000	nontarget	13.000000	na
99.150382	0.049929	115.000000	nontarget	14.000000	na
99.200311	0.049980	115.000000	nontarget	15.000000	na
99.250291	0.049750	115.000000	nontarget	16.000000	na
99.300041	0.050026	116.000000	nontarget	1.000000	na
99.350067	0.049951	116.000000	nontarget	2.000000	na
99.400019	0.050526	116.000000	nontarget	3.000000	na
99.450545	0.049207	116.000000	nontarget	4.000000	na
99.499752	0.050115	116.000000	nontarget	5.000000	na
99.549867	0.049738	116.000000	nontarget	6.000000	na
99.599605	0.050593	116.000000	nontarget	7.000000	na
99.650198	0.050004	116.000000	nontarget	8.000000	na
99.700201	0.049707	116.000000	nontarget	9.000000	na
99.749908	0.050066	116.000000	nontarget	10.000000	na
99.799974	0.050105	116.000000	nontarget	11.000000	na
99.850079	0.050510	116.000000	nontarget	12.000000	99.865762
99.900590	0.049557	116.000000	nontarget	13.000000	na
99.950147	0.050470	116.000000	nontarget	14.000000	na
100.000617	0.049081	116.000000	nontarget	15.000000	na
100.049698	0.050135	116.000000	nontarget	16.000000	na
100.099833	0.050339	117.000000	nontarget	1.000000	na
100.150173	0.050142	117.000000	nontarget	2.000000	na
100.200315	0.049014	117.000000	nontarget	3.000000	na
100.249329	0.050697	117.000000	nontarget	4.000000	na
100.300026	0.049349	117.000000	nontarget	5.000000	na
100.349375	0.050506	117.000000	nontarget	6.000000	na
100.399882	0.049716	117.000000	nontarget	7.000000	na
100.449597	0.050751	117.000000	nontarget	8.000000	na
100.500348	0.049943	117.000000	nontarget	9.000000	na
100.550291	0.050001	117.000000	nontarget	10.000000	na
100.600292	0.049776	117.000000	nontarget	11.000000	na
100.650068	0.050222	117.000000	nontarget	12.000000	na
100.700290	0.049933	117.000000	nontarget	13.000000	na
100.750223	0.050011	117.000000	nontarget	14.000000	na
100.800234	0.050282	117.000000	nontarget	15.000000	na
100.850516	0.049486	117.000000	nontarget	16.000000	na
100.900002	0.050236	118.000000	nontarget	1.000000	100.927560
100.950238	0.050358	118.000000	nontarget	2.000000	na
101.000596	0.049063	118.000000	nontarget	3.000000	na
101.049659	0.050667	118.000000	nontarget	4.000000	na
101.100326	0.050195	118.000000	nontarget	5.000000	na
101.150521	0.048728	118.000000	nontarget	6.000000	na
101.199249	0.050686	118.000000	nontarget	7.000000	na
101.249935	0.049674	118.000000	nontarget	8.000000	na
101.299610	0.050435	118.000000	nontarget	9.000000	na
101.350044	0.049919	118.000000	nontarget	10.000000	na
101.399963	0.049744	118.000000	nontarget	11.000000	na
101.449707	0.050586	118.000000	nontarget	12.000000	na
101.500293	0.049999	118.000000	nontarget	13.000000	na
101.550292	0.050219	118.000000	nontarget	14.000000	na
101.600511	0.049089	118.000000	nontarget	15.000000	na
101.649601	0.050206	118.000000	nontarget	16.000000	na
101.699806	0.050550	119.000000	nontarget	1.000000	na
101.750356	0.049714	119.000000	nontarget	2.000000	na
101.800070	0.049992	119.000000	nontarget	3.000000	na
101.850062	0.049989	119.000000	nontarget	4.000000	na
101.900051	0.050458	119.000000	nontarget	5.000000	101.935327
101.950509	0.050025	119.000000	nontarget	6.000000	na
102.000534	0.049417	119.000000	nontarget	7.000000	na
102.049952	0.050057	119.000000	nontarget	8.000000	na
102.100009	0.050255	119.000000	nontarget	9.000000	na
102.150264	0.049180	119.000000	nontarget	10.000000	na
102.199443	0.050661	119.000000	nontarget	11.000000	na
102.250104	0.049066	119.000000	nontarget	12.000000	na
102.299170	0.050896	119.000000	nontarget	13.000000	na
102.350066	0.049895	119.000000	nontarget	14.000000	na
102.399961	0.050292	119.000000	nontarget	15.000000	na
102.450252	0.049573	119.000000	nontarget	16.000000	na
102.499825	0.049666	120.000000	nontarget	1.000000	na
102.549491	0.050740	120.000000	nontarget	2.000000	na
102.600231	0.049837	120.000000	nontarget	3.000000	na
102.650069	0.049470	120.000000	nontarget	4.000000	na
102.699539	0.049865	120.000000	nontarget	5.000000	na
102.749404	0.050680	120.000000	nontarget	6.000000	na
102.800083	0.050056	120.000000	nontarget	7.000000	na
102.850140	0.049674	120.000000	nontarget	8.000000	na
102.899813	0.050274	120.000000	nontarget	9.000000	102.907493
102.950087	0.050502	120.000000	nontarget	10.000000	na
103.000589	0.048946	120.000000	nontarget	11.000000	na
103.049535	0.050594	120.000000	nontarget	12.000000	na
103.100129	0.049972	120.000000	nontarget	13.000000	na
103.150101	0.049912	120.000000	nontarget	14.000000	na
103.200013	0.049930	120.000000	nontarget	15.000000	na
103.249943	0.049849	120.000000	nontarget	16.000000	na
103.299792	0.049814	121.000000	nontarget	1.000000	na
103.349606	0.050664	121.000000	nontarget	2.000000	na
103.400270	0.049778	121.000000	nontarget	3.000000	na
103.450048	0.049866	121.000000	nontarget	4.000000	na
103.499914	0.050334	121.000000	nontarget	5.000000	na
103.550247	0.050013	121.000000	nontarget	6.000000	na
103.600261	0.049992	121.000000	nontarget	7.000000	na
103.650252	0.049800	121.000000	nontarget	8.000000	na
103.700053	0.049252	121.000000	nontarget	9.000000	na
103.749304	0.050832	121.000000	nontarget	10.000000	na
103.800136	0.049264	121.000000	nontarget	11.000000	na
103.849401	0.050646	121.000000	nontarget	12.000000	na
