onset	duration	trial_number	trial_type	frame_number	time_of_response
8.066118	0.049889	1.000000	nontarget	1.000000	na
8.116007	0.049996	1.000000	nontarget	2.000000	na
8.166003	0.049998	1.000000	nontarget	3.000000	na
8.216002	0.049997	1.000000	nontarget	4.000000	na
8.265998	0.049998	1.000000	nontarget	5.000000	na
8.315996	0.049997	1.000000	nontarget	6.000000	na
8.365993	0.049997	1.000000	nontarget	7.000000	na
8.415990	0.049997	1.000000	nontarget	8.000000	na
8.465987	0.049997	1.000000	nontarget	9.000000	na
8.515984	0.049997	1.000000	nontarget	10.000000	na
8.565981	0.049996	1.000000	nontarget	11.000000	na
8.615976	0.049990	1.000000	nontarget	12.000000	na
8.665967	0.050010	1.000000	nontarget	13.000000	na
8.715976	0.049997	1.000000	nontarget	14.000000	na
8.765973	0.049997	1.000000	nontarget	15.000000	8.778127
8.815970	0.049994	1.000000	nontarget	16.000000	na
8.865964	0.049995	2.000000	nontarget	1.000000	8.866931
8.915959	0.049998	2.000000	nontarget	2.000000	na
8.965957	0.049998	2.000000	nontarget	3.000000	na
9.015954	0.049996	2.000000	nontarget	4.000000	na
9.065950	0.049996	2.000000	nontarget	5.000000	na
9.115946	0.049997	2.000000	nontarget	6.000000	na
9.165943	0.049998	2.000000	nontarget	7.000000	na
9.215941	0.049996	2.000000	nontarget	8.000000	na
9.265937	0.049996	2.000000	nontarget	9.000000	na
9.315933	0.049996	2.000000	nontarget	10.000000	na
9.365929	0.050000	2.000000	nontarget	11.000000	na
9.415929	0.049996	2.000000	nontarget	12.000000	na
9.465925	0.049998	2.000000	nontarget	13.000000	na
9.515923	0.050000	2.000000	nontarget	14.000000	na
9.565923	0.049994	2.000000	nontarget	15.000000	9.566665
9.615916	0.049989	2.000000	nontarget	16.000000	na
9.665905	0.050010	3.000000	nontarget	1.000000	9.666648
9.715916	0.049997	3.000000	nontarget	2.000000	na
9.765912	0.049996	3.000000	nontarget	3.000000	na
9.815908	0.049998	3.000000	nontarget	4.000000	na
9.865906	0.049999	3.000000	nontarget	5.000000	na
9.915904	0.049997	3.000000	nontarget	6.000000	na
9.965901	0.049996	3.000000	nontarget	7.000000	na
10.015897	0.049998	3.000000	nontarget	8.000000	na
10.065895	0.049997	3.000000	nontarget	9.000000	na
10.115892	0.049997	3.000000	nontarget	10.000000	na
10.165889	0.049996	3.000000	nontarget	11.000000	na
10.215885	0.049992	3.000000	nontarget	12.000000	na
10.265877	0.049997	3.000000	nontarget	13.000000	na
10.315874	0.049998	3.000000	nontarget	14.000000	10.317247
10.365871	0.049998	3.000000	nontarget	15.000000	na
10.415870	0.049995	3.000000	nontarget	16.000000	na
10.465865	0.049998	4.000000	nontarget	1.000000	10.466605
10.515863	0.049995	4.000000	nontarget	2.000000	na
10.565858	0.049996	4.000000	nontarget	3.000000	na
10.615853	0.049992	4.000000	nontarget	4.000000	na
10.665845	0.050009	4.000000	nontarget	5.000000	na
10.715854	0.049999	4.000000	nontarget	6.000000	na
10.765852	0.049997	4.000000	nontarget	7.000000	na
10.815849	0.049997	4.000000	nontarget	8.000000	na
10.865846	0.049996	4.000000	nontarget	9.000000	na
10.915842	0.049997	4.000000	nontarget	10.000000	na
10.965839	0.049998	4.000000	nontarget	11.000000	na
11.015837	0.049998	4.000000	nontarget	12.000000	na
11.065834	0.049970	4.000000	nontarget	13.000000	na
11.115805	0.050017	4.000000	nontarget	14.000000	na
11.165822	0.049997	4.000000	nontarget	15.000000	na
11.215819	0.049998	4.000000	nontarget	16.000000	na
11.265817	0.049996	5.000000	target	1.000000	na
11.315812	0.049998	5.000000	target	2.000000	na
11.365811	0.049996	5.000000	target	3.000000	na
11.415807	0.049997	5.000000	target	4.000000	na
11.465803	0.049998	5.000000	target	5.000000	na
11.515802	0.049995	5.000000	target	6.000000	na
11.565797	0.049987	5.000000	target	7.000000	na
11.615784	0.050013	5.000000	target	8.000000	na
11.665797	0.049997	5.000000	target	9.000000	na
11.715794	0.049998	5.000000	target	10.000000	na
11.765792	0.049998	5.000000	target	11.000000	na
11.815790	0.049994	5.000000	target	12.000000	na
11.865784	0.049997	5.000000	target	13.000000	na
11.915782	0.049969	5.000000	target	14.000000	na
11.965751	0.050021	5.000000	target	15.000000	11.966473
12.015772	0.049999	5.000000	target	16.000000	na
12.065771	0.049998	6.000000	nontarget	1.000000	12.066530
12.115769	0.049992	6.000000	nontarget	2.000000	na
12.165761	0.049996	6.000000	nontarget	3.000000	na
12.215757	0.050046	6.000000	nontarget	4.000000	na
12.265802	0.050003	6.000000	nontarget	5.000000	na
12.315805	0.049989	6.000000	nontarget	6.000000	na
12.365794	0.049965	6.000000	nontarget	7.000000	na
12.415759	0.049982	6.000000	nontarget	8.000000	na
12.465741	0.050023	6.000000	nontarget	9.000000	na
12.515764	0.049994	6.000000	nontarget	10.000000	na
12.565758	0.049986	6.000000	nontarget	11.000000	na
12.615745	0.049989	6.000000	nontarget	12.000000	12.620293
12.665734	0.049974	6.000000	nontarget	13.000000	na
12.715707	0.050035	6.000000	nontarget	14.000000	na
12.765742	0.049997	6.000000	nontarget	15.000000	na
12.815739	0.049991	6.000000	nontarget	16.000000	na
12.865730	0.049991	7.000000	nontarget	1.000000	na
12.915721	0.049997	7.000000	nontarget	2.000000	na
12.965718	0.049996	7.000000	nontarget	3.000000	na
13.015714	0.050014	7.000000	nontarget	4.000000	na
13.065729	0.049982	7.000000	nontarget	5.000000	na
13.115711	0.049994	7.000000	nontarget	6.000000	na
13.165705	0.050004	7.000000	nontarget	7.000000	na
13.215710	0.049997	7.000000	nontarget	8.000000	na
13.265707	0.050003	7.000000	nontarget	9.000000	na
13.315709	0.049997	7.000000	nontarget	10.000000	na
13.365706	0.049986	7.000000	nontarget	11.000000	na
13.415692	0.049995	7.000000	nontarget	12.000000	na
13.465688	0.049998	7.000000	nontarget	13.000000	na
13.515686	0.049996	7.000000	nontarget	14.000000	na
13.565682	0.049996	7.000000	nontarget	15.000000	na
13.615678	0.049999	7.000000	nontarget	16.000000	na
13.665677	0.049995	8.000000	target	1.000000	na
13.715672	0.049991	8.000000	target	2.000000	na
13.765664	0.049996	8.000000	target	3.000000	na
13.815660	0.049997	8.000000	target	4.000000	na
13.865657	0.049997	8.000000	target	5.000000	na
13.915653	0.049999	8.000000	target	6.000000	na
13.965653	0.049995	8.000000	target	7.000000	na
14.015648	0.050007	8.000000	target	8.000000	na
14.065655	0.049988	8.000000	target	9.000000	na
14.115643	0.049998	8.000000	target	10.000000	na
14.165640	0.049996	8.000000	target	11.000000	na
14.215637	0.049997	8.000000	target	12.000000	na
14.265633	0.050000	8.000000	target	13.000000	na
14.315633	0.049995	8.000000	target	14.000000	14.316360
14.365628	0.049995	8.000000	target	15.000000	na
14.415623	0.049998	8.000000	target	16.000000	na
14.465620	0.049998	9.000000	nontarget	1.000000	na
14.515618	0.049997	9.000000	nontarget	2.000000	na
14.565615	0.049996	9.000000	nontarget	3.000000	na
14.615611	0.049998	9.000000	nontarget	4.000000	na
14.665609	0.049999	9.000000	nontarget	5.000000	na
14.715608	0.049995	9.000000	nontarget	6.000000	na
14.765603	0.050006	9.000000	nontarget	7.000000	na
14.815610	0.049986	9.000000	nontarget	8.000000	na
14.865596	0.049998	9.000000	nontarget	9.000000	na
14.915594	0.049998	9.000000	nontarget	10.000000	na
14.965591	0.049997	9.000000	nontarget	11.000000	na
15.015588	0.049996	9.000000	nontarget	12.000000	na
15.065584	0.049998	9.000000	nontarget	13.000000	na
15.115582	0.049997	9.000000	nontarget	14.000000	na
15.165580	0.049996	9.000000	nontarget	15.000000	na
15.215576	0.049997	9.000000	nontarget	16.000000	15.234249
15.265572	0.049998	10.000000	nontarget	1.000000	15.266272
15.315570	0.049996	10.000000	nontarget	2.000000	na
15.365566	0.049999	10.000000	nontarget	3.000000	na
15.415565	0.049996	10.000000	nontarget	4.000000	na
15.465561	0.049997	10.000000	nontarget	5.000000	na
15.515558	0.049996	10.000000	nontarget	6.000000	na
15.565554	0.049997	10.000000	nontarget	7.000000	na
15.615551	0.049998	10.000000	nontarget	8.000000	na
15.665549	0.049998	10.000000	nontarget	9.000000	na
15.715547	0.049995	10.000000	nontarget	10.000000	na
15.765542	0.049997	10.000000	nontarget	11.000000	na
15.815539	0.049996	10.000000	nontarget	12.000000	na
15.865535	0.049998	10.000000	nontarget	13.000000	na
15.915533	0.049998	10.000000	nontarget	14.000000	na
15.965530	0.049997	10.000000	nontarget	15.000000	na
16.015527	0.049996	10.000000	nontarget	16.000000	na
16.065523	0.049998	11.000000	nontarget	1.000000	na
16.115522	0.049996	11.000000	nontarget	2.000000	16.146175
16.165518	0.049998	11.000000	nontarget	3.000000	na
16.215515	0.049996	11.000000	nontarget	4.000000	na
16.265512	0.049999	11.000000	nontarget	5.000000	na
16.315510	0.049996	11.000000	nontarget	6.000000	na
16.365506	0.049997	11.000000	nontarget	7.000000	na
16.415503	0.049997	11.000000	nontarget	8.000000	na
16.465499	0.049999	11.000000	nontarget	9.000000	na
16.515498	0.049996	11.000000	nontarget	10.000000	na
16.565494	0.049997	11.000000	nontarget	11.000000	na
16.615491	0.050008	11.000000	nontarget	12.000000	na
16.665499	0.049970	11.000000	nontarget	13.000000	16.666241
16.715469	0.050019	11.000000	nontarget	14.000000	na
16.765488	0.049997	11.000000	nontarget	15.000000	na
16.815484	0.049997	11.000000	nontarget	16.000000	na
16.865481	0.049996	12.000000	nontarget	1.000000	na
16.915477	0.049997	12.000000	nontarget	2.000000	na
16.965475	0.049996	12.000000	nontarget	3.000000	na
17.015470	0.049998	12.000000	nontarget	4.000000	na
17.065469	0.049995	12.000000	nontarget	5.000000	na
17.115464	0.050000	12.000000	nontarget	6.000000	na
17.165464	0.049995	12.000000	nontarget	7.000000	na
17.215459	0.049999	12.000000	nontarget	8.000000	na
17.265457	0.049995	12.000000	nontarget	9.000000	na
17.315453	0.049996	12.000000	nontarget	10.000000	na
17.365449	0.049998	12.000000	nontarget	11.000000	na
17.415447	0.049996	12.000000	nontarget	12.000000	na
17.465444	0.049999	12.000000	nontarget	13.000000	na
17.515443	0.049996	12.000000	nontarget	14.000000	na
17.565439	0.049996	12.000000	nontarget	15.000000	na
17.615435	0.049998	12.000000	nontarget	16.000000	na
17.665433	0.049998	13.000000	nontarget	1.000000	17.680021
17.715431	0.049998	13.000000	nontarget	2.000000	na
17.765428	0.049997	13.000000	nontarget	3.000000	na
17.815425	0.049994	13.000000	nontarget	4.000000	na
17.865419	0.049999	13.000000	nontarget	5.000000	na
17.915418	0.049996	13.000000	nontarget	6.000000	na
17.965414	0.049998	13.000000	nontarget	7.000000	na
18.015411	0.049999	13.000000	nontarget	8.000000	na
18.065410	0.049994	13.000000	nontarget	9.000000	na
18.115405	0.049998	13.000000	nontarget	10.000000	na
18.165402	0.049997	13.000000	nontarget	11.000000	na
18.215399	0.050000	13.000000	nontarget	12.000000	na
18.265399	0.049993	13.000000	nontarget	13.000000	18.266090
18.315392	0.049992	13.000000	nontarget	14.000000	na
18.365385	0.049995	13.000000	nontarget	15.000000	na
18.415380	0.049998	13.000000	nontarget	16.000000	na
18.465377	0.049998	14.000000	nontarget	1.000000	na
18.515375	0.049997	14.000000	nontarget	2.000000	na
18.565372	0.049996	14.000000	nontarget	3.000000	na
18.615368	0.049998	14.000000	nontarget	4.000000	na
18.665366	0.049996	14.000000	nontarget	5.000000	na
18.715362	0.049998	14.000000	nontarget	6.000000	na
18.765360	0.050003	14.000000	nontarget	7.000000	na
18.815363	0.049991	14.000000	nontarget	8.000000	na
18.865354	0.049998	14.000000	nontarget	9.000000	na
18.915351	0.050000	14.000000	nontarget	10.000000	na
18.965352	0.049992	14.000000	nontarget	11.000000	na
19.015344	0.049998	14.000000	nontarget	12.000000	na
19.065342	0.049997	14.000000	nontarget	13.000000	na
19.115339	0.049996	14.000000	nontarget	14.000000	19.125074
19.165335	0.049998	14.000000	nontarget	15.000000	na
19.215333	0.049996	14.000000	nontarget	16.000000	na
19.265329	0.049998	15.000000	nontarget	1.000000	19.266019
19.315327	0.049995	15.000000	nontarget	2.000000	na
19.365322	0.050004	15.000000	nontarget	3.000000	na
19.415326	0.049991	15.000000	nontarget	4.000000	na
19.465317	0.050003	15.000000	nontarget	5.000000	na
19.515320	0.049993	15.000000	nontarget	6.000000	na
19.565312	0.049995	15.000000	nontarget	7.000000	na
19.615308	0.050000	15.000000	nontarget	8.000000	na
19.665308	0.049984	15.000000	nontarget	9.000000	na
19.715292	0.050013	15.000000	nontarget	10.000000	na
19.765305	0.049997	15.000000	nontarget	11.000000	na
19.815302	0.049995	15.000000	nontarget	12.000000	na
19.865297	0.049998	15.000000	nontarget	13.000000	na
19.915296	0.049996	15.000000	nontarget	14.000000	na
19.965292	0.049998	15.000000	nontarget	15.000000	na
20.015290	0.050000	15.000000	nontarget	16.000000	na
20.065289	0.049994	16.000000	target	1.000000	na
20.115284	0.049997	16.000000	target	2.000000	na
20.165281	0.049970	16.000000	target	3.000000	na
20.215251	0.050017	16.000000	target	4.000000	na
20.265268	0.049996	16.000000	target	5.000000	na
20.315264	0.049998	16.000000	target	6.000000	na
20.365262	0.049987	16.000000	target	7.000000	na
20.415249	0.050015	16.000000	target	8.000000	na
20.465264	0.049969	16.000000	target	9.000000	na
20.515233	0.050019	16.000000	target	10.000000	na
20.565251	0.049997	16.000000	target	11.000000	na
20.615248	0.049997	16.000000	target	12.000000	na
20.665245	0.050000	16.000000	target	13.000000	na
20.715245	0.049993	16.000000	target	14.000000	na
20.765238	0.049997	16.000000	target	15.000000	na
20.815235	0.049997	16.000000	target	16.000000	na
20.865232	0.049997	17.000000	nontarget	1.000000	na
20.915229	0.049996	17.000000	nontarget	2.000000	20.933984
20.965225	0.049999	17.000000	nontarget	3.000000	na
21.015224	0.049998	17.000000	nontarget	4.000000	na
21.065222	0.049995	17.000000	nontarget	5.000000	na
21.115217	0.049996	17.000000	nontarget	6.000000	na
21.165213	0.049997	17.000000	nontarget	7.000000	na
21.215210	0.049998	17.000000	nontarget	8.000000	na
21.265208	0.049997	17.000000	nontarget	9.000000	na
21.315205	0.049998	17.000000	nontarget	10.000000	na
21.365203	0.049996	17.000000	nontarget	11.000000	na
21.415199	0.049996	17.000000	nontarget	12.000000	na
21.465195	0.050001	17.000000	nontarget	13.000000	na
21.515196	0.050004	17.000000	nontarget	14.000000	21.515893
21.565200	0.049988	17.000000	nontarget	15.000000	na
21.615189	0.049999	17.000000	nontarget	16.000000	na
21.665188	0.049997	18.000000	nontarget	1.000000	na
21.715185	0.049993	18.000000	nontarget	2.000000	na
21.765177	0.050047	18.000000	nontarget	3.000000	na
21.815224	0.049989	18.000000	nontarget	4.000000	na
21.865214	0.049955	18.000000	nontarget	5.000000	na
21.915169	0.050011	18.000000	nontarget	6.000000	na
21.965179	0.050004	18.000000	nontarget	7.000000	na
22.015183	0.049986	18.000000	nontarget	8.000000	na
22.065170	0.049993	18.000000	nontarget	9.000000	na
22.115163	0.050000	18.000000	nontarget	10.000000	na
22.165163	0.049998	18.000000	nontarget	11.000000	na
22.215161	0.049998	18.000000	nontarget	12.000000	22.244977
22.265159	0.049998	18.000000	nontarget	13.000000	na
22.315156	0.049996	18.000000	nontarget	14.000000	na
22.365152	0.049986	18.000000	nontarget	15.000000	na
22.415138	0.049996	18.000000	nontarget	16.000000	na
22.465134	0.050007	19.000000	nontarget	1.000000	na
22.515141	0.050005	19.000000	nontarget	2.000000	na
22.565146	0.049978	19.000000	nontarget	3.000000	na
22.615124	0.049999	19.000000	nontarget	4.000000	na
22.665123	0.050011	19.000000	nontarget	5.000000	na
22.715134	0.049982	19.000000	nontarget	6.000000	na
22.765116	0.049998	19.000000	nontarget	7.000000	na
22.815115	0.049995	19.000000	nontarget	8.000000	na
22.865110	0.049998	19.000000	nontarget	9.000000	na
22.915108	0.049996	19.000000	nontarget	10.000000	na
22.965104	0.049998	19.000000	nontarget	11.000000	na
23.015101	0.050008	19.000000	nontarget	12.000000	23.041046
23.065109	0.049987	19.000000	nontarget	13.000000	na
23.115096	0.049996	19.000000	nontarget	14.000000	na
23.165092	0.049998	19.000000	nontarget	15.000000	na
23.215090	0.050002	19.000000	nontarget	16.000000	na
23.265092	0.049991	20.000000	nontarget	1.000000	na
23.315083	0.049997	20.000000	nontarget	2.000000	na
23.365080	0.049997	20.000000	nontarget	3.000000	na
23.415077	0.049997	20.000000	nontarget	4.000000	na
23.465074	0.049995	20.000000	nontarget	5.000000	na
23.515069	0.049998	20.000000	nontarget	6.000000	na
23.565068	0.049998	20.000000	nontarget	7.000000	na
23.615065	0.049997	20.000000	nontarget	8.000000	na
23.665062	0.049999	20.000000	nontarget	9.000000	na
23.715061	0.049995	20.000000	nontarget	10.000000	na
23.765056	0.049996	20.000000	nontarget	11.000000	na
23.815052	0.049998	20.000000	nontarget	12.000000	na
23.865050	0.049996	20.000000	nontarget	13.000000	na
23.915046	0.049997	20.000000	nontarget	14.000000	23.945087
23.965043	0.049998	20.000000	nontarget	15.000000	na
24.015041	0.049996	20.000000	nontarget	16.000000	na
24.065038	0.049999	21.000000	nontarget	1.000000	24.065769
24.115036	0.049994	21.000000	nontarget	2.000000	na
24.165030	0.050000	21.000000	nontarget	3.000000	na
24.215030	0.049995	21.000000	nontarget	4.000000	na
24.265026	0.049995	21.000000	nontarget	5.000000	na
24.315021	0.049997	21.000000	nontarget	6.000000	na
24.365018	0.049999	21.000000	nontarget	7.000000	na
24.415017	0.049996	21.000000	nontarget	8.000000	na
24.465012	0.049999	21.000000	nontarget	9.000000	na
24.515011	0.049996	21.000000	nontarget	10.000000	na
24.565007	0.049998	21.000000	nontarget	11.000000	na
24.615004	0.050001	21.000000	nontarget	12.000000	na
24.665005	0.049997	21.000000	nontarget	13.000000	24.665700
24.715002	0.049993	21.000000	nontarget	14.000000	na
24.764995	0.049998	21.000000	nontarget	15.000000	na
24.814993	0.049996	21.000000	nontarget	16.000000	na
24.864989	0.049997	22.000000	nontarget	1.000000	na
24.914986	0.049996	22.000000	nontarget	2.000000	na
24.964982	0.049997	22.000000	nontarget	3.000000	na
25.014979	0.049998	22.000000	nontarget	4.000000	na
25.064977	0.049999	22.000000	nontarget	5.000000	na
25.114976	0.049994	22.000000	nontarget	6.000000	na
25.164970	0.049997	22.000000	nontarget	7.000000	na
25.214967	0.049999	22.000000	nontarget	8.000000	na
25.264966	0.049995	22.000000	nontarget	9.000000	na
25.314961	0.049998	22.000000	nontarget	10.000000	na
25.364959	0.049997	22.000000	nontarget	11.000000	na
25.414956	0.049995	22.000000	nontarget	12.000000	na
25.464951	0.049998	22.000000	nontarget	13.000000	na
25.514949	0.049998	22.000000	nontarget	14.000000	na
25.564947	0.049996	22.000000	nontarget	15.000000	25.598213
25.614943	0.050001	22.000000	nontarget	16.000000	na
25.664944	0.049995	23.000000	nontarget	1.000000	25.665643
25.714939	0.049995	23.000000	nontarget	2.000000	na
25.764934	0.050001	23.000000	nontarget	3.000000	na
25.814935	0.049995	23.000000	nontarget	4.000000	na
25.864930	0.049993	23.000000	nontarget	5.000000	na
25.914923	0.049997	23.000000	nontarget	6.000000	na
25.964920	0.049998	23.000000	nontarget	7.000000	na
26.014919	0.050005	23.000000	nontarget	8.000000	na
26.064924	0.049988	23.000000	nontarget	9.000000	na
26.114912	0.049998	23.000000	nontarget	10.000000	na
26.164911	0.049977	23.000000	nontarget	11.000000	na
26.214888	0.049996	23.000000	nontarget	12.000000	na
26.264884	0.050015	23.000000	nontarget	13.000000	26.272007
26.314899	0.049999	23.000000	nontarget	14.000000	na
26.364898	0.049996	23.000000	nontarget	15.000000	na
26.414895	0.049996	23.000000	nontarget	16.000000	na
26.464891	0.049997	24.000000	nontarget	1.000000	na
26.514887	0.049999	24.000000	nontarget	2.000000	na
26.564886	0.049998	24.000000	nontarget	3.000000	na
26.614883	0.049996	24.000000	nontarget	4.000000	na
26.664879	0.049999	24.000000	nontarget	5.000000	na
26.714878	0.049996	24.000000	nontarget	6.000000	na
26.764874	0.049997	24.000000	nontarget	7.000000	na
26.814871	0.049997	24.000000	nontarget	8.000000	na
26.864867	0.049997	24.000000	nontarget	9.000000	na
26.914864	0.049995	24.000000	nontarget	10.000000	na
26.964859	0.049999	24.000000	nontarget	11.000000	na
27.014858	0.049997	24.000000	nontarget	12.000000	na
27.064855	0.049999	24.000000	nontarget	13.000000	na
27.114854	0.049998	24.000000	nontarget	14.000000	na
27.164852	0.049994	24.000000	nontarget	15.000000	27.165572
27.214846	0.049998	24.000000	nontarget	16.000000	na
27.264844	0.049997	25.000000	nontarget	1.000000	27.265532
27.314840	0.049998	25.000000	nontarget	2.000000	na
27.364838	0.049994	25.000000	nontarget	3.000000	na
27.414832	0.050000	25.000000	nontarget	4.000000	na
27.464831	0.049995	25.000000	nontarget	5.000000	na
27.514826	0.049998	25.000000	nontarget	6.000000	na
27.564824	0.049998	25.000000	nontarget	7.000000	na
27.614822	0.049998	25.000000	nontarget	8.000000	na
27.664821	0.049998	25.000000	nontarget	9.000000	na
27.714819	0.049994	25.000000	nontarget	10.000000	na
27.764813	0.049998	25.000000	nontarget	11.000000	na
27.814810	0.049996	25.000000	nontarget	12.000000	na
27.864806	0.049998	25.000000	nontarget	13.000000	na
27.914804	0.049998	25.000000	nontarget	14.000000	27.923091
27.964802	0.049994	25.000000	nontarget	15.000000	na
28.014797	0.049997	25.000000	nontarget	16.000000	na
28.064794	0.050000	26.000000	nontarget	1.000000	28.065498
28.114794	0.049992	26.000000	nontarget	2.000000	na
28.164786	0.049999	26.000000	nontarget	3.000000	na
28.214785	0.049998	26.000000	nontarget	4.000000	na
28.264783	0.049995	26.000000	nontarget	5.000000	na
28.314778	0.049997	26.000000	nontarget	6.000000	na
28.364775	0.049998	26.000000	nontarget	7.000000	na
28.414773	0.049998	26.000000	nontarget	8.000000	na
28.464770	0.049997	26.000000	nontarget	9.000000	na
28.514767	0.049997	26.000000	nontarget	10.000000	na
28.564764	0.049996	26.000000	nontarget	11.000000	na
28.614760	0.049998	26.000000	nontarget	12.000000	na
28.664758	0.050001	26.000000	nontarget	13.000000	na
28.714759	0.049993	26.000000	nontarget	14.000000	na
28.764752	0.049997	26.000000	nontarget	15.000000	na
28.814749	0.049999	26.000000	nontarget	16.000000	na
28.864748	0.049993	27.000000	nontarget	1.000000	28.865488
28.914741	0.049999	27.000000	nontarget	2.000000	na
28.964740	0.049997	27.000000	nontarget	3.000000	na
29.014737	0.050006	27.000000	nontarget	4.000000	na
29.064744	0.049989	27.000000	nontarget	5.000000	na
29.114733	0.049996	27.000000	nontarget	6.000000	na
29.164728	0.049994	27.000000	nontarget	7.000000	na
29.214723	0.049998	27.000000	nontarget	8.000000	na
29.264721	0.049998	27.000000	nontarget	9.000000	na
29.314719	0.049997	27.000000	nontarget	10.000000	na
29.364716	0.049996	27.000000	nontarget	11.000000	na
29.414712	0.049996	27.000000	nontarget	12.000000	na
29.464709	0.050002	27.000000	nontarget	13.000000	na
29.514711	0.049997	27.000000	nontarget	14.000000	na
29.564707	0.049993	27.000000	nontarget	15.000000	na
29.614700	0.049998	27.000000	nontarget	16.000000	na
29.664698	0.050001	28.000000	nontarget	1.000000	29.665405
29.714699	0.049991	28.000000	nontarget	2.000000	na
29.764690	0.049998	28.000000	nontarget	3.000000	na
29.814688	0.049997	28.000000	nontarget	4.000000	na
29.864685	0.049995	28.000000	nontarget	5.000000	na
29.914680	0.049997	28.000000	nontarget	6.000000	na
29.964677	0.049999	28.000000	nontarget	7.000000	na
30.014676	0.049997	28.000000	nontarget	8.000000	na
30.064672	0.049998	28.000000	nontarget	9.000000	na
30.114670	0.049997	28.000000	nontarget	10.000000	na
30.164667	0.049998	28.000000	nontarget	11.000000	na
30.214664	0.049995	28.000000	nontarget	12.000000	na
30.264660	0.049998	28.000000	nontarget	13.000000	na
30.314657	0.049994	28.000000	nontarget	14.000000	na
30.364652	0.050003	28.000000	nontarget	15.000000	na
30.414655	0.049995	28.000000	nontarget	16.000000	na
30.464650	0.049994	29.000000	nontarget	1.000000	30.465351
30.514644	0.049998	29.000000	nontarget	2.000000	na
30.564642	0.049997	29.000000	nontarget	3.000000	na
30.614639	0.050010	29.000000	nontarget	4.000000	na
30.664649	0.049997	29.000000	nontarget	5.000000	na
30.714646	0.049998	29.000000	nontarget	6.000000	na
30.764644	0.049999	29.000000	nontarget	7.000000	na
30.814643	0.050001	29.000000	nontarget	8.000000	na
30.864644	0.049987	29.000000	nontarget	9.000000	na
30.914631	0.050021	29.000000	nontarget	10.000000	na
30.964653	0.050002	29.000000	nontarget	11.000000	na
31.014655	0.050004	29.000000	nontarget	12.000000	na
31.064659	0.049978	29.000000	nontarget	13.000000	na
31.114637	0.049999	29.000000	nontarget	14.000000	na
31.164636	0.049989	29.000000	nontarget	15.000000	na
31.214625	0.050001	29.000000	nontarget	16.000000	31.216884
31.264626	0.050000	30.000000	nontarget	1.000000	31.265323
31.314625	0.049989	30.000000	nontarget	2.000000	na
31.364615	0.050015	30.000000	nontarget	3.000000	na
31.414630	0.049981	30.000000	nontarget	4.000000	na
31.464611	0.049992	30.000000	nontarget	5.000000	na
31.514603	0.050003	30.000000	nontarget	6.000000	na
31.564606	0.049981	30.000000	nontarget	7.000000	na
31.614587	0.050002	30.000000	nontarget	8.000000	na
31.664589	0.050010	30.000000	nontarget	9.000000	na
31.714599	0.049992	30.000000	nontarget	10.000000	na
31.764591	0.049988	30.000000	nontarget	11.000000	na
31.814580	0.049995	30.000000	nontarget	12.000000	na
31.864575	0.049997	30.000000	nontarget	13.000000	na
31.914572	0.049988	30.000000	nontarget	14.000000	na
31.964559	0.050002	30.000000	nontarget	15.000000	na
32.014561	0.050021	30.000000	nontarget	16.000000	na
32.064582	0.049974	31.000000	nontarget	1.000000	na
32.114556	0.050011	31.000000	nontarget	2.000000	na
32.164567	0.049984	31.000000	nontarget	3.000000	32.165282
32.214551	0.050001	31.000000	nontarget	4.000000	na
32.264552	0.049985	31.000000	nontarget	5.000000	na
32.314537	0.049995	31.000000	nontarget	6.000000	na
32.364531	0.049998	31.000000	nontarget	7.000000	na
32.414530	0.049998	31.000000	nontarget	8.000000	na
32.464527	0.049996	31.000000	nontarget	9.000000	na
32.514523	0.049998	31.000000	nontarget	10.000000	na
32.564521	0.049996	31.000000	nontarget	11.000000	na
32.614517	0.049999	31.000000	nontarget	12.000000	na
32.664516	0.049999	31.000000	nontarget	13.000000	na
32.714515	0.049994	31.000000	nontarget	14.000000	na
32.764510	0.049997	31.000000	nontarget	15.000000	32.772839
32.814506	0.049996	31.000000	nontarget	16.000000	na
32.864502	0.049996	32.000000	nontarget	1.000000	32.865265
32.914498	0.050000	32.000000	nontarget	2.000000	na
32.964498	0.049995	32.000000	nontarget	3.000000	na
33.014493	0.049988	32.000000	nontarget	4.000000	na
33.064481	0.050010	32.000000	nontarget	5.000000	na
33.114491	0.049999	32.000000	nontarget	6.000000	na
33.164490	0.049997	32.000000	nontarget	7.000000	na
33.214486	0.049997	32.000000	nontarget	8.000000	na
33.264483	0.049997	32.000000	nontarget	9.000000	na
33.314480	0.049997	32.000000	nontarget	10.000000	na
33.364476	0.049998	32.000000	nontarget	11.000000	na
33.414474	0.049997	32.000000	nontarget	12.000000	na
33.464471	0.049998	32.000000	nontarget	13.000000	na
33.514469	0.049996	32.000000	nontarget	14.000000	33.515211
33.564465	0.049998	32.000000	nontarget	15.000000	na
33.614463	0.049985	32.000000	nontarget	16.000000	na
33.664447	0.050007	33.000000	nontarget	1.000000	na
33.714454	0.049994	33.000000	nontarget	2.000000	na
33.764448	0.049997	33.000000	nontarget	3.000000	na
33.814445	0.049997	33.000000	nontarget	4.000000	na
33.864442	0.049995	33.000000	nontarget	5.000000	na
33.914437	0.049998	33.000000	nontarget	6.000000	na
33.964435	0.049998	33.000000	nontarget	7.000000	na
34.014433	0.049996	33.000000	nontarget	8.000000	na
34.064429	0.049998	33.000000	nontarget	9.000000	na
34.114426	0.049998	33.000000	nontarget	10.000000	na
34.164424	0.049998	33.000000	nontarget	11.000000	na
34.214422	0.049994	33.000000	nontarget	12.000000	na
34.264417	0.049996	33.000000	nontarget	13.000000	na
34.314412	0.049998	33.000000	nontarget	14.000000	na
34.364410	0.049996	33.000000	nontarget	15.000000	34.382982
34.414406	0.049997	33.000000	nontarget	16.000000	na
34.464404	0.049998	34.000000	nontarget	1.000000	34.465120
34.514401	0.049997	34.000000	nontarget	2.000000	na
34.564398	0.049997	34.000000	nontarget	3.000000	na
34.614395	0.050001	34.000000	nontarget	4.000000	na
34.664396	0.049997	34.000000	nontarget	5.000000	na
34.714393	0.049994	34.000000	nontarget	6.000000	na
34.764387	0.049998	34.000000	nontarget	7.000000	na
34.814385	0.049995	34.000000	nontarget	8.000000	na
34.864380	0.049997	34.000000	nontarget	9.000000	na
34.914377	0.049998	34.000000	nontarget	10.000000	na
34.964375	0.050000	34.000000	nontarget	11.000000	na
35.014375	0.050003	34.000000	nontarget	12.000000	35.015134
35.064377	0.049988	34.000000	nontarget	13.000000	na
35.114365	0.049996	34.000000	nontarget	14.000000	na
35.164361	0.049998	34.000000	nontarget	15.000000	na
35.214358	0.049998	34.000000	nontarget	16.000000	na
35.264356	0.049997	35.000000	nontarget	1.000000	na
35.314353	0.049997	35.000000	nontarget	2.000000	na
35.364350	0.049994	35.000000	nontarget	3.000000	na
35.414344	0.050001	35.000000	nontarget	4.000000	na
35.464345	0.049995	35.000000	nontarget	5.000000	na
35.514340	0.049998	35.000000	nontarget	6.000000	na
35.564338	0.049997	35.000000	nontarget	7.000000	na
35.614335	0.050000	35.000000	nontarget	8.000000	na
35.664334	0.049998	35.000000	nontarget	9.000000	na
35.714332	0.049994	35.000000	nontarget	10.000000	na
35.764326	0.049997	35.000000	nontarget	11.000000	na
35.814323	0.049997	35.000000	nontarget	12.000000	na
35.864320	0.049997	35.000000	nontarget	13.000000	na
35.914317	0.049998	35.000000	nontarget	14.000000	na
35.964314	0.049997	35.000000	nontarget	15.000000	35.965058
36.014311	0.050006	35.000000	nontarget	16.000000	na
36.064316	0.049990	36.000000	nontarget	1.000000	36.065254
36.114306	0.049996	36.000000	nontarget	2.000000	na
36.164302	0.050004	36.000000	nontarget	3.000000	na
36.214306	0.049989	36.000000	nontarget	4.000000	na
36.264295	0.049996	36.000000	nontarget	5.000000	na
36.314291	0.050000	36.000000	nontarget	6.000000	na
36.364291	0.049994	36.000000	nontarget	7.000000	na
36.414284	0.049998	36.000000	nontarget	8.000000	na
36.464283	0.049998	36.000000	nontarget	9.000000	na
36.514280	0.049998	36.000000	nontarget	10.000000	na
36.564278	0.049996	36.000000	nontarget	11.000000	na
36.614274	0.049998	36.000000	nontarget	12.000000	na
36.664271	0.050001	36.000000	nontarget	13.000000	na
36.714272	0.049993	36.000000	nontarget	14.000000	na
36.764265	0.049997	36.000000	nontarget	15.000000	na
36.814262	0.049998	36.000000	nontarget	16.000000	na
36.864260	0.049998	37.000000	nontarget	1.000000	na
36.914257	0.049995	37.000000	nontarget	2.000000	36.915006
36.964253	0.049997	37.000000	nontarget	3.000000	na
37.014249	0.050000	37.000000	nontarget	4.000000	na
37.064249	0.049995	37.000000	nontarget	5.000000	na
37.114244	0.049997	37.000000	nontarget	6.000000	na
37.164241	0.049996	37.000000	nontarget	7.000000	na
37.214237	0.049998	37.000000	nontarget	8.000000	na
37.264235	0.049995	37.000000	nontarget	9.000000	na
37.314230	0.050025	37.000000	nontarget	10.000000	na
37.364255	0.049969	37.000000	nontarget	11.000000	na
37.414224	0.049998	37.000000	nontarget	12.000000	na
37.464222	0.049998	37.000000	nontarget	13.000000	na
37.514220	0.049995	37.000000	nontarget	14.000000	na
37.564215	0.049997	37.000000	nontarget	15.000000	na
37.614212	0.049999	37.000000	nontarget	16.000000	na
37.664211	0.049999	38.000000	target	1.000000	na
37.714210	0.049994	38.000000	target	2.000000	na
37.764205	0.049996	38.000000	target	3.000000	na
37.814201	0.049997	38.000000	target	4.000000	na
37.864197	0.049997	38.000000	target	5.000000	na
37.914194	0.049999	38.000000	target	6.000000	na
37.964193	0.049994	38.000000	target	7.000000	na
38.014188	0.050002	38.000000	target	8.000000	na
38.064189	0.049994	38.000000	target	9.000000	na
38.114183	0.049997	38.000000	target	10.000000	na
38.164180	0.049996	38.000000	target	11.000000	na
38.214176	0.049998	38.000000	target	12.000000	na
38.264174	0.049999	38.000000	target	13.000000	na
38.314172	0.049994	38.000000	target	14.000000	na
38.364167	0.049998	38.000000	target	15.000000	na
38.414165	0.049996	38.000000	target	16.000000	na
38.464161	0.049997	39.000000	nontarget	1.000000	38.480077
38.514158	0.049997	39.000000	nontarget	2.000000	na
38.564155	0.049996	39.000000	nontarget	3.000000	na
38.614151	0.050000	39.000000	nontarget	4.000000	na
38.664151	0.049998	39.000000	nontarget	5.000000	na
38.714149	0.049994	39.000000	nontarget	6.000000	na
38.764143	0.049998	39.000000	nontarget	7.000000	na
38.814140	0.049996	39.000000	nontarget	8.000000	na
38.864136	0.049998	39.000000	nontarget	9.000000	na
38.914134	0.049997	39.000000	nontarget	10.000000	na
38.964131	0.049998	39.000000	nontarget	11.000000	na
39.014128	0.050007	39.000000	nontarget	12.000000	na
39.064135	0.049986	39.000000	nontarget	13.000000	na
39.114121	0.049999	39.000000	nontarget	14.000000	na
39.164120	0.049995	39.000000	nontarget	15.000000	na
39.214116	0.049995	39.000000	nontarget	16.000000	na
39.264111	0.050000	40.000000	nontarget	1.000000	na
39.314111	0.049998	40.000000	nontarget	2.000000	na
39.364108	0.049995	40.000000	nontarget	3.000000	39.364815
39.414103	0.049997	40.000000	nontarget	4.000000	na
39.464100	0.050005	40.000000	nontarget	5.000000	na
39.514105	0.049990	40.000000	nontarget	6.000000	na
39.564095	0.049995	40.000000	nontarget	7.000000	na
39.614090	0.050000	40.000000	nontarget	8.000000	na
39.664090	0.049998	40.000000	nontarget	9.000000	na
39.714088	0.049994	40.000000	nontarget	10.000000	na
39.764083	0.049995	40.000000	nontarget	11.000000	na
39.814078	0.049999	40.000000	nontarget	12.000000	na
39.864077	0.049994	40.000000	nontarget	13.000000	na
39.914072	0.049998	40.000000	nontarget	14.000000	na
39.964069	0.049997	40.000000	nontarget	15.000000	na
40.014066	0.049998	40.000000	nontarget	16.000000	na
40.064064	0.049997	41.000000	nontarget	1.000000	40.065751
40.114061	0.050001	41.000000	nontarget	2.000000	na
40.164061	0.049994	41.000000	nontarget	3.000000	na
40.214056	0.049995	41.000000	nontarget	4.000000	na
40.264050	0.050003	41.000000	nontarget	5.000000	na
40.314054	0.050023	41.000000	nontarget	6.000000	na
40.364076	0.049970	41.000000	nontarget	7.000000	na
40.414046	0.049994	41.000000	nontarget	8.000000	na
40.464040	0.050001	41.000000	nontarget	9.000000	na
40.514041	0.049992	41.000000	nontarget	10.000000	na
40.564032	0.049998	41.000000	nontarget	11.000000	na
40.614030	0.050000	41.000000	nontarget	12.000000	na
40.664031	0.050001	41.000000	nontarget	13.000000	na
40.714032	0.049998	41.000000	nontarget	14.000000	na
40.764030	0.050031	41.000000	nontarget	15.000000	na
40.814062	0.049961	41.000000	nontarget	16.000000	na
40.864022	0.050003	42.000000	target	1.000000	na
40.914025	0.050002	42.000000	target	2.000000	na
40.964028	0.050014	42.000000	target	3.000000	na
41.014041	0.049988	42.000000	target	4.000000	na
41.064029	0.049981	42.000000	target	5.000000	na
41.114010	0.050003	42.000000	target	6.000000	na
41.164013	0.050003	42.000000	target	7.000000	na
41.214016	0.049996	42.000000	target	8.000000	na
41.264011	0.049995	42.000000	target	9.000000	na
41.314007	0.049997	42.000000	target	10.000000	na
41.364004	0.049986	42.000000	target	11.000000	na
41.413990	0.050001	42.000000	target	12.000000	na
41.463991	0.049984	42.000000	target	13.000000	na
41.513975	0.050000	42.000000	target	14.000000	na
41.563975	0.050010	42.000000	target	15.000000	41.564692
41.613985	0.049999	42.000000	target	16.000000	na
41.663984	0.050004	43.000000	nontarget	1.000000	41.664688
41.713988	0.049973	43.000000	nontarget	2.000000	na
41.763961	0.049993	43.000000	nontarget	3.000000	na
41.813954	0.050001	43.000000	nontarget	4.000000	na
41.863955	0.049996	43.000000	nontarget	5.000000	na
41.913951	0.049998	43.000000	nontarget	6.000000	na
41.963949	0.049997	43.000000	nontarget	7.000000	na
42.013945	0.049997	43.000000	nontarget	8.000000	na
42.063942	0.049997	43.000000	nontarget	9.000000	na
42.113938	0.049997	43.000000	nontarget	10.000000	na
42.163936	0.049998	43.000000	nontarget	11.000000	na
42.213933	0.049995	43.000000	nontarget	12.000000	na
42.263928	0.049999	43.000000	nontarget	13.000000	42.294843
42.313927	0.049998	43.000000	nontarget	14.000000	na
42.363925	0.049996	43.000000	nontarget	15.000000	na
42.413920	0.049998	43.000000	nontarget	16.000000	na
42.463919	0.049994	44.000000	nontarget	1.000000	na
42.513913	0.049998	44.000000	nontarget	2.000000	na
42.563911	0.049998	44.000000	nontarget	3.000000	na
42.613909	0.049997	44.000000	nontarget	4.000000	na
42.663906	0.050001	44.000000	nontarget	5.000000	na
42.713907	0.049993	44.000000	nontarget	6.000000	na
42.763900	0.049996	44.000000	nontarget	7.000000	na
42.813895	0.049998	44.000000	nontarget	8.000000	na
42.863893	0.049998	44.000000	nontarget	9.000000	na
42.913890	0.049998	44.000000	nontarget	10.000000	na
42.963888	0.049997	44.000000	nontarget	11.000000	na
43.013885	0.049996	44.000000	nontarget	12.000000	na
43.063881	0.049996	44.000000	nontarget	13.000000	na
43.113877	0.049998	44.000000	nontarget	14.000000	na
43.163875	0.049997	44.000000	nontarget	15.000000	na
43.213872	0.049996	44.000000	nontarget	16.000000	na
43.263868	0.049997	45.000000	target	1.000000	na
43.313865	0.049998	45.000000	target	2.000000	na
43.363863	0.050002	45.000000	target	3.000000	na
43.413866	0.049991	45.000000	target	4.000000	na
43.463856	0.049997	45.000000	target	5.000000	na
43.513854	0.049997	45.000000	target	6.000000	na
43.563851	0.049997	45.000000	target	7.000000	na
43.613848	0.049998	45.000000	target	8.000000	na
43.663845	0.049999	45.000000	target	9.000000	na
43.713845	0.049994	45.000000	target	10.000000	na
43.763838	0.049997	45.000000	target	11.000000	na
43.813835	0.049997	45.000000	target	12.000000	na
43.863832	0.049997	45.000000	target	13.000000	na
43.913829	0.049998	45.000000	target	14.000000	na
43.963826	0.049997	45.000000	target	15.000000	43.971817
44.013823	0.050007	45.000000	target	16.000000	na
44.063830	0.049989	46.000000	nontarget	1.000000	44.064588
44.113819	0.049995	46.000000	nontarget	2.000000	na
44.163814	0.049997	46.000000	nontarget	3.000000	na
44.213811	0.049997	46.000000	nontarget	4.000000	na
44.263808	0.049997	46.000000	nontarget	5.000000	na
44.313805	0.049999	46.000000	nontarget	6.000000	na
44.363804	0.049995	46.000000	nontarget	7.000000	na
44.413799	0.049995	46.000000	nontarget	8.000000	na
44.463794	0.049999	46.000000	nontarget	9.000000	na
44.513793	0.049996	46.000000	nontarget	10.000000	na
44.563789	0.049997	46.000000	nontarget	11.000000	na
44.613786	0.049998	46.000000	nontarget	12.000000	na
44.663785	0.049998	46.000000	nontarget	13.000000	na
44.713783	0.049996	46.000000	nontarget	14.000000	na
44.763779	0.049996	46.000000	nontarget	15.000000	na
44.813775	0.049997	46.000000	nontarget	16.000000	na
44.863772	0.049999	47.000000	nontarget	1.000000	na
44.913771	0.049994	47.000000	nontarget	2.000000	44.914491
44.963765	0.049997	47.000000	nontarget	3.000000	na
45.013762	0.050001	47.000000	nontarget	4.000000	na
45.063763	0.049993	47.000000	nontarget	5.000000	na
45.113756	0.049998	47.000000	nontarget	6.000000	na
45.163754	0.049996	47.000000	nontarget	7.000000	na
45.213750	0.049997	47.000000	nontarget	8.000000	na
45.263747	0.049996	47.000000	nontarget	9.000000	na
45.313743	0.049998	47.000000	nontarget	10.000000	na
45.363741	0.049998	47.000000	nontarget	11.000000	na
45.413739	0.049997	47.000000	nontarget	12.000000	na
45.463736	0.049995	47.000000	nontarget	13.000000	na
45.513731	0.049997	47.000000	nontarget	14.000000	na
45.563728	0.049998	47.000000	nontarget	15.000000	na
45.613725	0.050000	47.000000	nontarget	16.000000	na
45.663726	0.049996	48.000000	target	1.000000	na
45.713721	0.049996	48.000000	target	2.000000	na
45.763717	0.049997	48.000000	target	3.000000	na
45.813714	0.049997	48.000000	target	4.000000	na
45.863711	0.049994	48.000000	target	5.000000	na
45.913705	0.049999	48.000000	target	6.000000	na
45.963704	0.049997	48.000000	target	7.000000	na
46.013701	0.049997	48.000000	target	8.000000	na
46.063698	0.049997	48.000000	target	9.000000	na
46.113695	0.049997	48.000000	target	10.000000	na
46.163692	0.049998	48.000000	target	11.000000	na
46.213690	0.049996	48.000000	target	12.000000	na
46.263686	0.049997	48.000000	target	13.000000	na
46.313683	0.049998	48.000000	target	14.000000	na
46.363681	0.049995	48.000000	target	15.000000	na
46.413676	0.049999	48.000000	target	16.000000	na
46.463675	0.049997	49.000000	target	1.000000	na
46.513672	0.049997	49.000000	target	2.000000	na
46.563668	0.049999	49.000000	target	3.000000	na
46.613667	0.049998	49.000000	target	4.000000	na
46.663665	0.049997	49.000000	target	5.000000	na
46.713662	0.049994	49.000000	target	6.000000	na
46.763656	0.049997	49.000000	target	7.000000	na
46.813653	0.049996	49.000000	target	8.000000	na
46.863650	0.049995	49.000000	target	9.000000	na
46.913645	0.050001	49.000000	target	10.000000	na
46.963645	0.049994	49.000000	target	11.000000	na
47.013639	0.049998	49.000000	target	12.000000	na
47.063638	0.049997	49.000000	target	13.000000	na
47.113635	0.049997	49.000000	target	14.000000	na
47.163632	0.049998	49.000000	target	15.000000	na
47.213629	0.049998	49.000000	target	16.000000	na
47.263627	0.049994	50.000000	nontarget	1.000000	na
47.313622	0.049998	50.000000	nontarget	2.000000	na
47.363620	0.049996	50.000000	nontarget	3.000000	47.386801
47.413616	0.049997	50.000000	nontarget	4.000000	na
47.463613	0.049998	50.000000	nontarget	5.000000	na
47.513611	0.049997	50.000000	nontarget	6.000000	na
47.563608	0.049997	50.000000	nontarget	7.000000	na
47.613604	0.049998	50.000000	nontarget	8.000000	na
47.663602	0.050001	50.000000	nontarget	9.000000	na
47.713603	0.049992	50.000000	nontarget	10.000000	na
47.763595	0.050001	50.000000	nontarget	11.000000	na
47.813596	0.049994	50.000000	nontarget	12.000000	na
47.863589	0.049997	50.000000	nontarget	13.000000	na
47.913586	0.049998	50.000000	nontarget	14.000000	na
47.963583	0.049997	50.000000	nontarget	15.000000	na
48.013580	0.049997	50.000000	nontarget	16.000000	na
48.063577	0.049997	51.000000	nontarget	1.000000	na
48.113573	0.049997	51.000000	nontarget	2.000000	na
48.163571	0.049997	51.000000	nontarget	3.000000	na
48.213567	0.049997	51.000000	nontarget	4.000000	na
48.263564	0.049999	51.000000	nontarget	5.000000	48.264283
48.313563	0.049995	51.000000	nontarget	6.000000	na
48.363558	0.049998	51.000000	nontarget	7.000000	na
48.413556	0.049998	51.000000	nontarget	8.000000	na
48.463554	0.049995	51.000000	nontarget	9.000000	na
48.513549	0.049995	51.000000	nontarget	10.000000	na
48.563544	0.049999	51.000000	nontarget	11.000000	na
48.613543	0.050000	51.000000	nontarget	12.000000	na
48.663543	0.049998	51.000000	nontarget	13.000000	na
48.713541	0.049994	51.000000	nontarget	14.000000	na
48.763534	0.049996	51.000000	nontarget	15.000000	48.771785
48.813530	0.050000	51.000000	nontarget	16.000000	na
48.863530	0.049995	52.000000	nontarget	1.000000	48.864232
48.913525	0.049998	52.000000	nontarget	2.000000	na
48.963523	0.049995	52.000000	nontarget	3.000000	na
49.013518	0.050000	52.000000	nontarget	4.000000	na
49.063518	0.049993	52.000000	nontarget	5.000000	na
49.113511	0.050000	52.000000	nontarget	6.000000	na
49.163511	0.049996	52.000000	nontarget	7.000000	na
49.213507	0.049997	52.000000	nontarget	8.000000	na
49.263504	0.049997	52.000000	nontarget	9.000000	na
49.313501	0.049998	52.000000	nontarget	10.000000	na
49.363499	0.049996	52.000000	nontarget	11.000000	na
49.413495	0.049996	52.000000	nontarget	12.000000	na
49.463490	0.049998	52.000000	nontarget	13.000000	na
49.513489	0.049995	52.000000	nontarget	14.000000	49.537714
49.563484	0.049998	52.000000	nontarget	15.000000	na
49.613483	0.049998	52.000000	nontarget	16.000000	na
49.663480	0.050001	53.000000	nontarget	1.000000	49.664172
49.713481	0.049990	53.000000	nontarget	2.000000	na
49.763471	0.050000	53.000000	nontarget	3.000000	na
49.813471	0.049996	53.000000	nontarget	4.000000	na
49.863466	0.049998	53.000000	nontarget	5.000000	na
49.913464	0.049997	53.000000	nontarget	6.000000	na
49.963461	0.049997	53.000000	nontarget	7.000000	na
50.013458	0.050004	53.000000	nontarget	8.000000	na
50.063463	0.049999	53.000000	nontarget	9.000000	na
50.113461	0.049989	53.000000	nontarget	10.000000	na
50.163450	0.050008	53.000000	nontarget	11.000000	na
50.213459	0.049994	53.000000	nontarget	12.000000	na
50.263453	0.050030	53.000000	nontarget	13.000000	na
50.313483	0.049988	53.000000	nontarget	14.000000	na
50.363471	0.050016	53.000000	nontarget	15.000000	na
50.413487	0.049992	53.000000	nontarget	16.000000	na
50.463478	0.049962	54.000000	nontarget	1.000000	50.483616
50.513441	0.050002	54.000000	nontarget	2.000000	na
50.563443	0.050001	54.000000	nontarget	3.000000	na
50.613444	0.049998	54.000000	nontarget	4.000000	na
50.663442	0.049985	54.000000	nontarget	5.000000	na
50.713427	0.049996	54.000000	nontarget	6.000000	na
50.763422	0.050000	54.000000	nontarget	7.000000	na
50.813422	0.049996	54.000000	nontarget	8.000000	na
50.863419	0.049996	54.000000	nontarget	9.000000	na
50.913415	0.049992	54.000000	nontarget	10.000000	na
50.963407	0.049989	54.000000	nontarget	11.000000	na
51.013397	0.050007	54.000000	nontarget	12.000000	na
51.063403	0.049994	54.000000	nontarget	13.000000	na
51.113397	0.050007	54.000000	nontarget	14.000000	na
51.163403	0.050004	54.000000	nontarget	15.000000	na
51.213407	0.049974	54.000000	nontarget	16.000000	na
51.263381	0.049998	55.000000	target	1.000000	na
51.313379	0.049996	55.000000	target	2.000000	na
51.363374	0.049997	55.000000	target	3.000000	na
51.413371	0.049998	55.000000	target	4.000000	na
51.463369	0.049997	55.000000	target	5.000000	na
51.513365	0.049997	55.000000	target	6.000000	na
51.563362	0.050001	55.000000	target	7.000000	na
51.613363	0.049994	55.000000	target	8.000000	na
51.663357	0.050002	55.000000	target	9.000000	na
51.713359	0.049992	55.000000	target	10.000000	na
51.763351	0.049998	55.000000	target	11.000000	na
51.813349	0.049995	55.000000	target	12.000000	na
51.863344	0.049998	55.000000	target	13.000000	na
51.913343	0.049997	55.000000	target	14.000000	na
51.963339	0.049998	55.000000	target	15.000000	51.968753
52.013337	0.049995	55.000000	target	16.000000	na
52.063333	0.049998	56.000000	nontarget	1.000000	52.064056
52.113330	0.049997	56.000000	nontarget	2.000000	na
52.163327	0.049997	56.000000	nontarget	3.000000	na
52.213325	0.049996	56.000000	nontarget	4.000000	na
52.263321	0.049995	56.000000	nontarget	5.000000	na
52.313316	0.050000	56.000000	nontarget	6.000000	na
52.363316	0.049996	56.000000	nontarget	7.000000	na
52.413311	0.049997	56.000000	nontarget	8.000000	na
52.463308	0.049999	56.000000	nontarget	9.000000	na
52.513307	0.049996	56.000000	nontarget	10.000000	na
52.563303	0.049998	56.000000	nontarget	11.000000	na
52.613301	0.049996	56.000000	nontarget	12.000000	na
52.663297	0.049999	56.000000	nontarget	13.000000	na
52.713296	0.049994	56.000000	nontarget	14.000000	na
52.763290	0.050000	56.000000	nontarget	15.000000	na
52.813290	0.049995	56.000000	nontarget	16.000000	52.814030
52.863285	0.049997	57.000000	nontarget	1.000000	52.864013
52.913282	0.050000	57.000000	nontarget	2.000000	na
52.963282	0.049994	57.000000	nontarget	3.000000	na
53.013276	0.049997	57.000000	nontarget	4.000000	na
53.063273	0.049998	57.000000	nontarget	5.000000	na
53.113270	0.049997	57.000000	nontarget	6.000000	na
53.163267	0.049996	57.000000	nontarget	7.000000	na
53.213263	0.049998	57.000000	nontarget	8.000000	na
53.263260	0.049996	57.000000	nontarget	9.000000	na
53.313256	0.049997	57.000000	nontarget	10.000000	na
53.363253	0.049998	57.000000	nontarget	11.000000	na
53.413251	0.049996	57.000000	nontarget	12.000000	na
53.463248	0.050001	57.000000	nontarget	13.000000	na
53.513248	0.049994	57.000000	nontarget	14.000000	53.513966
53.563242	0.049998	57.000000	nontarget	15.000000	na
53.613240	0.049996	57.000000	nontarget	16.000000	na
53.663236	0.050000	58.000000	nontarget	1.000000	na
53.713236	0.049994	58.000000	nontarget	2.000000	na
53.763230	0.049997	58.000000	nontarget	3.000000	na
53.813227	0.049998	58.000000	nontarget	4.000000	na
53.863225	0.049994	58.000000	nontarget	5.000000	na
53.913219	0.049997	58.000000	nontarget	6.000000	na
53.963216	0.049999	58.000000	nontarget	7.000000	na
54.013215	0.049997	58.000000	nontarget	8.000000	na
54.063212	0.049996	58.000000	nontarget	9.000000	na
54.113208	0.049998	58.000000	nontarget	10.000000	na
54.163206	0.049996	58.000000	nontarget	11.000000	na
54.213202	0.049998	58.000000	nontarget	12.000000	na
54.263199	0.049997	58.000000	nontarget	13.000000	na
54.313197	0.049997	58.000000	nontarget	14.000000	na
54.363194	0.049994	58.000000	nontarget	15.000000	54.370531
54.413188	0.049998	58.000000	nontarget	16.000000	na
54.463187	0.050001	59.000000	nontarget	1.000000	54.463900
54.513187	0.049993	59.000000	nontarget	2.000000	na
54.563180	0.049997	59.000000	nontarget	3.000000	na
54.613177	0.049998	59.000000	nontarget	4.000000	na
54.663175	0.050003	59.000000	nontarget	5.000000	na
54.713178	0.049992	59.000000	nontarget	6.000000	na
54.763169	0.049996	59.000000	nontarget	7.000000	na
54.813166	0.049998	59.000000	nontarget	8.000000	na
54.863164	0.049994	59.000000	nontarget	9.000000	na
54.913158	0.049998	59.000000	nontarget	10.000000	na
54.963157	0.049996	59.000000	nontarget	11.000000	na
55.013153	0.049999	59.000000	nontarget	12.000000	55.041518
55.063152	0.049996	59.000000	nontarget	13.000000	na
55.113148	0.049996	59.000000	nontarget	14.000000	na
55.163144	0.049998	59.000000	nontarget	15.000000	na
55.213142	0.049996	59.000000	nontarget	16.000000	na
55.263139	0.049995	60.000000	target	1.000000	na
55.313134	0.049998	60.000000	target	2.000000	na
55.363132	0.049995	60.000000	target	3.000000	na
55.413127	0.050001	60.000000	target	4.000000	na
55.463128	0.049994	60.000000	target	5.000000	na
55.513121	0.049998	60.000000	target	6.000000	na
55.563119	0.049997	60.000000	target	7.000000	na
55.613116	0.049998	60.000000	target	8.000000	na
55.663114	0.050001	60.000000	target	9.000000	na
55.713115	0.049991	60.000000	target	10.000000	na
55.763107	0.049999	60.000000	target	11.000000	na
55.813105	0.049997	60.000000	target	12.000000	na
55.863102	0.049996	60.000000	target	13.000000	na
55.913098	0.049998	60.000000	target	14.000000	na
55.963096	0.049996	60.000000	target	15.000000	55.979865
56.013093	0.050005	60.000000	target	16.000000	na
56.063098	0.049991	61.000000	nontarget	1.000000	56.063872
56.113089	0.049993	61.000000	nontarget	2.000000	na
56.163082	0.049999	61.000000	nontarget	3.000000	na
56.213081	0.049999	61.000000	nontarget	4.000000	na
56.263079	0.049996	61.000000	nontarget	5.000000	na
56.313075	0.049996	61.000000	nontarget	6.000000	na
56.363071	0.049998	61.000000	nontarget	7.000000	na
56.413069	0.049996	61.000000	nontarget	8.000000	na
56.463065	0.049997	61.000000	nontarget	9.000000	na
56.513061	0.049998	61.000000	nontarget	10.000000	na
56.563060	0.049998	61.000000	nontarget	11.000000	na
56.613057	0.049995	61.000000	nontarget	12.000000	na
56.663053	0.050001	61.000000	nontarget	13.000000	na
56.713054	0.049996	61.000000	nontarget	14.000000	na
56.763050	0.049994	61.000000	nontarget	15.000000	56.763778
56.813043	0.049998	61.000000	nontarget	16.000000	na
56.863041	0.049998	62.000000	nontarget	1.000000	56.863747
56.913039	0.049996	62.000000	nontarget	2.000000	na
56.963035	0.049996	62.000000	nontarget	3.000000	na
57.013031	0.049998	62.000000	nontarget	4.000000	na
57.063029	0.049997	62.000000	nontarget	5.000000	na
57.113026	0.049999	62.000000	nontarget	6.000000	na
57.163025	0.049996	62.000000	nontarget	7.000000	na
57.213021	0.049996	62.000000	nontarget	8.000000	na
57.263017	0.049996	62.000000	nontarget	9.000000	na
57.313013	0.049998	62.000000	nontarget	10.000000	na
57.363010	0.049998	62.000000	nontarget	11.000000	na
57.413008	0.049998	62.000000	nontarget	12.000000	na
57.463006	0.049995	62.000000	nontarget	13.000000	na
57.513001	0.049996	62.000000	nontarget	14.000000	na
57.562997	0.050001	62.000000	nontarget	15.000000	na
57.612998	0.049996	62.000000	nontarget	16.000000	57.613699
57.662994	0.049989	63.000000	nontarget	1.000000	57.663713
57.712983	0.050009	63.000000	nontarget	2.000000	na
57.762992	0.049997	63.000000	nontarget	3.000000	na
57.812989	0.049996	63.000000	nontarget	4.000000	na
57.862985	0.049998	63.000000	nontarget	5.000000	na
57.912983	0.049996	63.000000	nontarget	6.000000	na
57.962979	0.049988	63.000000	nontarget	7.000000	na
58.012967	0.050001	63.000000	nontarget	8.000000	na
58.062968	0.049997	63.000000	nontarget	9.000000	na
58.112965	0.049997	63.000000	nontarget	10.000000	na
58.162962	0.050014	63.000000	nontarget	11.000000	na
58.212976	0.049983	63.000000	nontarget	12.000000	58.237590
58.262960	0.049994	63.000000	nontarget	13.000000	na
58.312954	0.049995	63.000000	nontarget	14.000000	na
58.362949	0.049998	63.000000	nontarget	15.000000	na
58.412947	0.049996	63.000000	nontarget	16.000000	na
58.462943	0.049999	64.000000	nontarget	1.000000	na
58.512943	0.049994	64.000000	nontarget	2.000000	na
58.562936	0.049998	64.000000	nontarget	3.000000	na
58.612934	0.049997	64.000000	nontarget	4.000000	na
58.662931	0.049988	64.000000	nontarget	5.000000	na
58.712920	0.050011	64.000000	nontarget	6.000000	na
58.762931	0.049997	64.000000	nontarget	7.000000	na
58.812928	0.049998	64.000000	nontarget	8.000000	na
58.862925	0.049998	64.000000	nontarget	9.000000	na
58.912923	0.049991	64.000000	nontarget	10.000000	na
58.962914	0.049995	64.000000	nontarget	11.000000	na
59.012909	0.050010	64.000000	nontarget	12.000000	na
59.062919	0.049987	64.000000	nontarget	13.000000	59.073874
59.112905	0.049995	64.000000	nontarget	14.000000	na
59.162900	0.050000	64.000000	nontarget	15.000000	na
59.212900	0.049995	64.000000	nontarget	16.000000	na
59.262896	0.050005	65.000000	nontarget	1.000000	na
59.312901	0.049987	65.000000	nontarget	2.000000	na
59.362888	0.049998	65.000000	nontarget	3.000000	na
59.412886	0.049997	65.000000	nontarget	4.000000	na
59.462883	0.049997	65.000000	nontarget	5.000000	na
59.512880	0.049996	65.000000	nontarget	6.000000	na
59.562875	0.049997	65.000000	nontarget	7.000000	na
59.612873	0.049998	65.000000	nontarget	8.000000	na
59.662870	0.049991	65.000000	nontarget	9.000000	na
59.712862	0.050008	65.000000	nontarget	10.000000	na
59.762870	0.050012	65.000000	nontarget	11.000000	na
59.812882	0.050008	65.000000	nontarget	12.000000	na
59.862890	0.050003	65.000000	nontarget	13.000000	na
59.912893	0.050002	65.000000	nontarget	14.000000	na
59.962894	0.049965	65.000000	nontarget	15.000000	59.994522
60.012859	0.050003	65.000000	nontarget	16.000000	na
60.062862	0.050003	66.000000	nontarget	1.000000	60.063574
60.112865	0.049978	66.000000	nontarget	2.000000	na
60.162843	0.050001	66.000000	nontarget	3.000000	na
60.212844	0.050002	66.000000	nontarget	4.000000	na
60.262847	0.049998	66.000000	nontarget	5.000000	na
60.312844	0.049994	66.000000	nontarget	6.000000	na
60.362838	0.050001	66.000000	nontarget	7.000000	na
60.412839	0.049988	66.000000	nontarget	8.000000	na
60.462827	0.049991	66.000000	nontarget	9.000000	na
60.512818	0.050015	66.000000	nontarget	10.000000	na
60.562833	0.049987	66.000000	nontarget	11.000000	na
60.612820	0.050007	66.000000	nontarget	12.000000	na
60.662827	0.049973	66.000000	nontarget	13.000000	60.663526
60.712799	0.050010	66.000000	nontarget	14.000000	na
60.762810	0.049979	66.000000	nontarget	15.000000	na
60.812789	0.050008	66.000000	nontarget	16.000000	na
60.862797	0.049998	67.000000	nontarget	1.000000	na
60.912795	0.049996	67.000000	nontarget	2.000000	na
60.962791	0.049995	67.000000	nontarget	3.000000	na
61.012786	0.050000	67.000000	nontarget	4.000000	na
61.062786	0.049997	67.000000	nontarget	5.000000	na
61.112783	0.049998	67.000000	nontarget	6.000000	na
61.162780	0.049996	67.000000	nontarget	7.000000	na
61.212776	0.049996	67.000000	nontarget	8.000000	na
61.262772	0.049996	67.000000	nontarget	9.000000	na
61.312769	0.049999	67.000000	nontarget	10.000000	na
61.362767	0.049997	67.000000	nontarget	11.000000	na
61.412764	0.049995	67.000000	nontarget	12.000000	na
61.462759	0.049999	67.000000	nontarget	13.000000	61.482473
61.512758	0.049997	67.000000	nontarget	14.000000	na
61.562755	0.049999	67.000000	nontarget	15.000000	na
61.612754	0.049995	67.000000	nontarget	16.000000	na
61.662749	0.049989	68.000000	nontarget	1.000000	na
61.712738	0.050010	68.000000	nontarget	2.000000	na
61.762748	0.049998	68.000000	nontarget	3.000000	na
61.812746	0.049994	68.000000	nontarget	4.000000	na
61.862740	0.049998	68.000000	nontarget	5.000000	na
61.912738	0.049998	68.000000	nontarget	6.000000	na
61.962737	0.049997	68.000000	nontarget	7.000000	na
62.012733	0.049998	68.000000	nontarget	8.000000	na
62.062732	0.049996	68.000000	nontarget	9.000000	na
62.112727	0.049996	68.000000	nontarget	10.000000	na
62.162724	0.049996	68.000000	nontarget	11.000000	na
62.212720	0.049998	68.000000	nontarget	12.000000	na
62.262717	0.049998	68.000000	nontarget	13.000000	na
62.312715	0.049990	68.000000	nontarget	14.000000	na
62.362705	0.049997	68.000000	nontarget	15.000000	na
62.412702	0.049998	68.000000	nontarget	16.000000	na
62.462700	0.049996	69.000000	nontarget	1.000000	na
62.512696	0.049998	69.000000	nontarget	2.000000	62.513426
62.562694	0.049997	69.000000	nontarget	3.000000	na
62.612692	0.049996	69.000000	nontarget	4.000000	na
62.662688	0.049992	69.000000	nontarget	5.000000	na
62.712680	0.050007	69.000000	nontarget	6.000000	na
62.762687	0.049997	69.000000	nontarget	7.000000	na
62.812684	0.049993	69.000000	nontarget	8.000000	na
62.862677	0.049995	69.000000	nontarget	9.000000	na
62.912672	0.049998	69.000000	nontarget	10.000000	na
62.962670	0.049997	69.000000	nontarget	11.000000	na
63.012667	0.049995	69.000000	nontarget	12.000000	na
63.062662	0.049997	69.000000	nontarget	13.000000	na
63.112659	0.049997	69.000000	nontarget	14.000000	na
63.162657	0.049998	69.000000	nontarget	15.000000	na
63.212655	0.050001	69.000000	nontarget	16.000000	63.213391
63.262656	0.049992	70.000000	nontarget	1.000000	63.263488
63.312648	0.049998	70.000000	nontarget	2.000000	na
63.362646	0.049995	70.000000	nontarget	3.000000	na
63.412641	0.049997	70.000000	nontarget	4.000000	na
63.462638	0.049998	70.000000	nontarget	5.000000	na
63.512636	0.049996	70.000000	nontarget	6.000000	na
63.562632	0.049998	70.000000	nontarget	7.000000	na
63.612630	0.049997	70.000000	nontarget	8.000000	na
63.662627	0.050003	70.000000	nontarget	9.000000	na
63.712630	0.049997	70.000000	nontarget	10.000000	na
63.762627	0.049991	70.000000	nontarget	11.000000	na
63.812618	0.049995	70.000000	nontarget	12.000000	na
63.862613	0.049996	70.000000	nontarget	13.000000	na
63.912609	0.050005	70.000000	nontarget	14.000000	na
63.962614	0.049992	70.000000	nontarget	15.000000	na
64.012606	0.049996	70.000000	nontarget	16.000000	na
64.062603	0.049997	71.000000	nontarget	1.000000	na
64.112600	0.049995	71.000000	nontarget	2.000000	na
64.162595	0.049996	71.000000	nontarget	3.000000	64.186562
64.212591	0.050001	71.000000	nontarget	4.000000	na
64.262592	0.049995	71.000000	nontarget	5.000000	na
64.312587	0.049997	71.000000	nontarget	6.000000	na
64.362584	0.049997	71.000000	nontarget	7.000000	na
64.412580	0.049996	71.000000	nontarget	8.000000	na
64.462576	0.049999	71.000000	nontarget	9.000000	na
64.512575	0.049998	71.000000	nontarget	10.000000	na
64.562573	0.049996	71.000000	nontarget	11.000000	na
64.612569	0.049998	71.000000	nontarget	12.000000	na
64.662567	0.050001	71.000000	nontarget	13.000000	64.689397
64.712568	0.049994	71.000000	nontarget	14.000000	na
64.762562	0.049994	71.000000	nontarget	15.000000	na
64.812557	0.050006	71.000000	nontarget	16.000000	na
64.862563	0.049987	72.000000	nontarget	1.000000	64.863431
64.912549	0.049999	72.000000	nontarget	2.000000	na
64.962549	0.049996	72.000000	nontarget	3.000000	na
65.012545	0.049998	72.000000	nontarget	4.000000	na
65.062543	0.049994	72.000000	nontarget	5.000000	na
65.112537	0.049998	72.000000	nontarget	6.000000	na
65.162535	0.050000	72.000000	nontarget	7.000000	na
65.212534	0.049994	72.000000	nontarget	8.000000	na
65.262528	0.049998	72.000000	nontarget	9.000000	na
65.312526	0.049998	72.000000	nontarget	10.000000	na
65.362523	0.049996	72.000000	nontarget	11.000000	na
65.412519	0.049997	72.000000	nontarget	12.000000	na
65.462516	0.049998	72.000000	nontarget	13.000000	na
65.512514	0.049996	72.000000	nontarget	14.000000	na
65.562510	0.049998	72.000000	nontarget	15.000000	na
65.612508	0.049997	72.000000	nontarget	16.000000	na
65.662505	0.050001	73.000000	nontarget	1.000000	na
65.712506	0.049995	73.000000	nontarget	2.000000	na
65.762501	0.049994	73.000000	nontarget	3.000000	65.763225
65.812496	0.049998	73.000000	nontarget	4.000000	na
65.862493	0.049995	73.000000	nontarget	5.000000	na
65.912489	0.049998	73.000000	nontarget	6.000000	na
65.962486	0.049998	73.000000	nontarget	7.000000	na
66.012484	0.049991	73.000000	nontarget	8.000000	na
66.062475	0.050010	73.000000	nontarget	9.000000	na
66.112485	0.049970	73.000000	nontarget	10.000000	na
66.162455	0.050027	73.000000	nontarget	11.000000	na
66.212482	0.049986	73.000000	nontarget	12.000000	na
66.262468	0.050002	73.000000	nontarget	13.000000	na
66.312469	0.049993	73.000000	nontarget	14.000000	66.313191
66.362462	0.049998	73.000000	nontarget	15.000000	na
66.412460	0.049998	73.000000	nontarget	16.000000	na
66.462457	0.049996	74.000000	nontarget	1.000000	na
66.512453	0.049996	74.000000	nontarget	2.000000	na
66.562449	0.049999	74.000000	nontarget	3.000000	na
66.612448	0.049995	74.000000	nontarget	4.000000	na
66.662444	0.050002	74.000000	nontarget	5.000000	na
66.712446	0.049993	74.000000	nontarget	6.000000	na
66.762439	0.049994	74.000000	nontarget	7.000000	na
66.812433	0.049999	74.000000	nontarget	8.000000	na
66.862432	0.049996	74.000000	nontarget	9.000000	na
66.912428	0.049999	74.000000	nontarget	10.000000	na
66.962427	0.049995	74.000000	nontarget	11.000000	na
67.012421	0.049998	74.000000	nontarget	12.000000	na
67.062420	0.049998	74.000000	nontarget	13.000000	na
67.112417	0.049996	74.000000	nontarget	14.000000	na
67.162413	0.049997	74.000000	nontarget	15.000000	na
67.212410	0.049997	74.000000	nontarget	16.000000	67.217531
67.262407	0.049998	75.000000	nontarget	1.000000	67.263127
67.312405	0.049997	75.000000	nontarget	2.000000	na
67.362402	0.049995	75.000000	nontarget	3.000000	na
67.412397	0.049999	75.000000	nontarget	4.000000	na
67.462396	0.049996	75.000000	nontarget	5.000000	na
67.512392	0.049997	75.000000	nontarget	6.000000	na
67.562389	0.049997	75.000000	nontarget	7.000000	na
67.612385	0.049997	75.000000	nontarget	8.000000	na
67.662382	0.050003	75.000000	nontarget	9.000000	na
67.712385	0.049993	75.000000	nontarget	10.000000	na
67.762378	0.049996	75.000000	nontarget	11.000000	na
67.812374	0.049996	75.000000	nontarget	12.000000	na
67.862370	0.049997	75.000000	nontarget	13.000000	na
67.912367	0.049998	75.000000	nontarget	14.000000	67.943360
67.962365	0.049997	75.000000	nontarget	15.000000	na
68.012362	0.050009	75.000000	nontarget	16.000000	na
68.062371	0.049984	76.000000	nontarget	1.000000	68.063153
68.112355	0.049997	76.000000	nontarget	2.000000	na
68.162352	0.049997	76.000000	nontarget	3.000000	na
68.212349	0.049997	76.000000	nontarget	4.000000	na
68.262347	0.049994	76.000000	nontarget	5.000000	na
68.312341	0.049998	76.000000	nontarget	6.000000	na
68.362339	0.049999	76.000000	nontarget	7.000000	na
68.412338	0.049999	76.000000	nontarget	8.000000	na
68.462336	0.049993	76.000000	nontarget	9.000000	na
68.512329	0.049998	76.000000	nontarget	10.000000	na
68.562327	0.049998	76.000000	nontarget	11.000000	na
68.612324	0.049997	76.000000	nontarget	12.000000	na
68.662322	0.050002	76.000000	nontarget	13.000000	na
68.712323	0.049992	76.000000	nontarget	14.000000	na
68.762316	0.050001	76.000000	nontarget	15.000000	na
68.812317	0.049994	76.000000	nontarget	16.000000	68.813011
68.862311	0.049994	77.000000	nontarget	1.000000	68.863027
68.912305	0.049997	77.000000	nontarget	2.000000	na
68.962302	0.049999	77.000000	nontarget	3.000000	na
69.012302	0.050009	77.000000	nontarget	4.000000	na
69.062310	0.049998	77.000000	nontarget	5.000000	na
69.112308	0.049994	77.000000	nontarget	6.000000	na
69.162302	0.049996	77.000000	nontarget	7.000000	na
69.212298	0.049992	77.000000	nontarget	8.000000	na
69.262291	0.050002	77.000000	nontarget	9.000000	na
69.312293	0.050029	77.000000	nontarget	10.000000	na
69.362322	0.050002	77.000000	nontarget	11.000000	na
69.412324	0.049990	77.000000	nontarget	12.000000	na
69.462314	0.050003	77.000000	nontarget	13.000000	na
69.512316	0.049945	77.000000	nontarget	14.000000	na
69.562261	0.050022	77.000000	nontarget	15.000000	69.565401
69.612283	0.049979	77.000000	nontarget	16.000000	na
69.662262	0.050003	78.000000	nontarget	1.000000	69.662955
69.712265	0.050000	78.000000	nontarget	2.000000	na
69.762266	0.049996	78.000000	nontarget	3.000000	na
69.812261	0.049998	78.000000	nontarget	4.000000	na
69.862259	0.049998	78.000000	nontarget	5.000000	na
69.912257	0.049997	78.000000	nontarget	6.000000	na
69.962254	0.049985	78.000000	nontarget	7.000000	na
70.012239	0.049997	78.000000	nontarget	8.000000	na
70.062235	0.050008	78.000000	nontarget	9.000000	na
70.112243	0.049987	78.000000	nontarget	10.000000	na
70.162230	0.050014	78.000000	nontarget	11.000000	na
70.212244	0.049980	78.000000	nontarget	12.000000	na
70.262224	0.049997	78.000000	nontarget	13.000000	70.291464
70.312221	0.049999	78.000000	nontarget	14.000000	na
70.362220	0.050000	78.000000	nontarget	15.000000	na
70.412220	0.049992	78.000000	nontarget	16.000000	na
70.462212	0.049998	79.000000	nontarget	1.000000	na
70.512210	0.049996	79.000000	nontarget	2.000000	na
70.562206	0.049995	79.000000	nontarget	3.000000	na
70.612201	0.049999	79.000000	nontarget	4.000000	na
70.662201	0.050003	79.000000	nontarget	5.000000	na
70.712204	0.049990	79.000000	nontarget	6.000000	na
70.762194	0.049996	79.000000	nontarget	7.000000	na
70.812190	0.049999	79.000000	nontarget	8.000000	na
70.862189	0.049996	79.000000	nontarget	9.000000	na
70.912185	0.049996	79.000000	nontarget	10.000000	na
70.962181	0.049997	79.000000	nontarget	11.000000	na
71.012178	0.049998	79.000000	nontarget	12.000000	na
71.062176	0.049997	79.000000	nontarget	13.000000	na
71.112173	0.049996	79.000000	nontarget	14.000000	71.143686
71.162169	0.049998	79.000000	nontarget	15.000000	na
71.212167	0.049996	79.000000	nontarget	16.000000	na
71.262163	0.049997	80.000000	nontarget	1.000000	71.262855
71.312159	0.049998	80.000000	nontarget	2.000000	na
71.362157	0.049997	80.000000	nontarget	3.000000	na
71.412154	0.049996	80.000000	nontarget	4.000000	na
71.462150	0.049995	80.000000	nontarget	5.000000	na
71.512146	0.050000	80.000000	nontarget	6.000000	na
71.562146	0.049998	80.000000	nontarget	7.000000	na
71.612145	0.049996	80.000000	nontarget	8.000000	na
71.662140	0.050001	80.000000	nontarget	9.000000	na
71.712141	0.049995	80.000000	nontarget	10.000000	na
71.762136	0.049994	80.000000	nontarget	11.000000	na
71.812129	0.049998	80.000000	nontarget	12.000000	na
71.862127	0.049998	80.000000	nontarget	13.000000	na
71.912125	0.049994	80.000000	nontarget	14.000000	na
71.962119	0.050001	80.000000	nontarget	15.000000	71.972422
72.012119	0.049997	80.000000	nontarget	16.000000	na
72.062116	0.049999	81.000000	nontarget	1.000000	72.062846
72.112114	0.049993	81.000000	nontarget	2.000000	na
72.162108	0.049997	81.000000	nontarget	3.000000	na
72.212105	0.049998	81.000000	nontarget	4.000000	na
72.262103	0.049996	81.000000	nontarget	5.000000	na
72.312099	0.049996	81.000000	nontarget	6.000000	na
72.362095	0.050000	81.000000	nontarget	7.000000	na
72.412095	0.049994	81.000000	nontarget	8.000000	na
72.462089	0.049998	81.000000	nontarget	9.000000	na
72.512087	0.049997	81.000000	nontarget	10.000000	na
72.562084	0.049997	81.000000	nontarget	11.000000	na
72.612081	0.049997	81.000000	nontarget	12.000000	na
72.662078	0.050003	81.000000	nontarget	13.000000	na
72.712080	0.049992	81.000000	nontarget	14.000000	72.714659
72.762072	0.049997	81.000000	nontarget	15.000000	na
72.812069	0.049997	81.000000	nontarget	16.000000	na
72.862066	0.049997	82.000000	nontarget	1.000000	na
72.912063	0.049998	82.000000	nontarget	2.000000	na
72.962061	0.049996	82.000000	nontarget	3.000000	na
73.012057	0.049998	82.000000	nontarget	4.000000	na
73.062055	0.049997	82.000000	nontarget	5.000000	na
73.112052	0.049997	82.000000	nontarget	6.000000	na
73.162049	0.049995	82.000000	nontarget	7.000000	na
73.212044	0.050004	82.000000	nontarget	8.000000	na
73.262048	0.049991	82.000000	nontarget	9.000000	na
73.312039	0.049999	82.000000	nontarget	10.000000	na
73.362038	0.049995	82.000000	nontarget	11.000000	na
73.412033	0.049997	82.000000	nontarget	12.000000	na
73.462030	0.049997	82.000000	nontarget	13.000000	na
73.512027	0.049998	82.000000	nontarget	14.000000	na
73.562025	0.049995	82.000000	nontarget	15.000000	73.576668
73.612020	0.049998	82.000000	nontarget	16.000000	na
73.662018	0.050003	83.000000	nontarget	1.000000	73.662733
73.712021	0.049991	83.000000	nontarget	2.000000	na
73.762012	0.049995	83.000000	nontarget	3.000000	na
73.812007	0.049999	83.000000	nontarget	4.000000	na
73.862006	0.049996	83.000000	nontarget	5.000000	na
73.912002	0.049998	83.000000	nontarget	6.000000	na
73.961999	0.049997	83.000000	nontarget	7.000000	na
74.011997	0.049999	83.000000	nontarget	8.000000	na
74.061996	0.049996	83.000000	nontarget	9.000000	na
74.111992	0.049994	83.000000	nontarget	10.000000	na
74.161986	0.049999	83.000000	nontarget	11.000000	na
74.211985	0.049997	83.000000	nontarget	12.000000	na
74.261981	0.049997	83.000000	nontarget	13.000000	74.270494
74.311978	0.049997	83.000000	nontarget	14.000000	na
74.361975	0.049998	83.000000	nontarget	15.000000	na
74.411973	0.049995	83.000000	nontarget	16.000000	na
74.461968	0.049998	84.000000	nontarget	1.000000	na
74.511966	0.049996	84.000000	nontarget	2.000000	na
74.561962	0.049998	84.000000	nontarget	3.000000	na
74.611960	0.049996	84.000000	nontarget	4.000000	na
74.661956	0.050001	84.000000	nontarget	5.000000	na
74.711957	0.049993	84.000000	nontarget	6.000000	na
74.761950	0.049998	84.000000	nontarget	7.000000	na
74.811948	0.049997	84.000000	nontarget	8.000000	na
74.861945	0.049996	84.000000	nontarget	9.000000	na
74.911941	0.049997	84.000000	nontarget	10.000000	na
74.961938	0.050000	84.000000	nontarget	11.000000	na
75.011937	0.049995	84.000000	nontarget	12.000000	na
75.061933	0.049995	84.000000	nontarget	13.000000	na
75.111928	0.049998	84.000000	nontarget	14.000000	na
75.161926	0.049995	84.000000	nontarget	15.000000	75.168499
75.211921	0.049997	84.000000	nontarget	16.000000	na
75.261919	0.050001	85.000000	nontarget	1.000000	75.262642
75.311919	0.049996	85.000000	nontarget	2.000000	na
75.361915	0.049996	85.000000	nontarget	3.000000	na
75.411912	0.049999	85.000000	nontarget	4.000000	na
75.461911	0.049994	85.000000	nontarget	5.000000	na
75.511905	0.049996	85.000000	nontarget	6.000000	na
75.561901	0.049997	85.000000	nontarget	7.000000	na
75.611898	0.049998	85.000000	nontarget	8.000000	na
75.661896	0.050001	85.000000	nontarget	9.000000	na
75.711897	0.049993	85.000000	nontarget	10.000000	na
75.761890	0.049997	85.000000	nontarget	11.000000	na
75.811887	0.049996	85.000000	nontarget	12.000000	na
75.861883	0.049997	85.000000	nontarget	13.000000	na
75.911880	0.049999	85.000000	nontarget	14.000000	na
75.961879	0.049995	85.000000	nontarget	15.000000	75.962602
76.011874	0.049997	85.000000	nontarget	16.000000	na
76.061872	0.049999	86.000000	nontarget	1.000000	76.062604
76.111871	0.049994	86.000000	nontarget	2.000000	na
76.161865	0.049987	86.000000	nontarget	3.000000	na
76.211852	0.050008	86.000000	nontarget	4.000000	na
76.261859	0.049998	86.000000	nontarget	5.000000	na
76.311857	0.049997	86.000000	nontarget	6.000000	na
76.361854	0.049998	86.000000	nontarget	7.000000	na
76.411852	0.050003	86.000000	nontarget	8.000000	na
76.461855	0.049990	86.000000	nontarget	9.000000	na
76.511845	0.050004	86.000000	nontarget	10.000000	na
76.561848	0.049988	86.000000	nontarget	11.000000	na
76.611837	0.049999	86.000000	nontarget	12.000000	na
76.661836	0.050000	86.000000	nontarget	13.000000	na
76.711836	0.049994	86.000000	nontarget	14.000000	na
76.761829	0.049996	86.000000	nontarget	15.000000	na
76.811825	0.049998	86.000000	nontarget	16.000000	na
76.861823	0.049995	87.000000	nontarget	1.000000	76.862545
76.911818	0.049999	87.000000	nontarget	2.000000	na
76.961817	0.049997	87.000000	nontarget	3.000000	na
77.011814	0.049986	87.000000	nontarget	4.000000	na
77.061800	0.050014	87.000000	nontarget	5.000000	na
77.111814	0.049996	87.000000	nontarget	6.000000	na
77.161810	0.049995	87.000000	nontarget	7.000000	na
77.211805	0.049998	87.000000	nontarget	8.000000	na
77.261803	0.049997	87.000000	nontarget	9.000000	na
77.311801	0.049997	87.000000	nontarget	10.000000	na
77.361797	0.049996	87.000000	nontarget	11.000000	na
77.411794	0.049998	87.000000	nontarget	12.000000	na
77.461792	0.049998	87.000000	nontarget	13.000000	na
77.511789	0.049996	87.000000	nontarget	14.000000	na
77.561785	0.049998	87.000000	nontarget	15.000000	na
77.611783	0.049996	87.000000	nontarget	16.000000	na
77.661779	0.049997	88.000000	nontarget	1.000000	na
77.711776	0.049999	88.000000	nontarget	2.000000	na
77.761775	0.049995	88.000000	nontarget	3.000000	77.762477
77.811771	0.049997	88.000000	nontarget	4.000000	na
77.861767	0.049997	88.000000	nontarget	5.000000	na
77.911764	0.049997	88.000000	nontarget	6.000000	na
77.961761	0.049997	88.000000	nontarget	7.000000	na
78.011758	0.049999	88.000000	nontarget	8.000000	na
78.061757	0.049993	88.000000	nontarget	9.000000	na
78.111750	0.049998	88.000000	nontarget	10.000000	na
78.161748	0.049997	88.000000	nontarget	11.000000	na
78.211745	0.049996	88.000000	nontarget	12.000000	na
78.261741	0.049998	88.000000	nontarget	13.000000	na
78.311739	0.050000	88.000000	nontarget	14.000000	na
78.361739	0.049994	88.000000	nontarget	15.000000	na
78.411732	0.049998	88.000000	nontarget	16.000000	na
78.461731	0.049996	89.000000	nontarget	1.000000	na
78.511727	0.049997	89.000000	nontarget	2.000000	78.519318
78.561724	0.049998	89.000000	nontarget	3.000000	na
78.611722	0.050001	89.000000	nontarget	4.000000	na
78.661722	0.049991	89.000000	nontarget	5.000000	na
78.711714	0.050007	89.000000	nontarget	6.000000	na
78.761721	0.049993	89.000000	nontarget	7.000000	na
78.811714	0.050005	89.000000	nontarget	8.000000	na
78.861719	0.050023	89.000000	nontarget	9.000000	na
78.911743	0.050004	89.000000	nontarget	10.000000	na
78.961746	0.049989	89.000000	nontarget	11.000000	na
79.011736	0.049964	89.000000	nontarget	12.000000	na
79.061700	0.050002	89.000000	nontarget	13.000000	na
79.111702	0.050002	89.000000	nontarget	14.000000	na
79.161705	0.049978	89.000000	nontarget	15.000000	na
79.211683	0.049992	89.000000	nontarget	16.000000	na
79.261674	0.050010	90.000000	target	1.000000	na
79.311685	0.049998	90.000000	target	2.000000	na
79.361683	0.049995	90.000000	target	3.000000	na
79.411678	0.049997	90.000000	target	4.000000	na
79.461676	0.049994	90.000000	target	5.000000	na
79.511669	0.049987	90.000000	target	6.000000	na
79.561656	0.050006	90.000000	target	7.000000	na
79.611662	0.050005	90.000000	target	8.000000	na
79.661667	0.050000	90.000000	target	9.000000	na
79.711667	0.049980	90.000000	target	10.000000	na
79.761646	0.050004	90.000000	target	11.000000	na
79.811650	0.050002	90.000000	target	12.000000	na
79.861652	0.049983	90.000000	target	13.000000	na
79.911635	0.049997	90.000000	target	14.000000	na
79.961632	0.049998	90.000000	target	15.000000	79.993560
80.011630	0.050006	90.000000	target	16.000000	na
80.061636	0.049988	91.000000	nontarget	1.000000	80.062446
80.111624	0.050000	91.000000	nontarget	2.000000	na
80.161624	0.049992	91.000000	nontarget	3.000000	na
80.211616	0.050000	91.000000	nontarget	4.000000	na
80.261616	0.049996	91.000000	nontarget	5.000000	na
80.311612	0.049998	91.000000	nontarget	6.000000	na
80.361610	0.049998	91.000000	nontarget	7.000000	na
80.411607	0.049998	91.000000	nontarget	8.000000	na
80.461605	0.049994	91.000000	nontarget	9.000000	na
80.511599	0.049998	91.000000	nontarget	10.000000	na
80.561596	0.049998	91.000000	nontarget	11.000000	na
80.611594	0.049996	91.000000	nontarget	12.000000	na
80.661589	0.050003	91.000000	nontarget	13.000000	na
80.711592	0.049993	91.000000	nontarget	14.000000	na
80.761585	0.049998	91.000000	nontarget	15.000000	na
80.811583	0.049998	91.000000	nontarget	16.000000	80.829473
80.861580	0.049994	92.000000	nontarget	1.000000	80.862319
80.911574	0.049996	92.000000	nontarget	2.000000	na
80.961570	0.049999	92.000000	nontarget	3.000000	na
81.011569	0.050005	92.000000	nontarget	4.000000	na
81.061575	0.049988	92.000000	nontarget	5.000000	na
81.111562	0.049998	92.000000	nontarget	6.000000	na
81.161560	0.049997	92.000000	nontarget	7.000000	na
81.211557	0.049997	92.000000	nontarget	8.000000	na
81.261554	0.049998	92.000000	nontarget	9.000000	na
81.311552	0.049997	92.000000	nontarget	10.000000	na
81.361548	0.049995	92.000000	nontarget	11.000000	na
81.411544	0.049998	92.000000	nontarget	12.000000	na
81.461542	0.049996	92.000000	nontarget	13.000000	na
81.511538	0.049997	92.000000	nontarget	14.000000	na
81.561535	0.049999	92.000000	nontarget	15.000000	na
81.611534	0.049998	92.000000	nontarget	16.000000	na
81.661531	0.049999	93.000000	nontarget	1.000000	81.662268
81.711530	0.049993	93.000000	nontarget	2.000000	na
81.761523	0.049998	93.000000	nontarget	3.000000	na
81.811521	0.049997	93.000000	nontarget	4.000000	na
81.861518	0.049998	93.000000	nontarget	5.000000	na
81.911516	0.049996	93.000000	nontarget	6.000000	na
81.961512	0.049996	93.000000	nontarget	7.000000	na
82.011508	0.049998	93.000000	nontarget	8.000000	na
82.061505	0.049998	93.000000	nontarget	9.000000	na
82.111503	0.049998	93.000000	nontarget	10.000000	na
82.161501	0.049996	93.000000	nontarget	11.000000	na
82.211496	0.049996	93.000000	nontarget	12.000000	na
82.261492	0.049997	93.000000	nontarget	13.000000	na
82.311490	0.049998	93.000000	nontarget	14.000000	na
82.361487	0.049998	93.000000	nontarget	15.000000	na
82.411485	0.049997	93.000000	nontarget	16.000000	82.412227
82.461481	0.049997	94.000000	nontarget	1.000000	82.462198
82.511478	0.049999	94.000000	nontarget	2.000000	na
82.561477	0.049994	94.000000	nontarget	3.000000	na
82.611471	0.049999	94.000000	nontarget	4.000000	na
82.661471	0.049999	94.000000	nontarget	5.000000	na
82.711469	0.049992	94.000000	nontarget	6.000000	na
82.761461	0.049998	94.000000	nontarget	7.000000	na
82.811460	0.049997	94.000000	nontarget	8.000000	na
82.861457	0.049995	94.000000	nontarget	9.000000	na
82.911452	0.049997	94.000000	nontarget	10.000000	na
82.961449	0.049999	94.000000	nontarget	11.000000	na
83.011448	0.050005	94.000000	nontarget	12.000000	na
83.061453	0.049989	94.000000	nontarget	13.000000	na
83.111443	0.049997	94.000000	nontarget	14.000000	na
83.161439	0.049996	94.000000	nontarget	15.000000	na
83.211435	0.049998	94.000000	nontarget	16.000000	na
83.261434	0.049995	95.000000	nontarget	1.000000	na
83.311429	0.049998	95.000000	nontarget	2.000000	na
83.361427	0.049995	95.000000	nontarget	3.000000	83.362162
83.411422	0.049997	95.000000	nontarget	4.000000	na
83.461419	0.049998	95.000000	nontarget	5.000000	na
83.511417	0.049997	95.000000	nontarget	6.000000	na
83.561414	0.049996	95.000000	nontarget	7.000000	na
83.611410	0.049999	95.000000	nontarget	8.000000	na
83.661409	0.049999	95.000000	nontarget	9.000000	na
83.711408	0.049998	95.000000	nontarget	10.000000	na
83.761406	0.049991	95.000000	nontarget	11.000000	na
83.811397	0.049999	95.000000	nontarget	12.000000	na
83.861396	0.049998	95.000000	nontarget	13.000000	na
83.911393	0.049995	95.000000	nontarget	14.000000	83.912112
83.961388	0.050000	95.000000	nontarget	15.000000	na
84.011388	0.049999	95.000000	nontarget	16.000000	na
84.061387	0.049992	96.000000	nontarget	1.000000	na
84.111379	0.049998	96.000000	nontarget	2.000000	na
84.161377	0.049996	96.000000	nontarget	3.000000	na
84.211373	0.049998	96.000000	nontarget	4.000000	na
84.261372	0.049997	96.000000	nontarget	5.000000	na
84.311369	0.049996	96.000000	nontarget	6.000000	na
84.361365	0.049995	96.000000	nontarget	7.000000	na
84.411360	0.049998	96.000000	nontarget	8.000000	na
84.461358	0.049998	96.000000	nontarget	9.000000	na
84.511355	0.049998	96.000000	nontarget	10.000000	na
84.561354	0.049996	96.000000	nontarget	11.000000	na
84.611350	0.049996	96.000000	nontarget	12.000000	na
84.661346	0.050003	96.000000	nontarget	13.000000	na
84.711349	0.049993	96.000000	nontarget	14.000000	na
84.761342	0.049996	96.000000	nontarget	15.000000	84.762067
84.811338	0.049996	96.000000	nontarget	16.000000	na
84.861334	0.049998	97.000000	nontarget	1.000000	84.862064
84.911331	0.049996	97.000000	nontarget	2.000000	na
84.961328	0.049996	97.000000	nontarget	3.000000	na
85.011324	0.049998	97.000000	nontarget	4.000000	na
85.061322	0.049997	97.000000	nontarget	5.000000	na
85.111319	0.049998	97.000000	nontarget	6.000000	na
85.161317	0.049997	97.000000	nontarget	7.000000	na
85.211313	0.049997	97.000000	nontarget	8.000000	na
85.261310	0.049997	97.000000	nontarget	9.000000	na
85.311308	0.049996	97.000000	nontarget	10.000000	na
85.361303	0.049998	97.000000	nontarget	11.000000	na
85.411302	0.049995	97.000000	nontarget	12.000000	85.415277
85.461297	0.049998	97.000000	nontarget	13.000000	na
85.511294	0.050001	97.000000	nontarget	14.000000	na
85.561295	0.049994	97.000000	nontarget	15.000000	na
85.611289	0.049996	97.000000	nontarget	16.000000	na
85.661285	0.050003	98.000000	nontarget	1.000000	na
85.711288	0.049991	98.000000	nontarget	2.000000	na
85.761279	0.049997	98.000000	nontarget	3.000000	na
85.811276	0.050000	98.000000	nontarget	4.000000	na
85.861276	0.049993	98.000000	nontarget	5.000000	na
85.911269	0.049999	98.000000	nontarget	6.000000	na
85.961269	0.049995	98.000000	nontarget	7.000000	na
86.011263	0.050008	98.000000	nontarget	8.000000	na
86.061271	0.049987	98.000000	nontarget	9.000000	na
86.111258	0.049997	98.000000	nontarget	10.000000	na
86.161255	0.049996	98.000000	nontarget	11.000000	na
86.211251	0.049998	98.000000	nontarget	12.000000	na
86.261249	0.049998	98.000000	nontarget	13.000000	86.278403
86.311246	0.049996	98.000000	nontarget	14.000000	na
86.361243	0.049999	98.000000	nontarget	15.000000	na
86.411241	0.049996	98.000000	nontarget	16.000000	na
86.461237	0.049997	99.000000	nontarget	1.000000	na
86.511234	0.049997	99.000000	nontarget	2.000000	na
86.561231	0.049998	99.000000	nontarget	3.000000	na
86.611228	0.049995	99.000000	nontarget	4.000000	na
86.661223	0.050002	99.000000	nontarget	5.000000	na
86.711225	0.049993	99.000000	nontarget	6.000000	na
86.761218	0.049998	99.000000	nontarget	7.000000	na
86.811217	0.049994	99.000000	nontarget	8.000000	na
86.861211	0.049997	99.000000	nontarget	9.000000	na
86.911208	0.049997	99.000000	nontarget	10.000000	na
86.961205	0.049998	99.000000	nontarget	11.000000	na
87.011203	0.049998	99.000000	nontarget	12.000000	na
87.061201	0.049996	99.000000	nontarget	13.000000	na
87.111197	0.049998	99.000000	nontarget	14.000000	na
87.161195	0.049998	99.000000	nontarget	15.000000	na
87.211193	0.049997	99.000000	nontarget	16.000000	na
87.261190	0.049996	100.000000	nontarget	1.000000	87.261895
87.311186	0.049995	100.000000	nontarget	2.000000	na
87.361181	0.050002	100.000000	nontarget	3.000000	na
87.411182	0.049994	100.000000	nontarget	4.000000	na
87.461177	0.049994	100.000000	nontarget	5.000000	na
87.511171	0.050000	100.000000	nontarget	6.000000	na
87.561170	0.049996	100.000000	nontarget	7.000000	na
87.611166	0.049998	100.000000	nontarget	8.000000	na
87.661164	0.049998	100.000000	nontarget	9.000000	na
87.711163	0.049996	100.000000	nontarget	10.000000	na
87.761158	0.049996	100.000000	nontarget	11.000000	na
87.811155	0.049998	100.000000	nontarget	12.000000	na
87.861152	0.049996	100.000000	nontarget	13.000000	na
87.911148	0.049998	100.000000	nontarget	14.000000	na
87.961146	0.049996	100.000000	nontarget	15.000000	87.992425
88.011141	0.050007	100.000000	nontarget	16.000000	na
88.061148	0.049991	101.000000	nontarget	1.000000	88.061910
88.111139	0.050017	101.000000	nontarget	2.000000	na
88.161156	0.049983	101.000000	nontarget	3.000000	na
88.211139	0.050003	101.000000	nontarget	4.000000	na
88.261142	0.049999	101.000000	nontarget	5.000000	na
88.311141	0.049990	101.000000	nontarget	6.000000	na
88.361131	0.050022	101.000000	nontarget	7.000000	na
88.411153	0.050012	101.000000	nontarget	8.000000	na
88.461164	0.049992	101.000000	nontarget	9.000000	na
88.511156	0.049947	101.000000	nontarget	10.000000	na
88.561103	0.050019	101.000000	nontarget	11.000000	na
88.611121	0.050003	101.000000	nontarget	12.000000	na
88.661124	0.049987	101.000000	nontarget	13.000000	na
88.711111	0.049982	101.000000	nontarget	14.000000	88.738340
88.761093	0.050010	101.000000	nontarget	15.000000	na
88.811103	0.050006	101.000000	nontarget	16.000000	na
88.861109	0.049991	102.000000	nontarget	1.000000	88.861814
88.911100	0.049995	102.000000	nontarget	2.000000	na
88.961095	0.049994	102.000000	nontarget	3.000000	na
89.011089	0.049993	102.000000	nontarget	4.000000	na
89.061082	0.049995	102.000000	nontarget	5.000000	na
89.111077	0.050006	102.000000	nontarget	6.000000	na
89.161084	0.049992	102.000000	nontarget	7.000000	na
89.211076	0.049991	102.000000	nontarget	8.000000	na
89.261066	0.050007	102.000000	nontarget	9.000000	na
89.311074	0.049999	102.000000	nontarget	10.000000	na
89.361073	0.049984	102.000000	nontarget	11.000000	na
89.411056	0.049996	102.000000	nontarget	12.000000	na
89.461052	0.049997	102.000000	nontarget	13.000000	89.471450
89.511049	0.049999	102.000000	nontarget	14.000000	na
89.561048	0.050002	102.000000	nontarget	15.000000	na
89.611050	0.049991	102.000000	nontarget	16.000000	na
89.661042	0.050000	103.000000	nontarget	1.000000	na
89.711042	0.049994	103.000000	nontarget	2.000000	na
89.761035	0.049995	103.000000	nontarget	3.000000	na
89.811031	0.049999	103.000000	nontarget	4.000000	na
89.861030	0.049996	103.000000	nontarget	5.000000	na
89.911026	0.049997	103.000000	nontarget	6.000000	na
89.961023	0.049996	103.000000	nontarget	7.000000	na
90.011019	0.049998	103.000000	nontarget	8.000000	na
90.061017	0.049996	103.000000	nontarget	9.000000	na
90.111013	0.049998	103.000000	nontarget	10.000000	na
90.161010	0.049999	103.000000	nontarget	11.000000	na
90.211009	0.049996	103.000000	nontarget	12.000000	na
90.261005	0.049997	103.000000	nontarget	13.000000	90.283256
90.311002	0.049996	103.000000	nontarget	14.000000	na
90.360998	0.050001	103.000000	nontarget	15.000000	na
90.411000	0.049992	103.000000	nontarget	16.000000	na
90.460992	0.049997	104.000000	nontarget	1.000000	na
90.510989	0.049999	104.000000	nontarget	2.000000	na
90.560988	0.049996	104.000000	nontarget	3.000000	na
90.610984	0.049997	104.000000	nontarget	4.000000	na
90.660981	0.049999	104.000000	nontarget	5.000000	na
90.710980	0.049994	104.000000	nontarget	6.000000	na
90.760975	0.049995	104.000000	nontarget	7.000000	na
90.810969	0.049999	104.000000	nontarget	8.000000	na
90.860969	0.049997	104.000000	nontarget	9.000000	na
90.910966	0.049998	104.000000	nontarget	10.000000	na
90.960964	0.049996	104.000000	nontarget	11.000000	na
91.010959	0.049999	104.000000	nontarget	12.000000	na
91.060958	0.049994	104.000000	nontarget	13.000000	na
91.110952	0.049998	104.000000	nontarget	14.000000	na
91.160950	0.049998	104.000000	nontarget	15.000000	na
91.210948	0.049997	104.000000	nontarget	16.000000	91.242433
91.260945	0.049996	105.000000	nontarget	1.000000	91.261652
91.310941	0.049998	105.000000	nontarget	2.000000	na
91.360938	0.049997	105.000000	nontarget	3.000000	na
91.410935	0.049996	105.000000	nontarget	4.000000	na
91.460931	0.049998	105.000000	nontarget	5.000000	na
91.510929	0.049997	105.000000	nontarget	6.000000	na
91.560926	0.049997	105.000000	nontarget	7.000000	na
91.610923	0.049997	105.000000	nontarget	8.000000	na
91.660920	0.050002	105.000000	nontarget	9.000000	na
91.710922	0.049992	105.000000	nontarget	10.000000	na
91.760914	0.049997	105.000000	nontarget	11.000000	na
91.810911	0.049997	105.000000	nontarget	12.000000	na
91.860907	0.049996	105.000000	nontarget	13.000000	na
91.910904	0.049998	105.000000	nontarget	14.000000	na
91.960902	0.049996	105.000000	nontarget	15.000000	na
92.010898	0.050006	105.000000	nontarget	16.000000	na
92.060904	0.049989	106.000000	nontarget	1.000000	92.068117
92.110893	0.049996	106.000000	nontarget	2.000000	na
92.160888	0.049997	106.000000	nontarget	3.000000	na
92.210885	0.049999	106.000000	nontarget	4.000000	na
92.260884	0.049997	106.000000	nontarget	5.000000	na
92.310881	0.049996	106.000000	nontarget	6.000000	na
92.360876	0.049997	106.000000	nontarget	7.000000	na
92.410873	0.049998	106.000000	nontarget	8.000000	na
92.460871	0.049996	106.000000	nontarget	9.000000	na
92.510867	0.049999	106.000000	nontarget	10.000000	na
92.560866	0.049997	106.000000	nontarget	11.000000	na
92.610862	0.049995	106.000000	nontarget	12.000000	na
92.660857	0.050003	106.000000	nontarget	13.000000	na
92.710860	0.049994	106.000000	nontarget	14.000000	na
92.760854	0.049997	106.000000	nontarget	15.000000	92.762243
92.810850	0.049995	106.000000	nontarget	16.000000	na
92.860846	0.049997	107.000000	nontarget	1.000000	92.861586
92.910842	0.049996	107.000000	nontarget	2.000000	na
92.960839	0.049998	107.000000	nontarget	3.000000	na
93.010837	0.049998	107.000000	nontarget	4.000000	na
93.060834	0.049997	107.000000	nontarget	5.000000	na
93.110831	0.049998	107.000000	nontarget	6.000000	na
93.160828	0.049996	107.000000	nontarget	7.000000	na
93.210824	0.049998	107.000000	nontarget	8.000000	na
93.260823	0.049998	107.000000	nontarget	9.000000	na
93.310821	0.049995	107.000000	nontarget	10.000000	na
93.360816	0.049996	107.000000	nontarget	11.000000	na
93.410812	0.049998	107.000000	nontarget	12.000000	na
93.460810	0.049996	107.000000	nontarget	13.000000	na
93.510806	0.049997	107.000000	nontarget	14.000000	na
93.560803	0.049998	107.000000	nontarget	15.000000	na
93.610801	0.049998	107.000000	nontarget	16.000000	na
93.660800	0.050000	108.000000	nontarget	1.000000	93.661507
93.710799	0.049993	108.000000	nontarget	2.000000	na
93.760792	0.050000	108.000000	nontarget	3.000000	na
93.810792	0.049999	108.000000	nontarget	4.000000	na
93.860791	0.049991	108.000000	nontarget	5.000000	na
93.910782	0.049996	108.000000	nontarget	6.000000	na
93.960777	0.049998	108.000000	nontarget	7.000000	na
94.010776	0.049997	108.000000	nontarget	8.000000	na
94.060772	0.049999	108.000000	nontarget	9.000000	na
94.110771	0.049995	108.000000	nontarget	10.000000	na
94.160766	0.049997	108.000000	nontarget	11.000000	na
94.210763	0.049997	108.000000	nontarget	12.000000	na
94.260760	0.049998	108.000000	nontarget	13.000000	na
94.310758	0.049996	108.000000	nontarget	14.000000	na
94.360754	0.049996	108.000000	nontarget	15.000000	na
94.410750	0.050004	108.000000	nontarget	16.000000	na
94.460753	0.049993	109.000000	nontarget	1.000000	94.461496
94.510747	0.049995	109.000000	nontarget	2.000000	na
94.560742	0.049998	109.000000	nontarget	3.000000	na
94.610741	0.049995	109.000000	nontarget	4.000000	na
94.660736	0.050001	109.000000	nontarget	5.000000	na
94.710736	0.049994	109.000000	nontarget	6.000000	na
94.760731	0.049995	109.000000	nontarget	7.000000	na
94.810726	0.050000	109.000000	nontarget	8.000000	na
94.860726	0.049996	109.000000	nontarget	9.000000	na
94.910721	0.049998	109.000000	nontarget	10.000000	na
94.960719	0.049996	109.000000	nontarget	11.000000	na
95.010715	0.050005	109.000000	nontarget	12.000000	na
95.060720	0.049988	109.000000	nontarget	13.000000	na
95.110708	0.049996	109.000000	nontarget	14.000000	na
95.160704	0.049998	109.000000	nontarget	15.000000	na
95.210702	0.049999	109.000000	nontarget	16.000000	95.228066
95.260701	0.049998	110.000000	nontarget	1.000000	95.261423
95.310699	0.049994	110.000000	nontarget	2.000000	na
95.360693	0.049998	110.000000	nontarget	3.000000	na
95.410691	0.049998	110.000000	nontarget	4.000000	na
95.460689	0.049994	110.000000	nontarget	5.000000	na
95.510683	0.050000	110.000000	nontarget	6.000000	na
95.560684	0.049996	110.000000	nontarget	7.000000	na
95.610679	0.049995	110.000000	nontarget	8.000000	na
95.660674	0.050002	110.000000	nontarget	9.000000	na
95.710676	0.049995	110.000000	nontarget	10.000000	na
95.760671	0.049996	110.000000	nontarget	11.000000	na
95.810667	0.049996	110.000000	nontarget	12.000000	na
95.860663	0.049997	110.000000	nontarget	13.000000	na
95.910660	0.049997	110.000000	nontarget	14.000000	na
95.960657	0.049996	110.000000	nontarget	15.000000	95.966027
96.010653	0.049998	110.000000	nontarget	16.000000	na
96.060651	0.050000	111.000000	nontarget	1.000000	96.061375
96.110651	0.049995	111.000000	nontarget	2.000000	na
96.160646	0.049987	111.000000	nontarget	3.000000	na
96.210633	0.050011	111.000000	nontarget	4.000000	na
96.260644	0.049997	111.000000	nontarget	5.000000	na
96.310641	0.049997	111.000000	nontarget	6.000000	na
96.360638	0.049995	111.000000	nontarget	7.000000	na
96.410633	0.049999	111.000000	nontarget	8.000000	na
96.460633	0.049998	111.000000	nontarget	9.000000	na
96.510630	0.049996	111.000000	nontarget	10.000000	na
96.560626	0.049998	111.000000	nontarget	11.000000	na
96.610624	0.049997	111.000000	nontarget	12.000000	na
96.660621	0.049997	111.000000	nontarget	13.000000	na
96.710618	0.049998	111.000000	nontarget	14.000000	na
96.760615	0.049995	111.000000	nontarget	15.000000	96.775196
96.810610	0.049998	111.000000	nontarget	16.000000	na
96.860608	0.049998	112.000000	nontarget	1.000000	96.861310
96.910606	0.049996	112.000000	nontarget	2.000000	na
96.960602	0.049991	112.000000	nontarget	3.000000	na
97.010593	0.050002	112.000000	nontarget	4.000000	na
97.060595	0.049991	112.000000	nontarget	5.000000	na
97.110586	0.050011	112.000000	nontarget	6.000000	na
97.160596	0.049984	112.000000	nontarget	7.000000	na
97.210580	0.050036	112.000000	nontarget	8.000000	na
97.260616	0.049959	112.000000	nontarget	9.000000	na
97.310574	0.050039	112.000000	nontarget	10.000000	na
97.360614	0.049955	112.000000	nontarget	11.000000	na
97.410569	0.050050	112.000000	nontarget	12.000000	na
97.460619	0.049943	112.000000	nontarget	13.000000	na
97.510562	0.050033	112.000000	nontarget	14.000000	na
97.560595	0.049961	112.000000	nontarget	15.000000	na
97.610556	0.050036	112.000000	nontarget	16.000000	na
97.660593	0.049973	113.000000	nontarget	1.000000	na
97.710566	0.050026	113.000000	nontarget	2.000000	na
97.760591	0.049953	113.000000	nontarget	3.000000	97.761292
97.810544	0.050061	113.000000	nontarget	4.000000	na
97.860605	0.049964	113.000000	nontarget	5.000000	na
97.910569	0.050001	113.000000	nontarget	6.000000	na
97.960570	0.050006	113.000000	nontarget	7.000000	na
98.010576	0.049962	113.000000	nontarget	8.000000	na
98.060538	0.050001	113.000000	nontarget	9.000000	na
98.110539	0.050036	113.000000	nontarget	10.000000	na
98.160575	0.049946	113.000000	nontarget	11.000000	na
98.210520	0.050022	113.000000	nontarget	12.000000	na
98.260542	0.049987	113.000000	nontarget	13.000000	na
98.310529	0.049997	113.000000	nontarget	14.000000	98.311245
98.360526	0.049992	113.000000	nontarget	15.000000	na
98.410518	0.050008	113.000000	nontarget	16.000000	na
98.460526	0.049987	114.000000	nontarget	1.000000	na
98.510513	0.049994	114.000000	nontarget	2.000000	na
98.560507	0.049989	114.000000	nontarget	3.000000	na
98.610496	0.050007	114.000000	nontarget	4.000000	na
98.660503	0.050001	114.000000	nontarget	5.000000	na
98.710504	0.050006	114.000000	nontarget	6.000000	na
98.760510	0.049984	114.000000	nontarget	7.000000	na
98.810494	0.050000	114.000000	nontarget	8.000000	na
98.860493	0.049982	114.000000	nontarget	9.000000	na
98.910476	0.049998	114.000000	nontarget	10.000000	na
98.960473	0.049999	114.000000	nontarget	11.000000	na
99.010472	0.049999	114.000000	nontarget	12.000000	na
99.060471	0.049994	114.000000	nontarget	13.000000	na
99.110465	0.049997	114.000000	nontarget	14.000000	na
99.160462	0.049996	114.000000	nontarget	15.000000	na
99.210458	0.049997	114.000000	nontarget	16.000000	na
99.260455	0.049998	115.000000	target	1.000000	na
99.310453	0.049997	115.000000	target	2.000000	na
99.360449	0.049996	115.000000	target	3.000000	na
99.410446	0.049998	115.000000	target	4.000000	na
99.460444	0.049997	115.000000	target	5.000000	na
99.510441	0.049988	115.000000	target	6.000000	na
99.560428	0.050013	115.000000	target	7.000000	na
99.610441	0.049996	115.000000	target	8.000000	na
99.660437	0.049998	115.000000	target	9.000000	na
99.710435	0.049996	115.000000	target	10.000000	na
99.760431	0.049996	115.000000	target	11.000000	na
99.810427	0.049998	115.000000	target	12.000000	na
99.860425	0.049998	115.000000	target	13.000000	na
99.910422	0.049996	115.000000	target	14.000000	na
99.960418	0.049997	115.000000	target	15.000000	na
100.010415	0.049999	115.000000	target	16.000000	na
100.060414	0.049973	116.000000	nontarget	1.000000	100.081614
100.110386	0.050014	116.000000	nontarget	2.000000	na
100.160400	0.049998	116.000000	nontarget	3.000000	na
100.210398	0.049997	116.000000	nontarget	4.000000	na
100.260395	0.049996	116.000000	nontarget	5.000000	na
100.310391	0.049998	116.000000	nontarget	6.000000	na
100.360388	0.050001	116.000000	nontarget	7.000000	na
100.410390	0.049991	116.000000	nontarget	8.000000	na
100.460381	0.049998	116.000000	nontarget	9.000000	na
100.510379	0.049996	116.000000	nontarget	10.000000	na
100.560375	0.049998	116.000000	nontarget	11.000000	na
100.610373	0.049998	116.000000	nontarget	12.000000	na
100.660371	0.050002	116.000000	nontarget	13.000000	na
100.710373	0.049991	116.000000	nontarget	14.000000	na
100.760364	0.049997	116.000000	nontarget	15.000000	na
100.810360	0.049997	116.000000	nontarget	16.000000	na
100.860357	0.049997	117.000000	nontarget	1.000000	na
100.910354	0.049998	117.000000	nontarget	2.000000	na
100.960352	0.049997	117.000000	nontarget	3.000000	100.964324
101.010349	0.050004	117.000000	nontarget	4.000000	na
101.060353	0.049993	117.000000	nontarget	5.000000	na
101.110346	0.049993	117.000000	nontarget	6.000000	na
101.160340	0.049995	117.000000	nontarget	7.000000	na
101.210335	0.049999	117.000000	nontarget	8.000000	na
101.260334	0.049997	117.000000	nontarget	9.000000	na
101.310331	0.049996	117.000000	nontarget	10.000000	na
101.360326	0.049997	117.000000	nontarget	11.000000	na
101.410324	0.049997	117.000000	nontarget	12.000000	na
101.460321	0.049997	117.000000	nontarget	13.000000	na
101.510318	0.049998	117.000000	nontarget	14.000000	na
101.560316	0.049998	117.000000	nontarget	15.000000	na
101.610313	0.049995	117.000000	nontarget	16.000000	na
101.660308	0.050004	118.000000	nontarget	1.000000	na
101.710313	0.049989	118.000000	nontarget	2.000000	na
101.760302	0.049998	118.000000	nontarget	3.000000	na
101.810300	0.049998	118.000000	nontarget	4.000000	na
101.860298	0.049996	118.000000	nontarget	5.000000	na
101.910294	0.049995	118.000000	nontarget	6.000000	101.911023
101.960289	0.049999	118.000000	nontarget	7.000000	na
102.010288	0.049995	118.000000	nontarget	8.000000	na
102.060284	0.049999	118.000000	nontarget	9.000000	na
102.110282	0.049997	118.000000	nontarget	10.000000	na
102.160279	0.049995	118.000000	nontarget	11.000000	na
102.210274	0.049999	118.000000	nontarget	12.000000	na
102.260273	0.049996	118.000000	nontarget	13.000000	na
102.310269	0.049997	118.000000	nontarget	14.000000	na
102.360267	0.049996	118.000000	nontarget	15.000000	na
102.410262	0.049999	118.000000	nontarget	16.000000	na
102.460261	0.049998	119.000000	nontarget	1.000000	na
102.510259	0.049995	119.000000	nontarget	2.000000	102.530163
102.560254	0.049995	119.000000	nontarget	3.000000	na
102.610249	0.050001	119.000000	nontarget	4.000000	na
102.660250	0.050001	119.000000	nontarget	5.000000	na
102.710251	0.049992	119.000000	nontarget	6.000000	na
102.760243	0.049994	119.000000	nontarget	7.000000	na
102.810238	0.049997	119.000000	nontarget	8.000000	na
102.860235	0.050009	119.000000	nontarget	9.000000	na
102.910244	0.049986	119.000000	nontarget	10.000000	na
102.960229	0.049998	119.000000	nontarget	11.000000	na
103.010227	0.049996	119.000000	nontarget	12.000000	na
103.060223	0.049997	119.000000	nontarget	13.000000	na
103.110220	0.049998	119.000000	nontarget	14.000000	na
103.160217	0.049997	119.000000	nontarget	15.000000	na
103.210215	0.049997	119.000000	nontarget	16.000000	na
103.260212	0.049996	120.000000	target	1.000000	na
103.310208	0.049999	120.000000	target	2.000000	na
103.360207	0.049997	120.000000	target	3.000000	na
103.410203	0.049997	120.000000	target	4.000000	na
103.460200	0.049996	120.000000	target	5.000000	na
103.510196	0.049998	120.000000	target	6.000000	na
103.560193	0.049998	120.000000	target	7.000000	na
103.610191	0.049996	120.000000	target	8.000000	na
103.660187	0.050003	120.000000	target	9.000000	na
103.710190	0.049992	120.000000	target	10.000000	na
103.760182	0.049996	120.000000	target	11.000000	na
103.810178	0.049998	120.000000	target	12.000000	na
103.860176	0.049995	120.000000	target	13.000000	na
103.910171	0.049998	120.000000	target	14.000000	na
103.960169	0.049997	120.000000	target	15.000000	103.961284
104.010166	0.050006	120.000000	target	16.000000	na
104.060172	0.049990	121.000000	nontarget	1.000000	104.060922
104.110161	0.049994	121.000000	nontarget	2.000000	na
104.160156	0.049998	121.000000	nontarget	3.000000	na
104.210154	0.049996	121.000000	nontarget	4.000000	na
104.260150	0.049998	121.000000	nontarget	5.000000	na
104.310148	0.049995	121.000000	nontarget	6.000000	na
104.360143	0.049999	121.000000	nontarget	7.000000	na
104.410142	0.049997	121.000000	nontarget	8.000000	na
