onset	duration	trial_number	trial_type	frame_number	time_of_response
8.066124	0.049902	1.000000	nontarget	1.000000	na
8.116026	0.049996	1.000000	nontarget	2.000000	na
8.166022	0.049998	1.000000	nontarget	3.000000	na
8.216020	0.049998	1.000000	nontarget	4.000000	na
8.266017	0.049997	1.000000	nontarget	5.000000	na
8.316014	0.049996	1.000000	nontarget	6.000000	na
8.366010	0.049998	1.000000	nontarget	7.000000	na
8.416008	0.049997	1.000000	nontarget	8.000000	na
8.466005	0.049997	1.000000	nontarget	9.000000	na
8.516002	0.050001	1.000000	nontarget	10.000000	na
8.566003	0.049994	1.000000	nontarget	11.000000	na
8.615997	0.049996	1.000000	nontarget	12.000000	na
8.665993	0.049996	1.000000	nontarget	13.000000	na
8.715989	0.050000	1.000000	nontarget	14.000000	na
8.765989	0.049995	1.000000	nontarget	15.000000	na
8.815984	0.049999	1.000000	nontarget	16.000000	8.832715
8.865983	0.049993	2.000000	nontarget	1.000000	8.866880
8.915976	0.049999	2.000000	nontarget	2.000000	na
8.965975	0.050000	2.000000	nontarget	3.000000	na
9.015975	0.049994	2.000000	nontarget	4.000000	na
9.065969	0.049998	2.000000	nontarget	5.000000	na
9.115967	0.049996	2.000000	nontarget	6.000000	na
9.165963	0.049996	2.000000	nontarget	7.000000	na
9.215959	0.049998	2.000000	nontarget	8.000000	na
9.265956	0.049997	2.000000	nontarget	9.000000	na
9.315953	0.049999	2.000000	nontarget	10.000000	na
9.365952	0.049996	2.000000	nontarget	11.000000	na
9.415948	0.049998	2.000000	nontarget	12.000000	na
9.465946	0.049995	2.000000	nontarget	13.000000	na
9.515941	0.049998	2.000000	nontarget	14.000000	na
9.565939	0.049996	2.000000	nontarget	15.000000	9.575677
9.615935	0.049997	2.000000	nontarget	16.000000	na
9.665932	0.049998	3.000000	nontarget	1.000000	9.666680
9.715930	0.049996	3.000000	nontarget	2.000000	na
9.765926	0.049996	3.000000	nontarget	3.000000	na
9.815922	0.050000	3.000000	nontarget	4.000000	na
9.865921	0.049996	3.000000	nontarget	5.000000	na
9.915917	0.049996	3.000000	nontarget	6.000000	na
9.965913	0.050003	3.000000	nontarget	7.000000	na
10.015915	0.049993	3.000000	nontarget	8.000000	na
10.065908	0.049997	3.000000	nontarget	9.000000	na
10.115905	0.049998	3.000000	nontarget	10.000000	na
10.165902	0.049997	3.000000	nontarget	11.000000	na
10.215899	0.049996	3.000000	nontarget	12.000000	na
10.265895	0.049997	3.000000	nontarget	13.000000	na
10.315892	0.049998	3.000000	nontarget	14.000000	na
10.365890	0.050001	3.000000	nontarget	15.000000	na
10.415891	0.049994	3.000000	nontarget	16.000000	10.416601
10.465885	0.049994	4.000000	nontarget	1.000000	10.466627
10.515879	0.050005	4.000000	nontarget	2.000000	na
10.565884	0.049992	4.000000	nontarget	3.000000	na
10.615876	0.049995	4.000000	nontarget	4.000000	na
10.665871	0.049997	4.000000	nontarget	5.000000	na
10.715869	0.049997	4.000000	nontarget	6.000000	na
10.765866	0.049996	4.000000	nontarget	7.000000	na
10.815861	0.050001	4.000000	nontarget	8.000000	na
10.865862	0.049995	4.000000	nontarget	9.000000	na
10.915857	0.049991	4.000000	nontarget	10.000000	na
10.965848	0.050001	4.000000	nontarget	11.000000	na
11.015848	0.050001	4.000000	nontarget	12.000000	na
11.065849	0.049998	4.000000	nontarget	13.000000	na
11.115848	0.049995	4.000000	nontarget	14.000000	11.116542
11.165843	0.049996	4.000000	nontarget	15.000000	na
11.215839	0.049997	4.000000	nontarget	16.000000	na
11.265836	0.049997	5.000000	nontarget	1.000000	na
11.315833	0.049996	5.000000	nontarget	2.000000	na
11.365830	0.049997	5.000000	nontarget	3.000000	na
11.415826	0.049998	5.000000	nontarget	4.000000	na
11.465825	0.050016	5.000000	nontarget	5.000000	na
11.515840	0.049977	5.000000	nontarget	6.000000	na
11.565817	0.050012	5.000000	nontarget	7.000000	na
11.615829	0.049983	5.000000	nontarget	8.000000	na
11.665812	0.050017	5.000000	nontarget	9.000000	na
11.715829	0.049976	5.000000	nontarget	10.000000	na
11.765805	0.050023	5.000000	nontarget	11.000000	na
11.815828	0.049982	5.000000	nontarget	12.000000	11.831568
11.865810	0.050009	5.000000	nontarget	13.000000	na
11.915819	0.049977	5.000000	nontarget	14.000000	na
11.965796	0.050031	5.000000	nontarget	15.000000	na
12.015827	0.049983	5.000000	nontarget	16.000000	na
12.065810	0.049981	6.000000	nontarget	1.000000	na
12.115791	0.050003	6.000000	nontarget	2.000000	na
12.165794	0.049994	6.000000	nontarget	3.000000	na
12.215788	0.049997	6.000000	nontarget	4.000000	na
12.265786	0.049997	6.000000	nontarget	5.000000	na
12.315782	0.049998	6.000000	nontarget	6.000000	na
12.365780	0.049992	6.000000	nontarget	7.000000	na
12.415772	0.049990	6.000000	nontarget	8.000000	na
12.465762	0.049996	6.000000	nontarget	9.000000	na
12.515758	0.049995	6.000000	nontarget	10.000000	na
12.565753	0.050010	6.000000	nontarget	11.000000	na
12.615763	0.049998	6.000000	nontarget	12.000000	na
12.665761	0.049997	6.000000	nontarget	13.000000	12.666435
12.715757	0.049989	6.000000	nontarget	14.000000	na
12.765746	0.050002	6.000000	nontarget	15.000000	na
12.815748	0.049998	6.000000	nontarget	16.000000	na
12.865747	0.050004	7.000000	nontarget	1.000000	na
12.915750	0.049983	7.000000	nontarget	2.000000	na
12.965734	0.049996	7.000000	nontarget	3.000000	na
13.015730	0.049997	7.000000	nontarget	4.000000	na
13.065727	0.049996	7.000000	nontarget	5.000000	na
13.115723	0.049999	7.000000	nontarget	6.000000	na
13.165722	0.049995	7.000000	nontarget	7.000000	na
13.215717	0.049998	7.000000	nontarget	8.000000	na
13.265715	0.049997	7.000000	nontarget	9.000000	na
13.315712	0.049996	7.000000	nontarget	10.000000	na
13.365708	0.049996	7.000000	nontarget	11.000000	na
13.415704	0.049998	7.000000	nontarget	12.000000	na
13.465703	0.049996	7.000000	nontarget	13.000000	na
13.515699	0.049997	7.000000	nontarget	14.000000	13.523828
13.565696	0.049997	7.000000	nontarget	15.000000	na
13.615693	0.049998	7.000000	nontarget	16.000000	na
13.665691	0.049998	8.000000	nontarget	1.000000	na
13.715688	0.049997	8.000000	nontarget	2.000000	na
13.765685	0.049997	8.000000	nontarget	3.000000	na
13.815682	0.049997	8.000000	nontarget	4.000000	na
13.865679	0.049996	8.000000	nontarget	5.000000	na
13.915675	0.049998	8.000000	nontarget	6.000000	na
13.965673	0.050001	8.000000	nontarget	7.000000	na
14.015674	0.049991	8.000000	nontarget	8.000000	na
14.065665	0.049997	8.000000	nontarget	9.000000	na
14.115662	0.049998	8.000000	nontarget	10.000000	na
14.165660	0.049998	8.000000	nontarget	11.000000	na
14.215658	0.049997	8.000000	nontarget	12.000000	na
14.265655	0.049997	8.000000	nontarget	13.000000	14.272474
14.315652	0.049997	8.000000	nontarget	14.000000	na
14.365649	0.049996	8.000000	nontarget	15.000000	na
14.415644	0.049998	8.000000	nontarget	16.000000	na
14.465642	0.049999	9.000000	nontarget	1.000000	na
14.515641	0.049995	9.000000	nontarget	2.000000	na
14.565636	0.049998	9.000000	nontarget	3.000000	na
14.615634	0.049996	9.000000	nontarget	4.000000	na
14.665630	0.049998	9.000000	nontarget	5.000000	na
14.715628	0.049996	9.000000	nontarget	6.000000	na
14.765624	0.049998	9.000000	nontarget	7.000000	na
14.815623	0.049998	9.000000	nontarget	8.000000	na
14.865620	0.049994	9.000000	nontarget	9.000000	na
14.915615	0.049998	9.000000	nontarget	10.000000	na
14.965613	0.050002	9.000000	nontarget	11.000000	na
15.015615	0.049993	9.000000	nontarget	12.000000	na
15.065608	0.049997	9.000000	nontarget	13.000000	na
15.115605	0.049995	9.000000	nontarget	14.000000	na
15.165600	0.049999	9.000000	nontarget	15.000000	na
15.215598	0.049997	9.000000	nontarget	16.000000	na
15.265595	0.049997	10.000000	target	1.000000	na
15.315592	0.049996	10.000000	target	2.000000	na
15.365588	0.049998	10.000000	target	3.000000	na
15.415586	0.049987	10.000000	target	4.000000	na
15.465572	0.050007	10.000000	target	5.000000	na
15.515580	0.049997	10.000000	target	6.000000	na
15.565577	0.049997	10.000000	target	7.000000	na
15.615574	0.049995	10.000000	target	8.000000	na
15.665569	0.049999	10.000000	target	9.000000	na
15.715568	0.049997	10.000000	target	10.000000	na
15.765565	0.049991	10.000000	target	11.000000	na
15.815556	0.050003	10.000000	target	12.000000	na
15.865560	0.049997	10.000000	target	13.000000	na
15.915556	0.049994	10.000000	target	14.000000	na
15.965551	0.050003	10.000000	target	15.000000	na
16.015554	0.049992	10.000000	target	16.000000	16.016291
16.065546	0.049998	11.000000	nontarget	1.000000	16.066267
16.115544	0.049997	11.000000	nontarget	2.000000	na
16.165541	0.049996	11.000000	nontarget	3.000000	na
16.215537	0.049998	11.000000	nontarget	4.000000	na
16.265535	0.049997	11.000000	nontarget	5.000000	na
16.315531	0.049991	11.000000	nontarget	6.000000	na
16.365523	0.050002	11.000000	nontarget	7.000000	na
16.415524	0.049998	11.000000	nontarget	8.000000	na
16.465523	0.049992	11.000000	nontarget	9.000000	na
16.515515	0.050001	11.000000	nontarget	10.000000	na
16.565516	0.049997	11.000000	nontarget	11.000000	na
16.615513	0.049997	11.000000	nontarget	12.000000	na
16.665510	0.049998	11.000000	nontarget	13.000000	na
16.715508	0.049997	11.000000	nontarget	14.000000	na
16.765505	0.049995	11.000000	nontarget	15.000000	16.774705
16.815500	0.049998	11.000000	nontarget	16.000000	na
16.865498	0.049996	12.000000	nontarget	1.000000	16.866199
16.915495	0.049998	12.000000	nontarget	2.000000	na
16.965493	0.050001	12.000000	nontarget	3.000000	na
17.015493	0.049994	12.000000	nontarget	4.000000	na
17.065488	0.049995	12.000000	nontarget	5.000000	na
17.115483	0.049998	12.000000	nontarget	6.000000	na
17.165481	0.049997	12.000000	nontarget	7.000000	na
17.215478	0.049996	12.000000	nontarget	8.000000	na
17.265474	0.049997	12.000000	nontarget	9.000000	na
17.315471	0.049998	12.000000	nontarget	10.000000	na
17.365469	0.049996	12.000000	nontarget	11.000000	na
17.415464	0.049999	12.000000	nontarget	12.000000	na
17.465463	0.049996	12.000000	nontarget	13.000000	na
17.515459	0.049998	12.000000	nontarget	14.000000	na
17.565457	0.049995	12.000000	nontarget	15.000000	na
17.615452	0.049999	12.000000	nontarget	16.000000	na
17.665451	0.049997	13.000000	nontarget	1.000000	17.669730
17.715447	0.049996	13.000000	nontarget	2.000000	na
17.765443	0.049999	13.000000	nontarget	3.000000	na
17.815443	0.049996	13.000000	nontarget	4.000000	na
17.865439	0.049996	13.000000	nontarget	5.000000	na
17.915435	0.049996	13.000000	nontarget	6.000000	na
17.965431	0.050003	13.000000	nontarget	7.000000	na
18.015433	0.049991	13.000000	nontarget	8.000000	na
18.065425	0.049998	13.000000	nontarget	9.000000	na
18.115423	0.049996	13.000000	nontarget	10.000000	na
18.165419	0.049997	13.000000	nontarget	11.000000	na
18.215416	0.049998	13.000000	nontarget	12.000000	na
18.265414	0.049996	13.000000	nontarget	13.000000	na
18.315410	0.049998	13.000000	nontarget	14.000000	18.319732
18.365408	0.049996	13.000000	nontarget	15.000000	na
18.415404	0.049999	13.000000	nontarget	16.000000	na
18.465403	0.049994	14.000000	nontarget	1.000000	na
18.515397	0.049998	14.000000	nontarget	2.000000	na
18.565396	0.049998	14.000000	nontarget	3.000000	na
18.615394	0.049998	14.000000	nontarget	4.000000	na
18.665391	0.049996	14.000000	nontarget	5.000000	na
18.715387	0.049996	14.000000	nontarget	6.000000	na
18.765383	0.049998	14.000000	nontarget	7.000000	na
18.815381	0.049998	14.000000	nontarget	8.000000	na
18.865379	0.049996	14.000000	nontarget	9.000000	na
18.915375	0.049999	14.000000	nontarget	10.000000	na
18.965374	0.049998	14.000000	nontarget	11.000000	na
19.015372	0.049996	14.000000	nontarget	12.000000	na
19.065368	0.049995	14.000000	nontarget	13.000000	na
19.115363	0.049998	14.000000	nontarget	14.000000	19.125727
19.165361	0.049996	14.000000	nontarget	15.000000	na
19.215357	0.050000	14.000000	nontarget	16.000000	na
19.265357	0.049994	15.000000	nontarget	1.000000	na
19.315351	0.049996	15.000000	nontarget	2.000000	na
19.365347	0.049998	15.000000	nontarget	3.000000	na
19.415345	0.049997	15.000000	nontarget	4.000000	na
19.465342	0.049997	15.000000	nontarget	5.000000	na
19.515338	0.049995	15.000000	nontarget	6.000000	na
19.565334	0.049999	15.000000	nontarget	7.000000	na
19.615333	0.049997	15.000000	nontarget	8.000000	na
19.665330	0.049996	15.000000	nontarget	9.000000	na
19.715325	0.049998	15.000000	nontarget	10.000000	na
19.765324	0.049997	15.000000	nontarget	11.000000	na
19.815321	0.049992	15.000000	nontarget	12.000000	na
19.865313	0.050001	15.000000	nontarget	13.000000	na
19.915314	0.049997	15.000000	nontarget	14.000000	19.924384
19.965311	0.049998	15.000000	nontarget	15.000000	na
20.015309	0.049997	15.000000	nontarget	16.000000	na
20.065306	0.049996	16.000000	nontarget	1.000000	20.066008
20.115302	0.049996	16.000000	nontarget	2.000000	na
20.165298	0.049999	16.000000	nontarget	3.000000	na
20.215297	0.049995	16.000000	nontarget	4.000000	na
20.265292	0.049999	16.000000	nontarget	5.000000	na
20.315291	0.049996	16.000000	nontarget	6.000000	na
20.365287	0.049997	16.000000	nontarget	7.000000	na
20.415284	0.049998	16.000000	nontarget	8.000000	na
20.465282	0.049994	16.000000	nontarget	9.000000	na
20.515276	0.050001	16.000000	nontarget	10.000000	na
20.565277	0.049994	16.000000	nontarget	11.000000	na
20.615271	0.049999	16.000000	nontarget	12.000000	na
20.665270	0.049996	16.000000	nontarget	13.000000	na
20.715266	0.049997	16.000000	nontarget	14.000000	na
20.765264	0.049998	16.000000	nontarget	15.000000	20.777417
20.815262	0.049996	16.000000	nontarget	16.000000	na
20.865257	0.049999	17.000000	nontarget	1.000000	20.865940
20.915257	0.049995	17.000000	nontarget	2.000000	na
20.965252	0.049999	17.000000	nontarget	3.000000	na
21.015251	0.049995	17.000000	nontarget	4.000000	na
21.065246	0.049996	17.000000	nontarget	5.000000	na
21.115242	0.050005	17.000000	nontarget	6.000000	na
21.165248	0.049987	17.000000	nontarget	7.000000	na
21.215235	0.049999	17.000000	nontarget	8.000000	na
21.265233	0.050016	17.000000	nontarget	9.000000	na
21.315249	0.049999	17.000000	nontarget	10.000000	na
21.365248	0.049988	17.000000	nontarget	11.000000	na
21.415235	0.049985	17.000000	nontarget	12.000000	na
21.465221	0.050021	17.000000	nontarget	13.000000	na
21.515242	0.049987	17.000000	nontarget	14.000000	na
21.565229	0.050000	17.000000	nontarget	15.000000	21.577497
21.615229	0.049981	17.000000	nontarget	16.000000	na
21.665210	0.049990	18.000000	nontarget	1.000000	21.665890
21.715200	0.050004	18.000000	nontarget	2.000000	na
21.765203	0.050011	18.000000	nontarget	3.000000	na
21.815215	0.049993	18.000000	nontarget	4.000000	na
21.865208	0.050003	18.000000	nontarget	5.000000	na
21.915210	0.049981	18.000000	nontarget	6.000000	na
21.965191	0.050007	18.000000	nontarget	7.000000	na
22.015198	0.049982	18.000000	nontarget	8.000000	na
22.065180	0.050004	18.000000	nontarget	9.000000	na
22.115184	0.049993	18.000000	nontarget	10.000000	na
22.165177	0.049998	18.000000	nontarget	11.000000	na
22.215176	0.050018	18.000000	nontarget	12.000000	na
22.265193	0.049981	18.000000	nontarget	13.000000	na
22.315174	0.049987	18.000000	nontarget	14.000000	na
22.365161	0.049995	18.000000	nontarget	15.000000	na
22.415156	0.049999	18.000000	nontarget	16.000000	na
22.465155	0.050004	19.000000	nontarget	1.000000	22.465904
22.515159	0.049996	19.000000	nontarget	2.000000	na
22.565155	0.050000	19.000000	nontarget	3.000000	na
22.615155	0.049993	19.000000	nontarget	4.000000	na
22.665148	0.049998	19.000000	nontarget	5.000000	na
22.715147	0.049997	19.000000	nontarget	6.000000	na
22.765143	0.049996	19.000000	nontarget	7.000000	na
22.815140	0.049996	19.000000	nontarget	8.000000	na
22.865136	0.049997	19.000000	nontarget	9.000000	na
22.915133	0.049997	19.000000	nontarget	10.000000	na
22.965130	0.050011	19.000000	nontarget	11.000000	na
23.015141	0.049984	19.000000	nontarget	12.000000	na
23.065125	0.049998	19.000000	nontarget	13.000000	na
23.115123	0.049997	19.000000	nontarget	14.000000	na
23.165119	0.049995	19.000000	nontarget	15.000000	23.165825
23.215115	0.049998	19.000000	nontarget	16.000000	na
23.265113	0.049997	20.000000	nontarget	1.000000	23.265829
23.315110	0.049998	20.000000	nontarget	2.000000	na
23.365108	0.049996	20.000000	nontarget	3.000000	na
23.415103	0.049996	20.000000	nontarget	4.000000	na
23.465099	0.049998	20.000000	nontarget	5.000000	na
23.515098	0.049998	20.000000	nontarget	6.000000	na
23.565095	0.049994	20.000000	nontarget	7.000000	na
23.615089	0.049999	20.000000	nontarget	8.000000	na
23.665088	0.049998	20.000000	nontarget	9.000000	na
23.715087	0.049997	20.000000	nontarget	10.000000	na
23.765083	0.049998	20.000000	nontarget	11.000000	na
23.815081	0.049995	20.000000	nontarget	12.000000	na
23.865076	0.049997	20.000000	nontarget	13.000000	na
23.915073	0.049995	20.000000	nontarget	14.000000	na
23.965069	0.050002	20.000000	nontarget	15.000000	na
24.015071	0.049994	20.000000	nontarget	16.000000	24.028420
24.065065	0.049998	21.000000	nontarget	1.000000	24.065783
24.115063	0.049997	21.000000	nontarget	2.000000	na
24.165059	0.049997	21.000000	nontarget	3.000000	na
24.215056	0.049996	21.000000	nontarget	4.000000	na
24.265052	0.049998	21.000000	nontarget	5.000000	na
24.315051	0.049995	21.000000	nontarget	6.000000	na
24.365046	0.049998	21.000000	nontarget	7.000000	na
24.415043	0.049995	21.000000	nontarget	8.000000	na
24.465038	0.049999	21.000000	nontarget	9.000000	na
24.515037	0.049997	21.000000	nontarget	10.000000	na
24.565034	0.049996	21.000000	nontarget	11.000000	na
24.615030	0.049998	21.000000	nontarget	12.000000	na
24.665028	0.049998	21.000000	nontarget	13.000000	na
24.715026	0.049996	21.000000	nontarget	14.000000	na
24.765022	0.050000	21.000000	nontarget	15.000000	na
24.815022	0.049995	21.000000	nontarget	16.000000	24.826700
24.865016	0.049998	22.000000	nontarget	1.000000	24.865736
24.915015	0.049997	22.000000	nontarget	2.000000	na
24.965011	0.050001	22.000000	nontarget	3.000000	na
25.015013	0.049994	22.000000	nontarget	4.000000	na
25.065006	0.049995	22.000000	nontarget	5.000000	na
25.115001	0.049997	22.000000	nontarget	6.000000	na
25.164998	0.049996	22.000000	nontarget	7.000000	na
25.214994	0.049998	22.000000	nontarget	8.000000	na
25.264992	0.049998	22.000000	nontarget	9.000000	na
25.314990	0.049995	22.000000	nontarget	10.000000	na
25.364985	0.049998	22.000000	nontarget	11.000000	na
25.414983	0.049999	22.000000	nontarget	12.000000	na
25.464982	0.049995	22.000000	nontarget	13.000000	na
25.514977	0.049997	22.000000	nontarget	14.000000	na
25.564974	0.049998	22.000000	nontarget	15.000000	25.576412
25.614972	0.049995	22.000000	nontarget	16.000000	na
25.664968	0.050000	23.000000	nontarget	1.000000	25.665650
25.714968	0.049993	23.000000	nontarget	2.000000	na
25.764961	0.050000	23.000000	nontarget	3.000000	na
25.814961	0.049996	23.000000	nontarget	4.000000	na
25.864957	0.049997	23.000000	nontarget	5.000000	na
25.914954	0.049996	23.000000	nontarget	6.000000	na
25.964950	0.049994	23.000000	nontarget	7.000000	na
26.014944	0.050002	23.000000	nontarget	8.000000	na
26.064946	0.049995	23.000000	nontarget	9.000000	na
26.114941	0.049997	23.000000	nontarget	10.000000	na
26.164938	0.049998	23.000000	nontarget	11.000000	na
26.214936	0.049996	23.000000	nontarget	12.000000	na
26.264933	0.049999	23.000000	nontarget	13.000000	na
26.314931	0.049994	23.000000	nontarget	14.000000	na
26.364925	0.049997	23.000000	nontarget	15.000000	na
26.414923	0.049998	23.000000	nontarget	16.000000	na
26.464920	0.049996	24.000000	nontarget	1.000000	26.465648
26.514917	0.049998	24.000000	nontarget	2.000000	na
26.564915	0.049998	24.000000	nontarget	3.000000	na
26.614913	0.049995	24.000000	nontarget	4.000000	na
26.664908	0.049997	24.000000	nontarget	5.000000	na
26.714904	0.049997	24.000000	nontarget	6.000000	na
26.764902	0.049995	24.000000	nontarget	7.000000	na
26.814896	0.049999	24.000000	nontarget	8.000000	na
26.864895	0.049998	24.000000	nontarget	9.000000	na
26.914893	0.049996	24.000000	nontarget	10.000000	na
26.964889	0.050003	24.000000	nontarget	11.000000	na
27.014892	0.049991	24.000000	nontarget	12.000000	na
27.064884	0.049998	24.000000	nontarget	13.000000	na
27.114882	0.049995	24.000000	nontarget	14.000000	na
27.164877	0.049999	24.000000	nontarget	15.000000	na
27.214876	0.049996	24.000000	nontarget	16.000000	na
27.264872	0.049997	25.000000	nontarget	1.000000	na
27.314869	0.049995	25.000000	nontarget	2.000000	27.342511
27.364864	0.049999	25.000000	nontarget	3.000000	na
27.414863	0.049996	25.000000	nontarget	4.000000	na
27.464859	0.049998	25.000000	nontarget	5.000000	na
27.514856	0.049996	25.000000	nontarget	6.000000	na
27.564853	0.049998	25.000000	nontarget	7.000000	na
27.614850	0.049997	25.000000	nontarget	8.000000	na
27.664847	0.049998	25.000000	nontarget	9.000000	na
27.714845	0.049996	25.000000	nontarget	10.000000	na
27.764841	0.049996	25.000000	nontarget	11.000000	na
27.814837	0.049999	25.000000	nontarget	12.000000	na
27.864836	0.049997	25.000000	nontarget	13.000000	na
27.914833	0.049997	25.000000	nontarget	14.000000	na
27.964830	0.050000	25.000000	nontarget	15.000000	na
28.014829	0.049993	25.000000	nontarget	16.000000	na
28.064823	0.049998	26.000000	nontarget	1.000000	na
28.114821	0.049998	26.000000	nontarget	2.000000	na
28.164819	0.049996	26.000000	nontarget	3.000000	28.165520
28.214815	0.049997	26.000000	nontarget	4.000000	na
28.264811	0.049997	26.000000	nontarget	5.000000	na
28.314808	0.049997	26.000000	nontarget	6.000000	na
28.364806	0.049996	26.000000	nontarget	7.000000	na
28.414801	0.049999	26.000000	nontarget	8.000000	na
28.464800	0.049994	26.000000	nontarget	9.000000	na
28.514794	0.049999	26.000000	nontarget	10.000000	na
28.564793	0.049998	26.000000	nontarget	11.000000	na
28.614791	0.049995	26.000000	nontarget	12.000000	na
28.664786	0.049998	26.000000	nontarget	13.000000	na
28.714784	0.049995	26.000000	nontarget	14.000000	na
28.764779	0.049999	26.000000	nontarget	15.000000	na
28.814778	0.049998	26.000000	nontarget	16.000000	na
28.864776	0.049997	27.000000	nontarget	1.000000	na
28.914772	0.049998	27.000000	nontarget	2.000000	na
28.964770	0.049999	27.000000	nontarget	3.000000	28.965442
29.014769	0.049995	27.000000	nontarget	4.000000	na
29.064764	0.049997	27.000000	nontarget	5.000000	na
29.114761	0.049996	27.000000	nontarget	6.000000	na
29.164757	0.049997	27.000000	nontarget	7.000000	na
29.214754	0.049998	27.000000	nontarget	8.000000	na
29.264753	0.049994	27.000000	nontarget	9.000000	na
29.314747	0.049998	27.000000	nontarget	10.000000	na
29.364745	0.049997	27.000000	nontarget	11.000000	na
29.414742	0.049998	27.000000	nontarget	12.000000	na
29.464740	0.049996	27.000000	nontarget	13.000000	na
29.514736	0.049997	27.000000	nontarget	14.000000	na
29.564733	0.049997	27.000000	nontarget	15.000000	na
29.614729	0.049998	27.000000	nontarget	16.000000	na
29.664727	0.049997	28.000000	nontarget	1.000000	na
29.714724	0.049997	28.000000	nontarget	2.000000	29.727481
29.764721	0.049997	28.000000	nontarget	3.000000	na
29.814718	0.050001	28.000000	nontarget	4.000000	na
29.864719	0.049994	28.000000	nontarget	5.000000	na
29.914712	0.049997	28.000000	nontarget	6.000000	na
29.964709	0.050014	28.000000	nontarget	7.000000	na
30.014723	0.049981	28.000000	nontarget	8.000000	na
30.064704	0.050030	28.000000	nontarget	9.000000	na
30.114734	0.049963	28.000000	nontarget	10.000000	na
30.164697	0.050040	28.000000	nontarget	11.000000	na
30.214737	0.049954	28.000000	nontarget	12.000000	na
30.264691	0.049997	28.000000	nontarget	13.000000	na
30.314688	0.049996	28.000000	nontarget	14.000000	na
30.364684	0.050049	28.000000	nontarget	15.000000	na
30.414733	0.049941	28.000000	nontarget	16.000000	30.418411
30.464674	0.050062	29.000000	nontarget	1.000000	30.465484
30.514736	0.049940	29.000000	nontarget	2.000000	na
30.564676	0.050028	29.000000	nontarget	3.000000	na
30.614704	0.049962	29.000000	nontarget	4.000000	na
30.664667	0.050036	29.000000	nontarget	5.000000	na
30.714702	0.049957	29.000000	nontarget	6.000000	na
30.764659	0.050048	29.000000	nontarget	7.000000	na
30.814708	0.049954	29.000000	nontarget	8.000000	na
30.864661	0.050045	29.000000	nontarget	9.000000	na
30.914706	0.049942	29.000000	nontarget	10.000000	na
30.964648	0.050049	29.000000	nontarget	11.000000	na
31.014696	0.049968	29.000000	nontarget	12.000000	na
31.064664	0.050030	29.000000	nontarget	13.000000	na
31.114694	0.049958	29.000000	nontarget	14.000000	na
31.164652	0.050028	29.000000	nontarget	15.000000	na
31.214680	0.049943	29.000000	nontarget	16.000000	31.239376
31.264622	0.050025	30.000000	nontarget	1.000000	31.265302
31.314647	0.049991	30.000000	nontarget	2.000000	na
31.364638	0.049993	30.000000	nontarget	3.000000	na
31.414630	0.049999	30.000000	nontarget	4.000000	na
31.464629	0.049999	30.000000	nontarget	5.000000	na
31.514628	0.049991	30.000000	nontarget	6.000000	na
31.564619	0.049993	30.000000	nontarget	7.000000	na
31.614612	0.049992	30.000000	nontarget	8.000000	na
31.664604	0.050000	30.000000	nontarget	9.000000	na
31.714604	0.049996	30.000000	nontarget	10.000000	na
31.764600	0.050014	30.000000	nontarget	11.000000	na
31.814614	0.049984	30.000000	nontarget	12.000000	na
31.864598	0.049999	30.000000	nontarget	13.000000	na
31.914597	0.049984	30.000000	nontarget	14.000000	na
31.964581	0.050001	30.000000	nontarget	15.000000	na
32.014582	0.050001	30.000000	nontarget	16.000000	na
32.064583	0.049996	31.000000	nontarget	1.000000	32.090370
32.114579	0.049998	31.000000	nontarget	2.000000	na
32.164576	0.049996	31.000000	nontarget	3.000000	na
32.214573	0.049998	31.000000	nontarget	4.000000	na
32.264571	0.049994	31.000000	nontarget	5.000000	na
32.314566	0.049997	31.000000	nontarget	6.000000	na
32.364563	0.049997	31.000000	nontarget	7.000000	na
32.414560	0.049998	31.000000	nontarget	8.000000	na
32.464558	0.049998	31.000000	nontarget	9.000000	na
32.514556	0.049996	31.000000	nontarget	10.000000	na
32.564552	0.049996	31.000000	nontarget	11.000000	na
32.614549	0.049997	31.000000	nontarget	12.000000	na
32.664546	0.049996	31.000000	nontarget	13.000000	na
32.714541	0.049999	31.000000	nontarget	14.000000	na
32.764540	0.049994	31.000000	nontarget	15.000000	na
32.814534	0.049999	31.000000	nontarget	16.000000	na
32.864533	0.049998	32.000000	nontarget	1.000000	na
32.914531	0.049996	32.000000	nontarget	2.000000	32.946434
32.964528	0.050001	32.000000	nontarget	3.000000	na
33.014529	0.049994	32.000000	nontarget	4.000000	na
33.064522	0.049998	32.000000	nontarget	5.000000	na
33.114520	0.049996	32.000000	nontarget	6.000000	na
33.164515	0.049995	32.000000	nontarget	7.000000	na
33.214511	0.049999	32.000000	nontarget	8.000000	na
33.264510	0.049996	32.000000	nontarget	9.000000	na
33.314506	0.049997	32.000000	nontarget	10.000000	na
33.364503	0.049999	32.000000	nontarget	11.000000	na
33.414501	0.049996	32.000000	nontarget	12.000000	na
33.464498	0.049998	32.000000	nontarget	13.000000	na
33.514495	0.049996	32.000000	nontarget	14.000000	na
33.564491	0.049997	32.000000	nontarget	15.000000	na
33.614489	0.049998	32.000000	nontarget	16.000000	na
33.664486	0.049996	33.000000	target	1.000000	na
33.714482	0.049997	33.000000	target	2.000000	na
33.764479	0.049998	33.000000	target	3.000000	na
33.814477	0.049996	33.000000	target	4.000000	na
33.864473	0.049998	33.000000	target	5.000000	na
33.914471	0.049997	33.000000	target	6.000000	na
33.964467	0.050001	33.000000	target	7.000000	na
34.014468	0.049994	33.000000	target	8.000000	na
34.064462	0.049996	33.000000	target	9.000000	na
34.114458	0.049998	33.000000	target	10.000000	na
34.164456	0.049995	33.000000	target	11.000000	na
34.214451	0.049998	33.000000	target	12.000000	na
34.264449	0.049997	33.000000	target	13.000000	na
34.314446	0.049998	33.000000	target	14.000000	na
34.364444	0.050001	33.000000	target	15.000000	na
34.414445	0.049994	33.000000	target	16.000000	na
34.464439	0.049995	34.000000	nontarget	1.000000	34.484354
34.514435	0.049997	34.000000	nontarget	2.000000	na
34.564432	0.049996	34.000000	nontarget	3.000000	na
34.614428	0.049998	34.000000	nontarget	4.000000	na
34.664427	0.049995	34.000000	nontarget	5.000000	na
34.714422	0.049997	34.000000	nontarget	6.000000	na
34.764419	0.049999	34.000000	nontarget	7.000000	na
34.814418	0.049996	34.000000	nontarget	8.000000	na
34.864414	0.049998	34.000000	nontarget	9.000000	na
34.914412	0.049995	34.000000	nontarget	10.000000	na
34.964407	0.050003	34.000000	nontarget	11.000000	na
35.014410	0.049993	34.000000	nontarget	12.000000	na
35.064403	0.049997	34.000000	nontarget	13.000000	na
35.114399	0.049996	34.000000	nontarget	14.000000	na
35.164395	0.050001	34.000000	nontarget	15.000000	na
35.214396	0.049993	34.000000	nontarget	16.000000	na
35.264389	0.049997	35.000000	nontarget	1.000000	na
35.314386	0.049997	35.000000	nontarget	2.000000	na
35.364383	0.049997	35.000000	nontarget	3.000000	na
35.414380	0.049996	35.000000	nontarget	4.000000	na
35.464376	0.049998	35.000000	nontarget	5.000000	na
35.514375	0.049996	35.000000	nontarget	6.000000	na
35.564371	0.049996	35.000000	nontarget	7.000000	35.571328
35.614367	0.049998	35.000000	nontarget	8.000000	na
35.664366	0.049997	35.000000	nontarget	9.000000	na
35.714362	0.049997	35.000000	nontarget	10.000000	na
35.764359	0.049997	35.000000	nontarget	11.000000	na
35.814356	0.049997	35.000000	nontarget	12.000000	na
35.864353	0.049997	35.000000	nontarget	13.000000	na
35.914350	0.049998	35.000000	nontarget	14.000000	na
35.964348	0.049994	35.000000	nontarget	15.000000	na
36.014342	0.049999	35.000000	nontarget	16.000000	na
36.064341	0.049998	36.000000	target	1.000000	na
36.114339	0.049997	36.000000	target	2.000000	na
36.164335	0.049997	36.000000	target	3.000000	na
36.214332	0.049997	36.000000	target	4.000000	na
36.264328	0.049998	36.000000	target	5.000000	na
36.314326	0.049997	36.000000	target	6.000000	na
36.364323	0.049996	36.000000	target	7.000000	na
36.414319	0.049997	36.000000	target	8.000000	na
36.464315	0.049999	36.000000	target	9.000000	na
36.514315	0.049996	36.000000	target	10.000000	na
36.564311	0.049996	36.000000	target	11.000000	na
36.614307	0.049999	36.000000	target	12.000000	na
36.664306	0.049996	36.000000	target	13.000000	na
36.714302	0.049996	36.000000	target	14.000000	na
36.764298	0.049998	36.000000	target	15.000000	na
36.814296	0.049997	36.000000	target	16.000000	na
36.864293	0.049996	37.000000	nontarget	1.000000	36.886331
36.914289	0.049997	37.000000	nontarget	2.000000	na
36.964286	0.050004	37.000000	nontarget	3.000000	na
37.014290	0.049991	37.000000	nontarget	4.000000	na
37.064281	0.049997	37.000000	nontarget	5.000000	na
37.114278	0.049997	37.000000	nontarget	6.000000	na
37.164275	0.049997	37.000000	nontarget	7.000000	na
37.214272	0.049997	37.000000	nontarget	8.000000	na
37.264269	0.049997	37.000000	nontarget	9.000000	na
37.314266	0.049995	37.000000	nontarget	10.000000	na
37.364262	0.049998	37.000000	nontarget	11.000000	na
37.414260	0.049996	37.000000	nontarget	12.000000	na
37.464255	0.050000	37.000000	nontarget	13.000000	na
37.514255	0.049996	37.000000	nontarget	14.000000	na
37.564251	0.049998	37.000000	nontarget	15.000000	na
37.614248	0.049996	37.000000	nontarget	16.000000	na
37.664244	0.049998	38.000000	nontarget	1.000000	na
37.714242	0.049999	38.000000	nontarget	2.000000	37.724777
37.764241	0.049995	38.000000	nontarget	3.000000	na
37.814236	0.049997	38.000000	nontarget	4.000000	na
37.864233	0.049997	38.000000	nontarget	5.000000	na
37.914230	0.049996	38.000000	nontarget	6.000000	na
37.964226	0.050020	38.000000	nontarget	7.000000	na
38.014246	0.049976	38.000000	nontarget	8.000000	na
38.064222	0.049993	38.000000	nontarget	9.000000	na
38.114216	0.049999	38.000000	nontarget	10.000000	na
38.164214	0.049998	38.000000	nontarget	11.000000	na
38.214212	0.049995	38.000000	nontarget	12.000000	na
38.264208	0.049998	38.000000	nontarget	13.000000	na
38.314205	0.049996	38.000000	nontarget	14.000000	na
38.364201	0.049996	38.000000	nontarget	15.000000	na
38.414198	0.049998	38.000000	nontarget	16.000000	na
38.464196	0.049997	39.000000	nontarget	1.000000	na
38.514193	0.049996	39.000000	nontarget	2.000000	na
38.564189	0.049998	39.000000	nontarget	3.000000	na
38.614188	0.049995	39.000000	nontarget	4.000000	na
38.664183	0.049998	39.000000	nontarget	5.000000	38.680243
38.714181	0.049996	39.000000	nontarget	6.000000	na
38.764177	0.049998	39.000000	nontarget	7.000000	na
38.814175	0.049996	39.000000	nontarget	8.000000	na
38.864171	0.049997	39.000000	nontarget	9.000000	na
38.914168	0.049998	39.000000	nontarget	10.000000	na
38.964166	0.050002	39.000000	nontarget	11.000000	na
39.014168	0.049991	39.000000	nontarget	12.000000	na
39.064159	0.049998	39.000000	nontarget	13.000000	na
39.114157	0.049996	39.000000	nontarget	14.000000	na
39.164153	0.049997	39.000000	nontarget	15.000000	na
39.214150	0.049998	39.000000	nontarget	16.000000	na
39.264148	0.049998	40.000000	nontarget	1.000000	na
39.314145	0.049995	40.000000	nontarget	2.000000	na
39.364141	0.049997	40.000000	nontarget	3.000000	na
39.414138	0.049998	40.000000	nontarget	4.000000	na
39.464135	0.049997	40.000000	nontarget	5.000000	na
39.514132	0.049998	40.000000	nontarget	6.000000	na
39.564130	0.050029	40.000000	nontarget	7.000000	na
39.614159	0.049964	40.000000	nontarget	8.000000	39.631314
39.664123	0.050040	40.000000	nontarget	9.000000	na
39.714163	0.049954	40.000000	nontarget	10.000000	na
39.764117	0.049998	40.000000	nontarget	11.000000	na
39.814115	0.049998	40.000000	nontarget	12.000000	na
39.864113	0.050021	40.000000	nontarget	13.000000	na
39.914134	0.049971	40.000000	nontarget	14.000000	na
39.964105	0.050030	40.000000	nontarget	15.000000	na
40.014135	0.049965	40.000000	nontarget	16.000000	na
40.064100	0.050039	41.000000	nontarget	1.000000	na
40.114138	0.049962	41.000000	nontarget	2.000000	na
40.164100	0.050030	41.000000	nontarget	3.000000	na
40.214130	0.049966	41.000000	nontarget	4.000000	na
40.264095	0.050014	41.000000	nontarget	5.000000	na
40.314110	0.049990	41.000000	nontarget	6.000000	na
40.364100	0.049998	41.000000	nontarget	7.000000	na
40.414098	0.050000	41.000000	nontarget	8.000000	na
40.464097	0.050024	41.000000	nontarget	9.000000	na
40.514121	0.049985	41.000000	nontarget	10.000000	na
40.564106	0.050014	41.000000	nontarget	11.000000	na
40.614120	0.049970	41.000000	nontarget	12.000000	na
40.664090	0.050040	41.000000	nontarget	13.000000	40.664770
40.714131	0.049941	41.000000	nontarget	14.000000	na
40.764072	0.050020	41.000000	nontarget	15.000000	na
40.814092	0.049975	41.000000	nontarget	16.000000	na
40.864067	0.050016	42.000000	nontarget	1.000000	na
40.914083	0.049985	42.000000	nontarget	2.000000	na
40.964067	0.049993	42.000000	nontarget	3.000000	na
41.014060	0.049991	42.000000	nontarget	4.000000	na
41.064052	0.049990	42.000000	nontarget	5.000000	na
41.114041	0.049999	42.000000	nontarget	6.000000	na
41.164040	0.049995	42.000000	nontarget	7.000000	na
41.214035	0.049995	42.000000	nontarget	8.000000	na
41.264030	0.050004	42.000000	nontarget	9.000000	na
41.314034	0.049997	42.000000	nontarget	10.000000	na
41.364032	0.049996	42.000000	nontarget	11.000000	na
41.414027	0.049992	42.000000	nontarget	12.000000	na
41.464020	0.049986	42.000000	nontarget	13.000000	na
41.514005	0.049998	42.000000	nontarget	14.000000	41.521161
41.564004	0.049998	42.000000	nontarget	15.000000	na
41.614002	0.050002	42.000000	nontarget	16.000000	na
41.664003	0.049996	43.000000	nontarget	1.000000	41.664727
41.713999	0.049997	43.000000	nontarget	2.000000	na
41.763996	0.050000	43.000000	nontarget	3.000000	na
41.813995	0.049995	43.000000	nontarget	4.000000	na
41.863991	0.049996	43.000000	nontarget	5.000000	na
41.913986	0.049999	43.000000	nontarget	6.000000	na
41.963986	0.050001	43.000000	nontarget	7.000000	na
42.013986	0.049992	43.000000	nontarget	8.000000	na
42.063978	0.049998	43.000000	nontarget	9.000000	na
42.113976	0.049998	43.000000	nontarget	10.000000	na
42.163975	0.049994	43.000000	nontarget	11.000000	na
42.213969	0.049997	43.000000	nontarget	12.000000	na
42.263966	0.049997	43.000000	nontarget	13.000000	42.264683
42.313963	0.049998	43.000000	nontarget	14.000000	na
42.363961	0.049997	43.000000	nontarget	15.000000	na
42.413958	0.049998	43.000000	nontarget	16.000000	na
42.463956	0.049996	44.000000	nontarget	1.000000	na
42.513952	0.049995	44.000000	nontarget	2.000000	na
42.563947	0.049998	44.000000	nontarget	3.000000	na
42.613945	0.049996	44.000000	nontarget	4.000000	na
42.663941	0.049998	44.000000	nontarget	5.000000	na
42.713939	0.049998	44.000000	nontarget	6.000000	na
42.763937	0.049994	44.000000	nontarget	7.000000	na
42.813930	0.050000	44.000000	nontarget	8.000000	na
42.863930	0.049997	44.000000	nontarget	9.000000	na
42.913928	0.049998	44.000000	nontarget	10.000000	42.945211
42.963925	0.049999	44.000000	nontarget	11.000000	na
43.013925	0.049993	44.000000	nontarget	12.000000	na
43.063918	0.049997	44.000000	nontarget	13.000000	na
43.113915	0.049998	44.000000	nontarget	14.000000	na
43.163912	0.049996	44.000000	nontarget	15.000000	na
43.213908	0.049995	44.000000	nontarget	16.000000	na
43.263903	0.049999	45.000000	nontarget	1.000000	na
43.313902	0.049998	45.000000	nontarget	2.000000	na
43.363900	0.049998	45.000000	nontarget	3.000000	na
43.413897	0.049996	45.000000	nontarget	4.000000	na
43.463894	0.049997	45.000000	nontarget	5.000000	na
43.513890	0.049997	45.000000	nontarget	6.000000	na
43.563888	0.049997	45.000000	nontarget	7.000000	na
43.613884	0.049997	45.000000	nontarget	8.000000	na
43.663881	0.049998	45.000000	nontarget	9.000000	na
43.713880	0.049997	45.000000	nontarget	10.000000	na
43.763877	0.049995	45.000000	nontarget	11.000000	43.764616
43.813872	0.049997	45.000000	nontarget	12.000000	na
43.863870	0.049998	45.000000	nontarget	13.000000	na
43.913867	0.049995	45.000000	nontarget	14.000000	na
43.963862	0.049988	45.000000	nontarget	15.000000	na
44.013850	0.050009	45.000000	nontarget	16.000000	na
44.063859	0.049997	46.000000	nontarget	1.000000	na
44.113856	0.049996	46.000000	nontarget	2.000000	na
44.163851	0.049997	46.000000	nontarget	3.000000	na
44.213849	0.049996	46.000000	nontarget	4.000000	na
44.263845	0.049998	46.000000	nontarget	5.000000	na
44.313842	0.049997	46.000000	nontarget	6.000000	na
44.363839	0.049998	46.000000	nontarget	7.000000	na
44.413837	0.049997	46.000000	nontarget	8.000000	na
44.463834	0.049996	46.000000	nontarget	9.000000	na
44.513830	0.049998	46.000000	nontarget	10.000000	na
44.563828	0.049996	46.000000	nontarget	11.000000	na
44.613824	0.050000	46.000000	nontarget	12.000000	na
44.663823	0.049995	46.000000	nontarget	13.000000	na
44.713818	0.049999	46.000000	nontarget	14.000000	na
44.763818	0.049994	46.000000	nontarget	15.000000	44.764547
44.813812	0.049998	46.000000	nontarget	16.000000	na
44.863810	0.049996	47.000000	nontarget	1.000000	44.864540
44.913806	0.049998	47.000000	nontarget	2.000000	na
44.963804	0.050001	47.000000	nontarget	3.000000	na
45.013805	0.049994	47.000000	nontarget	4.000000	na
45.063798	0.049995	47.000000	nontarget	5.000000	na
45.113793	0.049998	47.000000	nontarget	6.000000	na
45.163792	0.049998	47.000000	nontarget	7.000000	na
45.213789	0.049996	47.000000	nontarget	8.000000	na
45.263785	0.049997	47.000000	nontarget	9.000000	na
45.313782	0.049997	47.000000	nontarget	10.000000	na
45.363779	0.049998	47.000000	nontarget	11.000000	na
45.413777	0.049995	47.000000	nontarget	12.000000	na
45.463773	0.049998	47.000000	nontarget	13.000000	na
45.513770	0.049998	47.000000	nontarget	14.000000	45.529279
45.563768	0.049991	47.000000	nontarget	15.000000	na
45.613759	0.050003	47.000000	nontarget	16.000000	na
45.663762	0.049998	48.000000	nontarget	1.000000	45.664496
45.713760	0.049995	48.000000	nontarget	2.000000	na
45.763755	0.049997	48.000000	nontarget	3.000000	na
45.813752	0.049998	48.000000	nontarget	4.000000	na
45.863750	0.049997	48.000000	nontarget	5.000000	na
45.913747	0.049996	48.000000	nontarget	6.000000	na
45.963743	0.050001	48.000000	nontarget	7.000000	na
46.013744	0.049994	48.000000	nontarget	8.000000	na
46.063738	0.049998	48.000000	nontarget	9.000000	na
46.113736	0.049994	48.000000	nontarget	10.000000	na
46.163730	0.049999	48.000000	nontarget	11.000000	na
46.213729	0.049996	48.000000	nontarget	12.000000	na
46.263725	0.049997	48.000000	nontarget	13.000000	na
46.313722	0.049997	48.000000	nontarget	14.000000	na
46.363719	0.049997	48.000000	nontarget	15.000000	na
46.413715	0.049997	48.000000	nontarget	16.000000	46.418220
46.463713	0.049997	49.000000	nontarget	1.000000	46.464438
46.513710	0.050001	49.000000	nontarget	2.000000	na
46.563710	0.049994	49.000000	nontarget	3.000000	na
46.613705	0.049998	49.000000	nontarget	4.000000	na
46.663703	0.049995	49.000000	nontarget	5.000000	na
46.713698	0.049997	49.000000	nontarget	6.000000	na
46.763694	0.049997	49.000000	nontarget	7.000000	na
46.813691	0.049998	49.000000	nontarget	8.000000	na
46.863689	0.049998	49.000000	nontarget	9.000000	na
46.913687	0.049997	49.000000	nontarget	10.000000	na
46.963683	0.050001	49.000000	nontarget	11.000000	na
47.013684	0.049992	49.000000	nontarget	12.000000	na
47.063676	0.049999	49.000000	nontarget	13.000000	na
47.113675	0.049995	49.000000	nontarget	14.000000	na
47.163670	0.049998	49.000000	nontarget	15.000000	na
47.213668	0.049996	49.000000	nontarget	16.000000	na
47.263664	0.049998	50.000000	nontarget	1.000000	47.271384
47.313662	0.049998	50.000000	nontarget	2.000000	na
47.363659	0.049997	50.000000	nontarget	3.000000	na
47.413656	0.049998	50.000000	nontarget	4.000000	na
47.463653	0.049997	50.000000	nontarget	5.000000	na
47.513650	0.049996	50.000000	nontarget	6.000000	na
47.563646	0.049998	50.000000	nontarget	7.000000	na
47.613644	0.049997	50.000000	nontarget	8.000000	na
47.663641	0.049998	50.000000	nontarget	9.000000	na
47.713639	0.049995	50.000000	nontarget	10.000000	na
47.763634	0.049999	50.000000	nontarget	11.000000	na
47.813633	0.049995	50.000000	nontarget	12.000000	na
47.863628	0.049998	50.000000	nontarget	13.000000	na
47.913626	0.049997	50.000000	nontarget	14.000000	na
47.963623	0.050001	50.000000	nontarget	15.000000	na
48.013624	0.049992	50.000000	nontarget	16.000000	na
48.063616	0.049998	51.000000	nontarget	1.000000	na
48.113614	0.049996	51.000000	nontarget	2.000000	48.146262
48.163610	0.049999	51.000000	nontarget	3.000000	na
48.213609	0.049996	51.000000	nontarget	4.000000	na
48.263605	0.049997	51.000000	nontarget	5.000000	na
48.313602	0.049997	51.000000	nontarget	6.000000	na
48.363599	0.049997	51.000000	nontarget	7.000000	na
48.413596	0.049996	51.000000	nontarget	8.000000	na
48.463592	0.049998	51.000000	nontarget	9.000000	na
48.513590	0.049998	51.000000	nontarget	10.000000	na
48.563588	0.049995	51.000000	nontarget	11.000000	na
48.613584	0.049996	51.000000	nontarget	12.000000	na
48.663580	0.049998	51.000000	nontarget	13.000000	na
48.713577	0.049996	51.000000	nontarget	14.000000	na
48.763573	0.049998	51.000000	nontarget	15.000000	na
48.813571	0.049999	51.000000	nontarget	16.000000	na
48.863570	0.049996	52.000000	nontarget	1.000000	48.868102
48.913566	0.049996	52.000000	nontarget	2.000000	na
48.963562	0.050004	52.000000	nontarget	3.000000	na
49.013566	0.049990	52.000000	nontarget	4.000000	na
49.063556	0.049996	52.000000	nontarget	5.000000	na
49.113552	0.049998	52.000000	nontarget	6.000000	na
49.163550	0.049998	52.000000	nontarget	7.000000	na
49.213548	0.049996	52.000000	nontarget	8.000000	na
49.263544	0.049997	52.000000	nontarget	9.000000	na
49.313541	0.049996	52.000000	nontarget	10.000000	na
49.363537	0.049997	52.000000	nontarget	11.000000	na
49.413534	0.049997	52.000000	nontarget	12.000000	na
49.463532	0.049998	52.000000	nontarget	13.000000	na
49.513529	0.049996	52.000000	nontarget	14.000000	na
49.563525	0.049999	52.000000	nontarget	15.000000	49.594102
49.613524	0.049995	52.000000	nontarget	16.000000	na
49.663519	0.049998	53.000000	nontarget	1.000000	49.664195
49.713517	0.049997	53.000000	nontarget	2.000000	na
49.763514	0.050000	53.000000	nontarget	3.000000	na
49.813514	0.050004	53.000000	nontarget	4.000000	na
49.863518	0.049997	53.000000	nontarget	5.000000	na
49.913514	0.049989	53.000000	nontarget	6.000000	na
49.963503	0.050007	53.000000	nontarget	7.000000	na
50.013510	0.049986	53.000000	nontarget	8.000000	na
50.063497	0.050009	53.000000	nontarget	9.000000	na
50.113506	0.049998	53.000000	nontarget	10.000000	na
50.163504	0.050004	53.000000	nontarget	11.000000	na
50.213507	0.050022	53.000000	nontarget	12.000000	na
50.263530	0.049988	53.000000	nontarget	13.000000	na
50.313517	0.050001	53.000000	nontarget	14.000000	na
50.363518	0.049966	53.000000	nontarget	15.000000	na
50.413484	0.050005	53.000000	nontarget	16.000000	na
50.463488	0.049988	54.000000	nontarget	1.000000	50.464167
50.513476	0.050001	54.000000	nontarget	2.000000	na
50.563477	0.050000	54.000000	nontarget	3.000000	na
50.613477	0.049995	54.000000	nontarget	4.000000	na
50.663472	0.049991	54.000000	nontarget	5.000000	na
50.713463	0.049992	54.000000	nontarget	6.000000	na
50.763454	0.049992	54.000000	nontarget	7.000000	na
50.813446	0.050005	54.000000	nontarget	8.000000	na
50.863451	0.049994	54.000000	nontarget	9.000000	na
50.913445	0.049996	54.000000	nontarget	10.000000	na
50.963441	0.050017	54.000000	nontarget	11.000000	na
51.013458	0.049972	54.000000	nontarget	12.000000	na
51.063430	0.049997	54.000000	nontarget	13.000000	na
51.113426	0.049998	54.000000	nontarget	14.000000	na
51.163424	0.050004	54.000000	nontarget	15.000000	na
51.213427	0.049996	54.000000	nontarget	16.000000	na
51.263424	0.049995	55.000000	target	1.000000	na
51.313419	0.050001	55.000000	target	2.000000	na
51.363419	0.049995	55.000000	target	3.000000	na
51.413414	0.049997	55.000000	target	4.000000	na
51.463412	0.049997	55.000000	target	5.000000	na
51.513408	0.049998	55.000000	target	6.000000	na
51.563406	0.049996	55.000000	target	7.000000	na
51.613402	0.049998	55.000000	target	8.000000	na
51.663400	0.049997	55.000000	target	9.000000	na
51.713397	0.049996	55.000000	target	10.000000	na
51.763393	0.049997	55.000000	target	11.000000	na
51.813390	0.049998	55.000000	target	12.000000	na
51.863388	0.049995	55.000000	target	13.000000	na
51.913383	0.049998	55.000000	target	14.000000	na
51.963381	0.050000	55.000000	target	15.000000	51.970149
52.013381	0.049995	55.000000	target	16.000000	na
52.063376	0.049996	56.000000	nontarget	1.000000	52.064091
52.113372	0.049998	56.000000	nontarget	2.000000	na
52.163370	0.049996	56.000000	nontarget	3.000000	na
52.213366	0.049996	56.000000	nontarget	4.000000	na
52.263362	0.049998	56.000000	nontarget	5.000000	na
52.313361	0.049996	56.000000	nontarget	6.000000	na
52.363357	0.049998	56.000000	nontarget	7.000000	na
52.413354	0.049998	56.000000	nontarget	8.000000	na
52.463352	0.049995	56.000000	nontarget	9.000000	na
52.513347	0.049999	56.000000	nontarget	10.000000	na
52.563346	0.049998	56.000000	nontarget	11.000000	na
52.613344	0.049994	56.000000	nontarget	12.000000	na
52.663338	0.049997	56.000000	nontarget	13.000000	na
52.713335	0.049998	56.000000	nontarget	14.000000	na
52.763332	0.049998	56.000000	nontarget	15.000000	52.787031
52.813330	0.049998	56.000000	nontarget	16.000000	na
52.863328	0.049995	57.000000	nontarget	1.000000	52.864027
52.913323	0.049999	57.000000	nontarget	2.000000	na
52.963322	0.050001	57.000000	nontarget	3.000000	na
53.013322	0.049994	57.000000	nontarget	4.000000	na
53.063316	0.049997	57.000000	nontarget	5.000000	na
53.113313	0.049996	57.000000	nontarget	6.000000	na
53.163309	0.049998	57.000000	nontarget	7.000000	na
53.213307	0.049995	57.000000	nontarget	8.000000	na
53.263302	0.049998	57.000000	nontarget	9.000000	na
53.313300	0.049997	57.000000	nontarget	10.000000	na
53.363297	0.049997	57.000000	nontarget	11.000000	na
53.413293	0.049998	57.000000	nontarget	12.000000	na
53.463291	0.049997	57.000000	nontarget	13.000000	na
53.513288	0.049997	57.000000	nontarget	14.000000	na
53.563285	0.049996	57.000000	nontarget	15.000000	53.573042
53.613280	0.049998	57.000000	nontarget	16.000000	na
53.663279	0.050001	58.000000	nontarget	1.000000	53.663975
53.713280	0.049993	58.000000	nontarget	2.000000	na
53.763273	0.049996	58.000000	nontarget	3.000000	na
53.813269	0.049998	58.000000	nontarget	4.000000	na
53.863267	0.049996	58.000000	nontarget	5.000000	na
53.913263	0.049996	58.000000	nontarget	6.000000	na
53.963260	0.050001	58.000000	nontarget	7.000000	na
54.013261	0.049994	58.000000	nontarget	8.000000	na
54.063255	0.049997	58.000000	nontarget	9.000000	na
54.113252	0.049995	58.000000	nontarget	10.000000	na
54.163247	0.049999	58.000000	nontarget	11.000000	na
54.213246	0.049998	58.000000	nontarget	12.000000	na
54.263244	0.049998	58.000000	nontarget	13.000000	na
54.313242	0.049995	58.000000	nontarget	14.000000	54.313979
54.363237	0.049997	58.000000	nontarget	15.000000	na
54.413234	0.049995	58.000000	nontarget	16.000000	na
54.463229	0.049999	59.000000	nontarget	1.000000	na
54.513228	0.049998	59.000000	nontarget	2.000000	na
54.563226	0.049997	59.000000	nontarget	3.000000	na
54.613223	0.049996	59.000000	nontarget	4.000000	na
54.663219	0.049998	59.000000	nontarget	5.000000	na
54.713216	0.050002	59.000000	nontarget	6.000000	na
54.763218	0.049993	59.000000	nontarget	7.000000	na
54.813211	0.049997	59.000000	nontarget	8.000000	na
54.863208	0.049995	59.000000	nontarget	9.000000	na
54.913203	0.049998	59.000000	nontarget	10.000000	na
54.963200	0.050001	59.000000	nontarget	11.000000	na
55.013201	0.049994	59.000000	nontarget	12.000000	na
55.063195	0.049991	59.000000	nontarget	13.000000	na
55.113186	0.050003	59.000000	nontarget	14.000000	55.113976
55.163189	0.049997	59.000000	nontarget	15.000000	na
55.213185	0.050001	59.000000	nontarget	16.000000	na
55.263187	0.049994	60.000000	nontarget	1.000000	na
55.313180	0.049995	60.000000	nontarget	2.000000	na
55.363176	0.049996	60.000000	nontarget	3.000000	na
55.413172	0.050000	60.000000	nontarget	4.000000	na
55.463172	0.049996	60.000000	nontarget	5.000000	na
55.513168	0.049997	60.000000	nontarget	6.000000	na
55.563165	0.049989	60.000000	nontarget	7.000000	na
55.613154	0.050005	60.000000	nontarget	8.000000	na
55.663159	0.049997	60.000000	nontarget	9.000000	na
55.713156	0.049996	60.000000	nontarget	10.000000	na
55.763152	0.049998	60.000000	nontarget	11.000000	na
55.813149	0.049997	60.000000	nontarget	12.000000	na
55.863147	0.049996	60.000000	nontarget	13.000000	55.885095
55.913143	0.049997	60.000000	nontarget	14.000000	na
55.963140	0.050004	60.000000	nontarget	15.000000	na
56.013144	0.049990	60.000000	nontarget	16.000000	na
56.063134	0.049998	61.000000	nontarget	1.000000	na
56.113132	0.049996	61.000000	nontarget	2.000000	na
56.163128	0.049998	61.000000	nontarget	3.000000	na
56.213126	0.049996	61.000000	nontarget	4.000000	na
56.263122	0.049997	61.000000	nontarget	5.000000	na
56.313118	0.049998	61.000000	nontarget	6.000000	na
56.363116	0.049998	61.000000	nontarget	7.000000	na
56.413114	0.049996	61.000000	nontarget	8.000000	na
56.463109	0.049999	61.000000	nontarget	9.000000	na
56.513108	0.049996	61.000000	nontarget	10.000000	na
56.563104	0.049990	61.000000	nontarget	11.000000	na
56.613095	0.050006	61.000000	nontarget	12.000000	na
56.663100	0.049995	61.000000	nontarget	13.000000	na
56.713096	0.049997	61.000000	nontarget	14.000000	na
56.763092	0.049996	61.000000	nontarget	15.000000	na
56.813088	0.049999	61.000000	nontarget	16.000000	na
56.863087	0.049996	62.000000	target	1.000000	na
56.913083	0.049996	62.000000	target	2.000000	na
56.963079	0.049997	62.000000	target	3.000000	na
57.013076	0.049998	62.000000	target	4.000000	na
57.063074	0.049998	62.000000	target	5.000000	na
57.113072	0.049995	62.000000	target	6.000000	na
57.163067	0.049998	62.000000	target	7.000000	na
57.213065	0.049998	62.000000	target	8.000000	na
57.263062	0.049995	62.000000	target	9.000000	na
57.313058	0.049998	62.000000	target	10.000000	na
57.363056	0.049998	62.000000	target	11.000000	na
57.413053	0.049994	62.000000	target	12.000000	na
57.463048	0.050000	62.000000	target	13.000000	na
57.513048	0.050017	62.000000	target	14.000000	na
57.563065	0.049975	62.000000	target	15.000000	57.563767
57.613040	0.049997	62.000000	target	16.000000	na
57.663037	0.050000	63.000000	nontarget	1.000000	57.663710
57.713037	0.049994	63.000000	nontarget	2.000000	na
57.763031	0.049998	63.000000	nontarget	3.000000	na
57.813029	0.049996	63.000000	nontarget	4.000000	na
57.863025	0.049996	63.000000	nontarget	5.000000	na
57.913021	0.049997	63.000000	nontarget	6.000000	na
57.963018	0.050001	63.000000	nontarget	7.000000	na
58.013019	0.049997	63.000000	nontarget	8.000000	na
58.063016	0.049998	63.000000	nontarget	9.000000	na
58.113013	0.049996	63.000000	nontarget	10.000000	na
58.163009	0.050008	63.000000	nontarget	11.000000	na
58.213017	0.049984	63.000000	nontarget	12.000000	na
58.263001	0.050000	63.000000	nontarget	13.000000	na
58.313000	0.049997	63.000000	nontarget	14.000000	na
58.362997	0.049994	63.000000	nontarget	15.000000	na
58.412991	0.049998	63.000000	nontarget	16.000000	58.419943
58.462989	0.049997	64.000000	nontarget	1.000000	58.463703
58.512986	0.050000	64.000000	nontarget	2.000000	na
58.562986	0.049995	64.000000	nontarget	3.000000	na
58.612981	0.049996	64.000000	nontarget	4.000000	na
58.662978	0.049997	64.000000	nontarget	5.000000	na
58.712975	0.049997	64.000000	nontarget	6.000000	na
58.762971	0.049995	64.000000	nontarget	7.000000	na
58.812967	0.049999	64.000000	nontarget	8.000000	na
58.862966	0.049999	64.000000	nontarget	9.000000	na
58.912965	0.049996	64.000000	nontarget	10.000000	na
58.962961	0.049999	64.000000	nontarget	11.000000	na
59.012960	0.049995	64.000000	nontarget	12.000000	na
59.062955	0.049995	64.000000	nontarget	13.000000	na
59.112950	0.049997	64.000000	nontarget	14.000000	na
59.162947	0.049998	64.000000	nontarget	15.000000	59.185172
59.212945	0.049998	64.000000	nontarget	16.000000	na
59.262942	0.049995	65.000000	nontarget	1.000000	59.263646
59.312937	0.049999	65.000000	nontarget	2.000000	na
59.362937	0.049995	65.000000	nontarget	3.000000	na
59.412932	0.050006	65.000000	nontarget	4.000000	na
59.462938	0.049998	65.000000	nontarget	5.000000	na
59.512935	0.049987	65.000000	nontarget	6.000000	na
59.562922	0.050005	65.000000	nontarget	7.000000	na
59.612928	0.050031	65.000000	nontarget	8.000000	na
59.662959	0.049967	65.000000	nontarget	9.000000	na
59.712926	0.050038	65.000000	nontarget	10.000000	na
59.762964	0.049953	65.000000	nontarget	11.000000	na
59.812917	0.050001	65.000000	nontarget	12.000000	na
59.862918	0.050001	65.000000	nontarget	13.000000	na
59.912919	0.049979	65.000000	nontarget	14.000000	na
59.962899	0.050005	65.000000	nontarget	15.000000	na
60.012904	0.049989	65.000000	nontarget	16.000000	na
60.062893	0.050010	66.000000	nontarget	1.000000	na
60.112902	0.049994	66.000000	nontarget	2.000000	60.115718
60.162896	0.049999	66.000000	nontarget	3.000000	na
60.212895	0.049998	66.000000	nontarget	4.000000	na
60.262893	0.049986	66.000000	nontarget	5.000000	na
60.312879	0.049990	66.000000	nontarget	6.000000	na
60.362870	0.050007	66.000000	nontarget	7.000000	na
60.412877	0.050002	66.000000	nontarget	8.000000	na
60.462879	0.049998	66.000000	nontarget	9.000000	na
60.512877	0.050002	66.000000	nontarget	10.000000	na
60.562879	0.049986	66.000000	nontarget	11.000000	na
60.612866	0.049984	66.000000	nontarget	12.000000	na
60.662850	0.049998	66.000000	nontarget	13.000000	na
60.712848	0.050002	66.000000	nontarget	14.000000	na
60.762850	0.049998	66.000000	nontarget	15.000000	na
60.812848	0.049997	66.000000	nontarget	16.000000	na
60.862845	0.049997	67.000000	target	1.000000	na
60.912842	0.049996	67.000000	target	2.000000	na
60.962838	0.050002	67.000000	target	3.000000	na
61.012840	0.049993	67.000000	target	4.000000	na
61.062833	0.049997	67.000000	target	5.000000	na
61.112830	0.049996	67.000000	target	6.000000	na
61.162826	0.049998	67.000000	target	7.000000	na
61.212824	0.049996	67.000000	target	8.000000	na
61.262820	0.049996	67.000000	target	9.000000	na
61.312817	0.049998	67.000000	target	10.000000	na
61.362814	0.049997	67.000000	target	11.000000	na
61.412811	0.049997	67.000000	target	12.000000	na
61.462809	0.049997	67.000000	target	13.000000	na
61.512805	0.049997	67.000000	target	14.000000	na
61.562802	0.049996	67.000000	target	15.000000	61.591978
61.612799	0.049997	67.000000	target	16.000000	na
61.662796	0.049998	68.000000	nontarget	1.000000	61.663481
61.712794	0.049996	68.000000	nontarget	2.000000	na
61.762790	0.049998	68.000000	nontarget	3.000000	na
61.812788	0.049999	68.000000	nontarget	4.000000	na
61.862787	0.049994	68.000000	nontarget	5.000000	na
61.912781	0.049997	68.000000	nontarget	6.000000	na
61.962777	0.050002	68.000000	nontarget	7.000000	na
62.012779	0.049994	68.000000	nontarget	8.000000	na
62.062774	0.049995	68.000000	nontarget	9.000000	na
62.112769	0.049996	68.000000	nontarget	10.000000	na
62.162764	0.049998	68.000000	nontarget	11.000000	na
62.212762	0.049997	68.000000	nontarget	12.000000	na
62.262759	0.049996	68.000000	nontarget	13.000000	na
62.312755	0.049999	68.000000	nontarget	14.000000	na
62.362754	0.049996	68.000000	nontarget	15.000000	na
62.412750	0.049997	68.000000	nontarget	16.000000	na
62.462747	0.049997	69.000000	nontarget	1.000000	62.468950
62.512744	0.049998	69.000000	nontarget	2.000000	na
62.562742	0.049997	69.000000	nontarget	3.000000	na
62.612738	0.049998	69.000000	nontarget	4.000000	na
62.662736	0.049996	69.000000	nontarget	5.000000	na
62.712733	0.049998	69.000000	nontarget	6.000000	na
62.762730	0.049998	69.000000	nontarget	7.000000	na
62.812728	0.049997	69.000000	nontarget	8.000000	na
62.862724	0.049996	69.000000	nontarget	9.000000	na
62.912720	0.049998	69.000000	nontarget	10.000000	na
62.962718	0.049994	69.000000	nontarget	11.000000	na
63.012712	0.050000	69.000000	nontarget	12.000000	na
63.062712	0.049995	69.000000	nontarget	13.000000	na
63.112708	0.049998	69.000000	nontarget	14.000000	na
63.162705	0.049998	69.000000	nontarget	15.000000	na
63.212703	0.049997	69.000000	nontarget	16.000000	63.213476
63.262700	0.049995	70.000000	nontarget	1.000000	63.263426
63.312695	0.049997	70.000000	nontarget	2.000000	na
63.362692	0.049998	70.000000	nontarget	3.000000	na
63.412691	0.049996	70.000000	nontarget	4.000000	na
63.462687	0.049998	70.000000	nontarget	5.000000	na
63.512684	0.049997	70.000000	nontarget	6.000000	na
63.562681	0.049996	70.000000	nontarget	7.000000	na
63.612677	0.050001	70.000000	nontarget	8.000000	na
63.662678	0.049994	70.000000	nontarget	9.000000	na
63.712672	0.049997	70.000000	nontarget	10.000000	na
63.762669	0.049998	70.000000	nontarget	11.000000	na
63.812667	0.049998	70.000000	nontarget	12.000000	na
63.862664	0.049996	70.000000	nontarget	13.000000	na
63.912661	0.049996	70.000000	nontarget	14.000000	na
63.962656	0.050002	70.000000	nontarget	15.000000	na
64.012658	0.049993	70.000000	nontarget	16.000000	na
64.062651	0.049998	71.000000	target	1.000000	na
64.112649	0.049996	71.000000	target	2.000000	na
64.162645	0.049998	71.000000	target	3.000000	na
64.212643	0.049997	71.000000	target	4.000000	na
64.262639	0.049997	71.000000	target	5.000000	na
64.312636	0.049997	71.000000	target	6.000000	na
64.362633	0.049998	71.000000	target	7.000000	na
64.412631	0.049994	71.000000	target	8.000000	na
64.462625	0.049998	71.000000	target	9.000000	na
64.512623	0.049998	71.000000	target	10.000000	na
64.562621	0.049998	71.000000	target	11.000000	na
64.612619	0.049994	71.000000	target	12.000000	na
64.662614	0.049999	71.000000	target	13.000000	na
64.712613	0.049996	71.000000	target	14.000000	na
64.762609	0.049995	71.000000	target	15.000000	na
64.812603	0.050001	71.000000	target	16.000000	na
64.862605	0.049995	72.000000	nontarget	1.000000	64.863339
64.912600	0.049996	72.000000	nontarget	2.000000	na
64.962596	0.050002	72.000000	nontarget	3.000000	na
65.012598	0.049994	72.000000	nontarget	4.000000	na
65.062592	0.049995	72.000000	nontarget	5.000000	na
65.112587	0.049996	72.000000	nontarget	6.000000	na
65.162583	0.050001	72.000000	nontarget	7.000000	na
65.212584	0.049996	72.000000	nontarget	8.000000	na
65.262579	0.049996	72.000000	nontarget	9.000000	na
65.312575	0.049998	72.000000	nontarget	10.000000	na
65.362573	0.049997	72.000000	nontarget	11.000000	na
65.412570	0.049997	72.000000	nontarget	12.000000	na
65.462566	0.049996	72.000000	nontarget	13.000000	na
65.512562	0.049997	72.000000	nontarget	14.000000	na
65.562559	0.049998	72.000000	nontarget	15.000000	na
65.612557	0.049997	72.000000	nontarget	16.000000	na
65.662554	0.049998	73.000000	nontarget	1.000000	65.665908
65.712552	0.049996	73.000000	nontarget	2.000000	na
65.762548	0.049998	73.000000	nontarget	3.000000	na
65.812546	0.049996	73.000000	nontarget	4.000000	na
65.862542	0.049997	73.000000	nontarget	5.000000	na
65.912539	0.049998	73.000000	nontarget	6.000000	na
65.962536	0.050000	73.000000	nontarget	7.000000	na
66.012537	0.049994	73.000000	nontarget	8.000000	na
66.062531	0.049997	73.000000	nontarget	9.000000	na
66.112527	0.049999	73.000000	nontarget	10.000000	na
66.162526	0.049990	73.000000	nontarget	11.000000	na
66.212517	0.050001	73.000000	nontarget	12.000000	na
66.262518	0.049996	73.000000	nontarget	13.000000	na
66.312514	0.049998	73.000000	nontarget	14.000000	na
66.362512	0.049998	73.000000	nontarget	15.000000	na
66.412510	0.049995	73.000000	nontarget	16.000000	66.442853
66.462505	0.049998	74.000000	nontarget	1.000000	66.463212
66.512503	0.049997	74.000000	nontarget	2.000000	na
66.562500	0.049998	74.000000	nontarget	3.000000	na
66.612498	0.049997	74.000000	nontarget	4.000000	na
66.662495	0.049997	74.000000	nontarget	5.000000	na
66.712492	0.049995	74.000000	nontarget	6.000000	na
66.762487	0.049998	74.000000	nontarget	7.000000	na
66.812485	0.049998	74.000000	nontarget	8.000000	na
66.862483	0.049997	74.000000	nontarget	9.000000	na
66.912479	0.049996	74.000000	nontarget	10.000000	na
66.962475	0.050004	74.000000	nontarget	11.000000	na
67.012479	0.049992	74.000000	nontarget	12.000000	na
67.062471	0.049994	74.000000	nontarget	13.000000	na
67.112465	0.049999	74.000000	nontarget	14.000000	na
67.162464	0.050001	74.000000	nontarget	15.000000	na
67.212465	0.049992	74.000000	nontarget	16.000000	na
67.262457	0.049998	75.000000	target	1.000000	na
67.312455	0.049996	75.000000	target	2.000000	na
67.362451	0.049996	75.000000	target	3.000000	na
67.412448	0.049998	75.000000	target	4.000000	na
67.462445	0.049998	75.000000	target	5.000000	na
67.512443	0.049996	75.000000	target	6.000000	na
67.562439	0.049998	75.000000	target	7.000000	na
67.612437	0.049996	75.000000	target	8.000000	na
67.662432	0.049998	75.000000	target	9.000000	na
67.712431	0.049996	75.000000	target	10.000000	na
67.762427	0.049997	75.000000	target	11.000000	na
67.812424	0.049998	75.000000	target	12.000000	na
67.862422	0.049998	75.000000	target	13.000000	na
67.912419	0.049995	75.000000	target	14.000000	na
67.962414	0.050003	75.000000	target	15.000000	na
68.012417	0.049993	75.000000	target	16.000000	na
68.062410	0.049998	76.000000	nontarget	1.000000	na
68.112408	0.049995	76.000000	nontarget	2.000000	68.113103
68.162403	0.049998	76.000000	nontarget	3.000000	na
68.212401	0.049998	76.000000	nontarget	4.000000	na
68.262399	0.049999	76.000000	nontarget	5.000000	na
68.312397	0.049992	76.000000	nontarget	6.000000	na
68.362390	0.049999	76.000000	nontarget	7.000000	na
68.412389	0.049997	76.000000	nontarget	8.000000	na
68.462386	0.049996	76.000000	nontarget	9.000000	na
68.512382	0.049998	76.000000	nontarget	10.000000	na
68.562379	0.049997	76.000000	nontarget	11.000000	na
68.612376	0.049997	76.000000	nontarget	12.000000	na
68.662373	0.049999	76.000000	nontarget	13.000000	na
68.712372	0.049997	76.000000	nontarget	14.000000	na
68.762368	0.049996	76.000000	nontarget	15.000000	na
68.812364	0.049998	76.000000	nontarget	16.000000	na
68.862363	0.049998	77.000000	nontarget	1.000000	68.863063
68.912360	0.049994	77.000000	nontarget	2.000000	na
68.962354	0.050014	77.000000	nontarget	3.000000	na
69.012368	0.049979	77.000000	nontarget	4.000000	na
69.062348	0.050001	77.000000	nontarget	5.000000	na
69.112349	0.050003	77.000000	nontarget	6.000000	na
69.162352	0.049992	77.000000	nontarget	7.000000	na
69.212344	0.050039	77.000000	nontarget	8.000000	na
69.262383	0.049990	77.000000	nontarget	9.000000	na
69.312373	0.050014	77.000000	nontarget	10.000000	na
69.362388	0.049952	77.000000	nontarget	11.000000	na
69.412340	0.050002	77.000000	nontarget	12.000000	na
69.462342	0.050003	77.000000	nontarget	13.000000	na
69.512345	0.049975	77.000000	nontarget	14.000000	na
69.562319	0.050004	77.000000	nontarget	15.000000	na
69.612324	0.050001	77.000000	nontarget	16.000000	69.636980
69.662324	0.049997	78.000000	nontarget	1.000000	69.663010
69.712322	0.049995	78.000000	nontarget	2.000000	na
69.762317	0.049987	78.000000	nontarget	3.000000	na
69.812304	0.050010	78.000000	nontarget	4.000000	na
69.862315	0.049993	78.000000	nontarget	5.000000	na
69.912308	0.049988	78.000000	nontarget	6.000000	na
69.962296	0.050004	78.000000	nontarget	7.000000	na
70.012300	0.049989	78.000000	nontarget	8.000000	na
70.062289	0.050001	78.000000	nontarget	9.000000	na
70.112290	0.049997	78.000000	nontarget	10.000000	na
70.162287	0.049999	78.000000	nontarget	11.000000	na
70.212286	0.049982	78.000000	nontarget	12.000000	na
70.262268	0.049999	78.000000	nontarget	13.000000	na
70.312267	0.050004	78.000000	nontarget	14.000000	na
70.362271	0.049996	78.000000	nontarget	15.000000	na
70.412267	0.049998	78.000000	nontarget	16.000000	70.431762
70.462265	0.049996	79.000000	nontarget	1.000000	70.462993
70.512261	0.049998	79.000000	nontarget	2.000000	na
70.562259	0.049997	79.000000	nontarget	3.000000	na
70.612256	0.049995	79.000000	nontarget	4.000000	na
70.662251	0.049998	79.000000	nontarget	5.000000	na
70.712250	0.049997	79.000000	nontarget	6.000000	na
70.762247	0.049995	79.000000	nontarget	7.000000	na
70.812242	0.049999	79.000000	nontarget	8.000000	na
70.862241	0.049997	79.000000	nontarget	9.000000	na
70.912238	0.049995	79.000000	nontarget	10.000000	na
70.962232	0.049998	79.000000	nontarget	11.000000	na
71.012231	0.049998	79.000000	nontarget	12.000000	na
71.062229	0.049997	79.000000	nontarget	13.000000	na
71.112226	0.049997	79.000000	nontarget	14.000000	na
71.162222	0.049997	79.000000	nontarget	15.000000	na
71.212219	0.049998	79.000000	nontarget	16.000000	na
71.262217	0.049996	80.000000	nontarget	1.000000	na
71.312213	0.049997	80.000000	nontarget	2.000000	71.325908
71.362210	0.049998	80.000000	nontarget	3.000000	na
71.412207	0.050000	80.000000	nontarget	4.000000	na
71.462207	0.049995	80.000000	nontarget	5.000000	na
71.512201	0.049997	80.000000	nontarget	6.000000	na
71.562198	0.049995	80.000000	nontarget	7.000000	na
71.612193	0.049999	80.000000	nontarget	8.000000	na
71.662192	0.049997	80.000000	nontarget	9.000000	na
71.712189	0.049995	80.000000	nontarget	10.000000	na
71.762184	0.049999	80.000000	nontarget	11.000000	na
71.812183	0.049997	80.000000	nontarget	12.000000	na
71.862180	0.049994	80.000000	nontarget	13.000000	na
71.912174	0.049999	80.000000	nontarget	14.000000	na
71.962174	0.050001	80.000000	nontarget	15.000000	na
72.012175	0.049993	80.000000	nontarget	16.000000	na
72.062168	0.049998	81.000000	nontarget	1.000000	na
72.112166	0.049995	81.000000	nontarget	2.000000	na
72.162161	0.049999	81.000000	nontarget	3.000000	na
72.212160	0.049995	81.000000	nontarget	4.000000	72.229803
72.262154	0.049997	81.000000	nontarget	5.000000	na
72.312152	0.049997	81.000000	nontarget	6.000000	na
72.362149	0.049998	81.000000	nontarget	7.000000	na
72.412147	0.049997	81.000000	nontarget	8.000000	na
72.462144	0.049991	81.000000	nontarget	9.000000	na
72.512134	0.050004	81.000000	nontarget	10.000000	na
72.562138	0.049995	81.000000	nontarget	11.000000	na
72.612133	0.049997	81.000000	nontarget	12.000000	na
72.662131	0.049998	81.000000	nontarget	13.000000	na
72.712129	0.049996	81.000000	nontarget	14.000000	na
72.762125	0.049998	81.000000	nontarget	15.000000	na
72.812123	0.049997	81.000000	nontarget	16.000000	na
72.862120	0.049995	82.000000	nontarget	1.000000	na
72.912115	0.049998	82.000000	nontarget	2.000000	na
72.962113	0.050000	82.000000	nontarget	3.000000	72.977816
73.012113	0.049995	82.000000	nontarget	4.000000	na
73.062108	0.049996	82.000000	nontarget	5.000000	na
73.112104	0.049996	82.000000	nontarget	6.000000	na
73.162100	0.049998	82.000000	nontarget	7.000000	na
73.212098	0.049998	82.000000	nontarget	8.000000	na
73.262096	0.049995	82.000000	nontarget	9.000000	na
73.312092	0.049997	82.000000	nontarget	10.000000	na
73.362088	0.049998	82.000000	nontarget	11.000000	na
73.412087	0.049996	82.000000	nontarget	12.000000	na
73.462083	0.049997	82.000000	nontarget	13.000000	na
73.512080	0.049998	82.000000	nontarget	14.000000	na
73.562078	0.049997	82.000000	nontarget	15.000000	na
73.612074	0.049995	82.000000	nontarget	16.000000	na
73.662070	0.049998	83.000000	nontarget	1.000000	na
73.712067	0.049996	83.000000	nontarget	2.000000	na
73.762064	0.049998	83.000000	nontarget	3.000000	na
73.812062	0.049997	83.000000	nontarget	4.000000	na
73.862059	0.050001	83.000000	nontarget	5.000000	na
73.912059	0.049994	83.000000	nontarget	6.000000	73.912801
73.962054	0.049996	83.000000	nontarget	7.000000	na
74.012050	0.049998	83.000000	nontarget	8.000000	na
74.062048	0.049996	83.000000	nontarget	9.000000	na
74.112044	0.049995	83.000000	nontarget	10.000000	na
74.162039	0.049998	83.000000	nontarget	11.000000	na
74.212037	0.049998	83.000000	nontarget	12.000000	na
74.262035	0.049998	83.000000	nontarget	13.000000	na
74.312033	0.049997	83.000000	nontarget	14.000000	na
74.362030	0.049996	83.000000	nontarget	15.000000	na
74.412025	0.049997	83.000000	nontarget	16.000000	na
74.462022	0.049997	84.000000	nontarget	1.000000	na
74.512019	0.049997	84.000000	nontarget	2.000000	na
74.562016	0.049997	84.000000	nontarget	3.000000	na
74.612013	0.049998	84.000000	nontarget	4.000000	na
74.662011	0.049998	84.000000	nontarget	5.000000	na
74.712009	0.049990	84.000000	nontarget	6.000000	74.712720
74.761999	0.050001	84.000000	nontarget	7.000000	na
74.812001	0.050001	84.000000	nontarget	8.000000	na
74.862002	0.049993	84.000000	nontarget	9.000000	na
74.911994	0.050000	84.000000	nontarget	10.000000	na
74.961994	0.050002	84.000000	nontarget	11.000000	na
75.011996	0.049991	84.000000	nontarget	12.000000	na
75.061987	0.049997	84.000000	nontarget	13.000000	na
75.111985	0.049995	84.000000	nontarget	14.000000	na
75.161980	0.049997	84.000000	nontarget	15.000000	na
75.211977	0.049997	84.000000	nontarget	16.000000	na
75.261974	0.049996	85.000000	nontarget	1.000000	na
75.311971	0.049998	85.000000	nontarget	2.000000	na
75.361968	0.049997	85.000000	nontarget	3.000000	75.371704
75.411966	0.049992	85.000000	nontarget	4.000000	na
75.461957	0.050003	85.000000	nontarget	5.000000	na
75.511960	0.049996	85.000000	nontarget	6.000000	na
75.561956	0.049991	85.000000	nontarget	7.000000	na
75.611947	0.050002	85.000000	nontarget	8.000000	na
75.661950	0.049998	85.000000	nontarget	9.000000	na
75.711948	0.049998	85.000000	nontarget	10.000000	na
75.761946	0.049994	85.000000	nontarget	11.000000	na
75.811940	0.049999	85.000000	nontarget	12.000000	na
75.861939	0.049996	85.000000	nontarget	13.000000	na
75.911935	0.049998	85.000000	nontarget	14.000000	na
75.961932	0.050002	85.000000	nontarget	15.000000	na
76.011934	0.049993	85.000000	nontarget	16.000000	na
76.061927	0.049998	86.000000	nontarget	1.000000	na
76.111924	0.049995	86.000000	nontarget	2.000000	76.128806
76.161919	0.050000	86.000000	nontarget	3.000000	na
76.211920	0.049998	86.000000	nontarget	4.000000	na
76.261917	0.049994	86.000000	nontarget	5.000000	na
76.311911	0.049999	86.000000	nontarget	6.000000	na
76.361910	0.049994	86.000000	nontarget	7.000000	na
76.411904	0.049998	86.000000	nontarget	8.000000	na
76.461902	0.049997	86.000000	nontarget	9.000000	na
76.511899	0.049999	86.000000	nontarget	10.000000	na
76.561897	0.049996	86.000000	nontarget	11.000000	na
76.611893	0.049998	86.000000	nontarget	12.000000	na
76.661891	0.049995	86.000000	nontarget	13.000000	na
76.711886	0.049997	86.000000	nontarget	14.000000	na
76.761883	0.049997	86.000000	nontarget	15.000000	na
76.811880	0.049997	86.000000	nontarget	16.000000	na
76.861877	0.049999	87.000000	nontarget	1.000000	76.890754
76.911876	0.049995	87.000000	nontarget	2.000000	na
76.961871	0.050005	87.000000	nontarget	3.000000	na
77.011876	0.049990	87.000000	nontarget	4.000000	na
77.061866	0.049996	87.000000	nontarget	5.000000	na
77.111862	0.049997	87.000000	nontarget	6.000000	na
77.161859	0.049998	87.000000	nontarget	7.000000	na
77.211857	0.049997	87.000000	nontarget	8.000000	na
77.261853	0.049998	87.000000	nontarget	9.000000	na
77.311851	0.049997	87.000000	nontarget	10.000000	na
77.361848	0.049997	87.000000	nontarget	11.000000	na
77.411845	0.049996	87.000000	nontarget	12.000000	na
77.461841	0.049998	87.000000	nontarget	13.000000	na
77.511839	0.049995	87.000000	nontarget	14.000000	na
77.561834	0.049996	87.000000	nontarget	15.000000	na
77.611830	0.050000	87.000000	nontarget	16.000000	77.619814
77.661830	0.049995	88.000000	nontarget	1.000000	77.662514
77.711826	0.049998	88.000000	nontarget	2.000000	na
77.761823	0.049998	88.000000	nontarget	3.000000	na
77.811822	0.049995	88.000000	nontarget	4.000000	na
77.861817	0.049998	88.000000	nontarget	5.000000	na
77.911815	0.049996	88.000000	nontarget	6.000000	na
77.961812	0.050023	88.000000	nontarget	7.000000	na
78.011835	0.049970	88.000000	nontarget	8.000000	na
78.061805	0.049998	88.000000	nontarget	9.000000	na
78.111803	0.049996	88.000000	nontarget	10.000000	na
78.161799	0.049997	88.000000	nontarget	11.000000	na
78.211796	0.049997	88.000000	nontarget	12.000000	na
78.261793	0.049998	88.000000	nontarget	13.000000	na
78.311791	0.049997	88.000000	nontarget	14.000000	78.317759
78.361787	0.049996	88.000000	nontarget	15.000000	na
78.411784	0.049999	88.000000	nontarget	16.000000	na
78.461783	0.050001	89.000000	nontarget	1.000000	na
78.511784	0.050001	89.000000	nontarget	2.000000	na
78.561785	0.049998	89.000000	nontarget	3.000000	na
78.611782	0.049998	89.000000	nontarget	4.000000	na
78.661781	0.050002	89.000000	nontarget	5.000000	na
78.711782	0.049990	89.000000	nontarget	6.000000	na
78.761772	0.049987	89.000000	nontarget	7.000000	na
78.811759	0.050026	89.000000	nontarget	8.000000	na
78.861786	0.050002	89.000000	nontarget	9.000000	na
78.911788	0.049975	89.000000	nontarget	10.000000	na
78.961763	0.050016	89.000000	nontarget	11.000000	na
79.011779	0.049968	89.000000	nontarget	12.000000	na
79.061747	0.050001	89.000000	nontarget	13.000000	na
79.111747	0.049998	89.000000	nontarget	14.000000	na
79.161745	0.050006	89.000000	nontarget	15.000000	na
79.211751	0.049995	89.000000	nontarget	16.000000	na
79.261747	0.049994	90.000000	nontarget	1.000000	79.262430
79.311740	0.049998	90.000000	nontarget	2.000000	na
79.361738	0.049992	90.000000	nontarget	3.000000	na
79.411730	0.049988	90.000000	nontarget	4.000000	na
79.461719	0.049994	90.000000	nontarget	5.000000	na
79.511712	0.050004	90.000000	nontarget	6.000000	na
79.561717	0.049993	90.000000	nontarget	7.000000	na
79.611710	0.050001	90.000000	nontarget	8.000000	na
79.661711	0.049999	90.000000	nontarget	9.000000	na
79.711710	0.049999	90.000000	nontarget	10.000000	na
79.761709	0.049983	90.000000	nontarget	11.000000	na
79.811692	0.049997	90.000000	nontarget	12.000000	na
79.861689	0.050003	90.000000	nontarget	13.000000	79.871735
79.911692	0.049997	90.000000	nontarget	14.000000	na
79.961690	0.050000	90.000000	nontarget	15.000000	na
80.011690	0.049994	90.000000	nontarget	16.000000	na
80.061684	0.049996	91.000000	nontarget	1.000000	na
80.111680	0.049998	91.000000	nontarget	2.000000	na
80.161678	0.049996	91.000000	nontarget	3.000000	na
80.211674	0.049998	91.000000	nontarget	4.000000	na
80.261672	0.049996	91.000000	nontarget	5.000000	na
80.311668	0.049992	91.000000	nontarget	6.000000	na
80.361660	0.050002	91.000000	nontarget	7.000000	na
80.411662	0.049997	91.000000	nontarget	8.000000	na
80.461659	0.049998	91.000000	nontarget	9.000000	na
80.511657	0.049996	91.000000	nontarget	10.000000	na
80.561653	0.049997	91.000000	nontarget	11.000000	na
80.611650	0.049999	91.000000	nontarget	12.000000	na
80.661648	0.049999	91.000000	nontarget	13.000000	na
80.711648	0.049993	91.000000	nontarget	14.000000	80.712349
80.761641	0.049995	91.000000	nontarget	15.000000	na
80.811636	0.050000	91.000000	nontarget	16.000000	na
80.861636	0.049996	92.000000	nontarget	1.000000	na
80.911632	0.049998	92.000000	nontarget	2.000000	na
80.961629	0.050001	92.000000	nontarget	3.000000	na
81.011630	0.049996	92.000000	nontarget	4.000000	na
81.061626	0.049994	92.000000	nontarget	5.000000	na
81.111620	0.049996	92.000000	nontarget	6.000000	na
81.161617	0.049995	92.000000	nontarget	7.000000	na
81.211612	0.050000	92.000000	nontarget	8.000000	na
81.261611	0.049997	92.000000	nontarget	9.000000	na
81.311608	0.049997	92.000000	nontarget	10.000000	na
81.361605	0.049996	92.000000	nontarget	11.000000	na
81.411601	0.049999	92.000000	nontarget	12.000000	na
81.461600	0.049996	92.000000	nontarget	13.000000	na
81.511596	0.049997	92.000000	nontarget	14.000000	na
81.561593	0.049999	92.000000	nontarget	15.000000	na
81.611592	0.049996	92.000000	nontarget	16.000000	81.612291
81.661588	0.049994	93.000000	nontarget	1.000000	81.662285
81.711582	0.049999	93.000000	nontarget	2.000000	na
81.761581	0.049996	93.000000	nontarget	3.000000	na
81.811578	0.049998	93.000000	nontarget	4.000000	na
81.861575	0.049996	93.000000	nontarget	5.000000	na
81.911572	0.049996	93.000000	nontarget	6.000000	na
81.961568	0.049985	93.000000	nontarget	7.000000	na
82.011553	0.050010	93.000000	nontarget	8.000000	na
82.061563	0.049998	93.000000	nontarget	9.000000	na
82.111560	0.049996	93.000000	nontarget	10.000000	na
82.161557	0.049996	93.000000	nontarget	11.000000	na
82.211552	0.049999	93.000000	nontarget	12.000000	na
82.261551	0.049998	93.000000	nontarget	13.000000	na
82.311549	0.049997	93.000000	nontarget	14.000000	na
82.361545	0.049997	93.000000	nontarget	15.000000	82.362245
82.411542	0.049997	93.000000	nontarget	16.000000	na
82.461539	0.049996	94.000000	nontarget	1.000000	82.462245
82.511534	0.049997	94.000000	nontarget	2.000000	na
82.561531	0.049999	94.000000	nontarget	3.000000	na
82.611530	0.049995	94.000000	nontarget	4.000000	na
82.661525	0.049996	94.000000	nontarget	5.000000	na
82.711521	0.049999	94.000000	nontarget	6.000000	na
82.761520	0.049997	94.000000	nontarget	7.000000	na
82.811517	0.049997	94.000000	nontarget	8.000000	na
82.861514	0.049997	94.000000	nontarget	9.000000	na
82.911511	0.049996	94.000000	nontarget	10.000000	na
82.961507	0.050003	94.000000	nontarget	11.000000	na
83.011510	0.049992	94.000000	nontarget	12.000000	na
83.061502	0.049996	94.000000	nontarget	13.000000	na
83.111499	0.049997	94.000000	nontarget	14.000000	na
83.161496	0.049998	94.000000	nontarget	15.000000	na
83.211494	0.049995	94.000000	nontarget	16.000000	na
83.261489	0.049998	95.000000	target	1.000000	na
83.311487	0.049996	95.000000	target	2.000000	na
83.361483	0.049998	95.000000	target	3.000000	na
83.411481	0.049998	95.000000	target	4.000000	na
83.461479	0.049997	95.000000	target	5.000000	na
83.511476	0.049998	95.000000	target	6.000000	na
83.561473	0.049996	95.000000	target	7.000000	na
83.611469	0.049996	95.000000	target	8.000000	na
83.661465	0.049999	95.000000	target	9.000000	na
83.711464	0.049996	95.000000	target	10.000000	na
83.761460	0.049998	95.000000	target	11.000000	na
83.811458	0.049995	95.000000	target	12.000000	na
83.861454	0.049997	95.000000	target	13.000000	na
83.911451	0.049997	95.000000	target	14.000000	na
83.961448	0.050001	95.000000	target	15.000000	na
84.011449	0.049995	95.000000	target	16.000000	na
84.061444	0.049996	96.000000	nontarget	1.000000	84.062190
84.111440	0.049994	96.000000	nontarget	2.000000	na
84.161434	0.050001	96.000000	nontarget	3.000000	na
84.211434	0.049995	96.000000	nontarget	4.000000	na
84.261429	0.049998	96.000000	nontarget	5.000000	na
84.311427	0.049996	96.000000	nontarget	6.000000	na
84.361423	0.049998	96.000000	nontarget	7.000000	na
84.411422	0.049995	96.000000	nontarget	8.000000	na
84.461417	0.049997	96.000000	nontarget	9.000000	na
84.511414	0.049998	96.000000	nontarget	10.000000	na
84.561411	0.049998	96.000000	nontarget	11.000000	na
84.611409	0.049996	96.000000	nontarget	12.000000	na
84.661405	0.049998	96.000000	nontarget	13.000000	na
84.711403	0.049997	96.000000	nontarget	14.000000	na
84.761400	0.049998	96.000000	nontarget	15.000000	na
84.811398	0.049997	96.000000	nontarget	16.000000	na
84.861394	0.049997	97.000000	nontarget	1.000000	na
84.911391	0.049996	97.000000	nontarget	2.000000	na
84.961387	0.050001	97.000000	nontarget	3.000000	na
85.011388	0.049994	97.000000	nontarget	4.000000	85.012117
85.061382	0.049998	97.000000	nontarget	5.000000	na
85.111379	0.049999	97.000000	nontarget	6.000000	na
85.161378	0.049994	97.000000	nontarget	7.000000	na
85.211372	0.049997	97.000000	nontarget	8.000000	na
85.261369	0.049997	97.000000	nontarget	9.000000	na
85.311366	0.049999	97.000000	nontarget	10.000000	na
85.361364	0.049997	97.000000	nontarget	11.000000	na
85.411361	0.049994	97.000000	nontarget	12.000000	na
85.461356	0.049998	97.000000	nontarget	13.000000	na
85.511353	0.049997	97.000000	nontarget	14.000000	na
85.561350	0.049998	97.000000	nontarget	15.000000	na
85.611348	0.049999	97.000000	nontarget	16.000000	na
85.661347	0.049996	98.000000	target	1.000000	na
85.711343	0.049994	98.000000	target	2.000000	na
85.761337	0.049999	98.000000	target	3.000000	na
85.811336	0.049998	98.000000	target	4.000000	na
85.861335	0.049995	98.000000	target	5.000000	na
85.911330	0.049998	98.000000	target	6.000000	na
85.961328	0.050000	98.000000	target	7.000000	na
86.011328	0.049994	98.000000	target	8.000000	na
86.061321	0.049996	98.000000	target	9.000000	na
86.111317	0.049997	98.000000	target	10.000000	na
86.161314	0.049997	98.000000	target	11.000000	na
86.211311	0.049997	98.000000	target	12.000000	na
86.261309	0.050000	98.000000	target	13.000000	na
86.311309	0.049995	98.000000	target	14.000000	na
86.361304	0.049995	98.000000	target	15.000000	na
86.411299	0.049998	98.000000	target	16.000000	na
86.461297	0.049998	99.000000	nontarget	1.000000	86.462080
86.511295	0.049997	99.000000	nontarget	2.000000	na
86.561292	0.049998	99.000000	nontarget	3.000000	na
86.611290	0.049995	99.000000	nontarget	4.000000	na
86.661286	0.049996	99.000000	nontarget	5.000000	na
86.711281	0.049999	99.000000	nontarget	6.000000	na
86.761281	0.049995	99.000000	nontarget	7.000000	na
86.811276	0.049996	99.000000	nontarget	8.000000	na
86.861272	0.049996	99.000000	nontarget	9.000000	na
86.911268	0.049998	99.000000	nontarget	10.000000	na
86.961266	0.050001	99.000000	nontarget	11.000000	na
87.011267	0.049992	99.000000	nontarget	12.000000	na
87.061259	0.049998	99.000000	nontarget	13.000000	na
87.111257	0.049996	99.000000	nontarget	14.000000	na
87.161253	0.049995	99.000000	nontarget	15.000000	na
87.211249	0.050000	99.000000	nontarget	16.000000	na
87.261249	0.049997	100.000000	nontarget	1.000000	na
87.311246	0.049994	100.000000	nontarget	2.000000	na
87.361239	0.050001	100.000000	nontarget	3.000000	na
87.411240	0.049995	100.000000	nontarget	4.000000	87.411919
87.461236	0.049998	100.000000	nontarget	5.000000	na
87.511234	0.049998	100.000000	nontarget	6.000000	na
87.561232	0.049995	100.000000	nontarget	7.000000	na
87.611227	0.049997	100.000000	nontarget	8.000000	na
87.661224	0.049996	100.000000	nontarget	9.000000	na
87.711220	0.049996	100.000000	nontarget	10.000000	na
87.761217	0.049998	100.000000	nontarget	11.000000	na
87.811215	0.049997	100.000000	nontarget	12.000000	na
87.861211	0.049997	100.000000	nontarget	13.000000	na
87.911209	0.049997	100.000000	nontarget	14.000000	na
87.961206	0.050001	100.000000	nontarget	15.000000	na
88.011206	0.049993	100.000000	nontarget	16.000000	na
88.061199	0.049999	101.000000	nontarget	1.000000	na
88.111198	0.049995	101.000000	nontarget	2.000000	na
88.161194	0.050009	101.000000	nontarget	3.000000	88.167684
88.211202	0.050002	101.000000	nontarget	4.000000	na
88.261204	0.049981	101.000000	nontarget	5.000000	na
88.311185	0.050006	101.000000	nontarget	6.000000	na
88.361191	0.050038	101.000000	nontarget	7.000000	na
88.411229	0.049965	101.000000	nontarget	8.000000	na
88.461194	0.050038	101.000000	nontarget	9.000000	na
88.511232	0.049952	101.000000	nontarget	10.000000	na
88.561184	0.050004	101.000000	nontarget	11.000000	na
88.611188	0.049977	101.000000	nontarget	12.000000	na
88.661165	0.050002	101.000000	nontarget	13.000000	na
88.711167	0.050001	101.000000	nontarget	14.000000	na
88.761168	0.049988	101.000000	nontarget	15.000000	na
88.811156	0.050003	101.000000	nontarget	16.000000	88.842406
88.861159	0.050001	102.000000	nontarget	1.000000	88.861971
88.911160	0.049998	102.000000	nontarget	2.000000	na
88.961157	0.049997	102.000000	nontarget	3.000000	na
89.011154	0.049985	102.000000	nontarget	4.000000	na
89.061140	0.050000	102.000000	nontarget	5.000000	na
89.111140	0.049991	102.000000	nontarget	6.000000	na
89.161131	0.050012	102.000000	nontarget	7.000000	na
89.211143	0.049990	102.000000	nontarget	8.000000	na
89.261133	0.049997	102.000000	nontarget	9.000000	na
89.311130	0.049984	102.000000	nontarget	10.000000	na
89.361114	0.049998	102.000000	nontarget	11.000000	na
89.411112	0.050003	102.000000	nontarget	12.000000	na
89.461114	0.049998	102.000000	nontarget	13.000000	na
89.511112	0.049998	102.000000	nontarget	14.000000	na
89.561109	0.049991	102.000000	nontarget	15.000000	89.593244
89.611100	0.050003	102.000000	nontarget	16.000000	na
89.661103	0.049997	103.000000	nontarget	1.000000	89.661808
89.711100	0.049997	103.000000	nontarget	2.000000	na
89.761097	0.049998	103.000000	nontarget	3.000000	na
89.811095	0.049997	103.000000	nontarget	4.000000	na
89.861092	0.049996	103.000000	nontarget	5.000000	na
89.911087	0.049998	103.000000	nontarget	6.000000	na
89.961085	0.049999	103.000000	nontarget	7.000000	na
90.011084	0.049995	103.000000	nontarget	8.000000	na
90.061079	0.049998	103.000000	nontarget	9.000000	na
90.111077	0.049996	103.000000	nontarget	10.000000	na
90.161073	0.049996	103.000000	nontarget	11.000000	na
90.211069	0.049998	103.000000	nontarget	12.000000	na
90.261067	0.049997	103.000000	nontarget	13.000000	na
90.311064	0.049998	103.000000	nontarget	14.000000	90.318594
90.361062	0.049996	103.000000	nontarget	15.000000	na
90.411058	0.049999	103.000000	nontarget	16.000000	na
90.461057	0.049995	104.000000	nontarget	1.000000	na
90.511053	0.049990	104.000000	nontarget	2.000000	na
90.561043	0.050005	104.000000	nontarget	3.000000	na
90.611048	0.049996	104.000000	nontarget	4.000000	na
90.661043	0.049996	104.000000	nontarget	5.000000	na
90.711039	0.049997	104.000000	nontarget	6.000000	na
90.761036	0.049997	104.000000	nontarget	7.000000	na
90.811033	0.049997	104.000000	nontarget	8.000000	na
90.861030	0.049998	104.000000	nontarget	9.000000	na
90.911028	0.049997	104.000000	nontarget	10.000000	na
90.961025	0.049997	104.000000	nontarget	11.000000	na
91.011022	0.049997	104.000000	nontarget	12.000000	na
91.061019	0.049998	104.000000	nontarget	13.000000	na
91.111017	0.049995	104.000000	nontarget	14.000000	91.139708
91.161013	0.049997	104.000000	nontarget	15.000000	na
91.211010	0.049995	104.000000	nontarget	16.000000	na
91.261005	0.049998	105.000000	nontarget	1.000000	91.261704
91.311003	0.049997	105.000000	nontarget	2.000000	na
91.361001	0.049996	105.000000	nontarget	3.000000	na
91.410997	0.049997	105.000000	nontarget	4.000000	na
91.460993	0.049998	105.000000	nontarget	5.000000	na
91.510992	0.049998	105.000000	nontarget	6.000000	na
91.560989	0.049997	105.000000	nontarget	7.000000	na
91.610986	0.049997	105.000000	nontarget	8.000000	na
91.660983	0.049995	105.000000	nontarget	9.000000	na
91.710978	0.049997	105.000000	nontarget	10.000000	na
91.760975	0.049997	105.000000	nontarget	11.000000	na
91.810972	0.050000	105.000000	nontarget	12.000000	na
91.860972	0.049995	105.000000	nontarget	13.000000	91.861671
91.910967	0.049997	105.000000	nontarget	14.000000	na
91.960963	0.050001	105.000000	nontarget	15.000000	na
92.010965	0.049995	105.000000	nontarget	16.000000	na
92.060960	0.049995	106.000000	nontarget	1.000000	na
92.110955	0.049996	106.000000	nontarget	2.000000	na
92.160951	0.049998	106.000000	nontarget	3.000000	na
92.210949	0.049996	106.000000	nontarget	4.000000	na
92.260945	0.049997	106.000000	nontarget	5.000000	na
92.310942	0.049998	106.000000	nontarget	6.000000	na
92.360940	0.049998	106.000000	nontarget	7.000000	na
92.410938	0.049998	106.000000	nontarget	8.000000	na
92.460935	0.049997	106.000000	nontarget	9.000000	na
92.510932	0.049996	106.000000	nontarget	10.000000	na
92.560928	0.049997	106.000000	nontarget	11.000000	na
92.610925	0.049997	106.000000	nontarget	12.000000	na
92.660922	0.049998	106.000000	nontarget	13.000000	na
92.710920	0.049996	106.000000	nontarget	14.000000	92.735652
92.760917	0.049996	106.000000	nontarget	15.000000	na
92.810912	0.050000	106.000000	nontarget	16.000000	na
92.860912	0.049994	107.000000	nontarget	1.000000	na
92.910906	0.049997	107.000000	nontarget	2.000000	na
92.960904	0.050000	107.000000	nontarget	3.000000	na
93.010904	0.049994	107.000000	nontarget	4.000000	na
93.060898	0.049997	107.000000	nontarget	5.000000	na
93.110894	0.049996	107.000000	nontarget	6.000000	na
93.160891	0.049997	107.000000	nontarget	7.000000	na
93.210888	0.049996	107.000000	nontarget	8.000000	na
93.260884	0.049998	107.000000	nontarget	9.000000	na
93.310882	0.049998	107.000000	nontarget	10.000000	na
93.360879	0.049996	107.000000	nontarget	11.000000	na
93.410876	0.049996	107.000000	nontarget	12.000000	na
93.460872	0.049998	107.000000	nontarget	13.000000	na
93.510870	0.049997	107.000000	nontarget	14.000000	na
93.560867	0.049995	107.000000	nontarget	15.000000	na
93.610862	0.049998	107.000000	nontarget	16.000000	na
93.660860	0.049997	108.000000	nontarget	1.000000	93.672593
93.710858	0.049998	108.000000	nontarget	2.000000	na
93.760855	0.049998	108.000000	nontarget	3.000000	na
93.810853	0.049994	108.000000	nontarget	4.000000	na
93.860848	0.049997	108.000000	nontarget	5.000000	na
93.910845	0.049997	108.000000	nontarget	6.000000	na
93.960842	0.049998	108.000000	nontarget	7.000000	na
94.010840	0.049997	108.000000	nontarget	8.000000	na
94.060837	0.049996	108.000000	nontarget	9.000000	na
94.110833	0.049998	108.000000	nontarget	10.000000	na
94.160831	0.049997	108.000000	nontarget	11.000000	na
94.210827	0.049997	108.000000	nontarget	12.000000	na
94.260824	0.049998	108.000000	nontarget	13.000000	na
94.310822	0.049996	108.000000	nontarget	14.000000	na
94.360818	0.049998	108.000000	nontarget	15.000000	na
94.410816	0.049994	108.000000	nontarget	16.000000	94.427824
94.460810	0.049999	109.000000	nontarget	1.000000	94.461514
94.510810	0.049997	109.000000	nontarget	2.000000	na
94.560807	0.049993	109.000000	nontarget	3.000000	na
94.610799	0.050001	109.000000	nontarget	4.000000	na
94.660800	0.049999	109.000000	nontarget	5.000000	na
94.710799	0.049995	109.000000	nontarget	6.000000	na
94.760794	0.049997	109.000000	nontarget	7.000000	na
94.810791	0.049997	109.000000	nontarget	8.000000	na
94.860788	0.049998	109.000000	nontarget	9.000000	na
94.910786	0.049998	109.000000	nontarget	10.000000	na
94.960785	0.050007	109.000000	nontarget	11.000000	na
95.010792	0.049986	109.000000	nontarget	12.000000	na
95.060778	0.049996	109.000000	nontarget	13.000000	na
95.110774	0.049998	109.000000	nontarget	14.000000	na
95.160772	0.049996	109.000000	nontarget	15.000000	na
95.210768	0.049997	109.000000	nontarget	16.000000	95.211529
95.260766	0.049999	110.000000	nontarget	1.000000	95.261487
95.310765	0.049993	110.000000	nontarget	2.000000	na
95.360758	0.049996	110.000000	nontarget	3.000000	na
95.410754	0.050001	110.000000	nontarget	4.000000	na
95.460755	0.049994	110.000000	nontarget	5.000000	na
95.510749	0.049999	110.000000	nontarget	6.000000	na
95.560748	0.049997	110.000000	nontarget	7.000000	na
95.610745	0.049996	110.000000	nontarget	8.000000	na
95.660740	0.049997	110.000000	nontarget	9.000000	na
95.710737	0.049997	110.000000	nontarget	10.000000	na
95.760734	0.049992	110.000000	nontarget	11.000000	na
95.810726	0.050002	110.000000	nontarget	12.000000	na
95.860728	0.049996	110.000000	nontarget	13.000000	na
95.910724	0.049998	110.000000	nontarget	14.000000	na
95.960722	0.049999	110.000000	nontarget	15.000000	95.980636
96.010722	0.049993	110.000000	nontarget	16.000000	na
96.060714	0.050001	111.000000	nontarget	1.000000	96.061409
96.110716	0.049992	111.000000	nontarget	2.000000	na
96.160708	0.049998	111.000000	nontarget	3.000000	na
96.210707	0.049996	111.000000	nontarget	4.000000	na
96.260702	0.049997	111.000000	nontarget	5.000000	na
96.310699	0.049998	111.000000	nontarget	6.000000	na
96.360697	0.049997	111.000000	nontarget	7.000000	na
96.410694	0.049999	111.000000	nontarget	8.000000	na
96.460693	0.049997	111.000000	nontarget	9.000000	na
96.510690	0.049997	111.000000	nontarget	10.000000	na
96.560687	0.049994	111.000000	nontarget	11.000000	na
96.610681	0.049999	111.000000	nontarget	12.000000	na
96.660680	0.049998	111.000000	nontarget	13.000000	na
96.710678	0.049995	111.000000	nontarget	14.000000	na
96.760673	0.049999	111.000000	nontarget	15.000000	na
96.810672	0.049996	111.000000	nontarget	16.000000	na
96.860668	0.049998	112.000000	nontarget	1.000000	na
96.910666	0.049995	112.000000	nontarget	2.000000	96.911346
96.960662	0.050000	112.000000	nontarget	3.000000	na
97.010661	0.049994	112.000000	nontarget	4.000000	na
97.060655	0.049997	112.000000	nontarget	5.000000	na
97.110652	0.049999	112.000000	nontarget	6.000000	na
97.160650	0.049995	112.000000	nontarget	7.000000	na
97.210645	0.049998	112.000000	nontarget	8.000000	na
97.260643	0.049998	112.000000	nontarget	9.000000	na
97.310640	0.049997	112.000000	nontarget	10.000000	na
97.360638	0.049997	112.000000	nontarget	11.000000	na
97.410634	0.049999	112.000000	nontarget	12.000000	na
97.460633	0.049995	112.000000	nontarget	13.000000	na
97.510628	0.049997	112.000000	nontarget	14.000000	na
97.560626	0.049997	112.000000	nontarget	15.000000	na
97.610623	0.049995	112.000000	nontarget	16.000000	na
97.660618	0.049999	113.000000	target	1.000000	na
97.710617	0.049996	113.000000	target	2.000000	na
97.760613	0.050013	113.000000	target	3.000000	na
97.810626	0.049992	113.000000	target	4.000000	na
97.860618	0.050030	113.000000	target	5.000000	na
97.910647	0.049965	113.000000	target	6.000000	na
97.960612	0.050018	113.000000	target	7.000000	na
98.010630	0.050012	113.000000	target	8.000000	na
98.060643	0.049976	113.000000	target	9.000000	na
98.110619	0.049986	113.000000	target	10.000000	na
98.160605	0.049997	113.000000	target	11.000000	na
98.210601	0.050006	113.000000	target	12.000000	na
98.260608	0.049972	113.000000	target	13.000000	na
98.310579	0.049998	113.000000	target	14.000000	98.340464
98.360577	0.050008	113.000000	target	15.000000	na
98.410585	0.049996	113.000000	target	16.000000	na
98.460581	0.049998	114.000000	nontarget	1.000000	98.461259
98.510579	0.049986	114.000000	nontarget	2.000000	na
98.560565	0.050001	114.000000	nontarget	3.000000	na
98.610566	0.049993	114.000000	nontarget	4.000000	na
98.660559	0.050014	114.000000	nontarget	5.000000	na
98.710573	0.049979	114.000000	nontarget	6.000000	na
98.760552	0.049999	114.000000	nontarget	7.000000	na
98.810551	0.049995	114.000000	nontarget	8.000000	na
98.860546	0.050001	114.000000	nontarget	9.000000	na
98.910547	0.049988	114.000000	nontarget	10.000000	na
98.960535	0.050002	114.000000	nontarget	11.000000	na
99.010537	0.049998	114.000000	nontarget	12.000000	na
99.060535	0.049997	114.000000	nontarget	13.000000	na
99.110532	0.049996	114.000000	nontarget	14.000000	na
99.160528	0.049996	114.000000	nontarget	15.000000	99.168478
99.210524	0.049999	114.000000	nontarget	16.000000	na
99.260523	0.049998	115.000000	nontarget	1.000000	99.261204
99.310522	0.049995	115.000000	nontarget	2.000000	na
99.360517	0.049998	115.000000	nontarget	3.000000	na
99.410514	0.049996	115.000000	nontarget	4.000000	na
99.460510	0.049998	115.000000	nontarget	5.000000	na
99.510508	0.049996	115.000000	nontarget	6.000000	na
99.560505	0.049995	115.000000	nontarget	7.000000	na
99.610500	0.049997	115.000000	nontarget	8.000000	na
99.660497	0.050000	115.000000	nontarget	9.000000	na
99.710496	0.049997	115.000000	nontarget	10.000000	na
99.760493	0.049994	115.000000	nontarget	11.000000	na
99.810488	0.049999	115.000000	nontarget	12.000000	na
99.860487	0.049995	115.000000	nontarget	13.000000	na
99.910482	0.049993	115.000000	nontarget	14.000000	na
99.960475	0.050056	115.000000	nontarget	15.000000	na
100.010531	0.049945	115.000000	nontarget	16.000000	100.041522
100.060476	0.049997	116.000000	nontarget	1.000000	100.061178
100.110472	0.049996	116.000000	nontarget	2.000000	na
100.160468	0.049998	116.000000	nontarget	3.000000	na
100.210466	0.049998	116.000000	nontarget	4.000000	na
100.260464	0.049996	116.000000	nontarget	5.000000	na
100.310460	0.049996	116.000000	nontarget	6.000000	na
100.360455	0.049997	116.000000	nontarget	7.000000	na
100.410452	0.049994	116.000000	nontarget	8.000000	na
100.460446	0.050001	116.000000	nontarget	9.000000	na
100.510447	0.049995	116.000000	nontarget	10.000000	na
100.560442	0.049998	116.000000	nontarget	11.000000	na
100.610440	0.049996	116.000000	nontarget	12.000000	na
100.660436	0.049997	116.000000	nontarget	13.000000	na
100.710433	0.049998	116.000000	nontarget	14.000000	na
100.760431	0.049996	116.000000	nontarget	15.000000	na
100.810427	0.049997	116.000000	nontarget	16.000000	na
100.860424	0.049996	117.000000	nontarget	1.000000	na
100.910420	0.050001	117.000000	nontarget	2.000000	100.911473
100.960421	0.050034	117.000000	nontarget	3.000000	na
101.010455	0.049958	117.000000	nontarget	4.000000	na
101.060413	0.049998	117.000000	nontarget	5.000000	na
101.110410	0.049997	117.000000	nontarget	6.000000	na
101.160407	0.049995	117.000000	nontarget	7.000000	na
101.210403	0.049997	117.000000	nontarget	8.000000	na
101.260399	0.049999	117.000000	nontarget	9.000000	na
101.310399	0.049996	117.000000	nontarget	10.000000	na
101.360395	0.049996	117.000000	nontarget	11.000000	na
101.410391	0.049999	117.000000	nontarget	12.000000	na
101.460390	0.049997	117.000000	nontarget	13.000000	na
101.510387	0.049995	117.000000	nontarget	14.000000	na
101.560382	0.049999	117.000000	nontarget	15.000000	na
101.610380	0.049998	117.000000	nontarget	16.000000	na
101.660378	0.049996	118.000000	nontarget	1.000000	na
101.710374	0.049998	118.000000	nontarget	2.000000	na
101.760371	0.050000	118.000000	nontarget	3.000000	na
101.810371	0.049994	118.000000	nontarget	4.000000	101.811079
101.860365	0.049997	118.000000	nontarget	5.000000	na
101.910362	0.049998	118.000000	nontarget	6.000000	na
101.960360	0.050010	118.000000	nontarget	7.000000	na
102.010370	0.049982	118.000000	nontarget	8.000000	na
102.060352	0.049998	118.000000	nontarget	9.000000	na
102.110350	0.049996	118.000000	nontarget	10.000000	na
102.160345	0.049997	118.000000	nontarget	11.000000	na
102.210342	0.049998	118.000000	nontarget	12.000000	na
102.260340	0.049996	118.000000	nontarget	13.000000	na
102.310336	0.049997	118.000000	nontarget	14.000000	na
102.360334	0.049997	118.000000	nontarget	15.000000	na
102.410331	0.049996	118.000000	nontarget	16.000000	na
102.460326	0.050000	119.000000	nontarget	1.000000	na
102.510326	0.049998	119.000000	nontarget	2.000000	na
102.560324	0.049994	119.000000	nontarget	3.000000	102.561027
102.610319	0.049997	119.000000	nontarget	4.000000	na
102.660315	0.050000	119.000000	nontarget	5.000000	na
102.710315	0.049994	119.000000	nontarget	6.000000	na
102.760309	0.049998	119.000000	nontarget	7.000000	na
102.810307	0.049998	119.000000	nontarget	8.000000	na
102.860305	0.049996	119.000000	nontarget	9.000000	na
102.910301	0.049996	119.000000	nontarget	10.000000	na
102.960297	0.050002	119.000000	nontarget	11.000000	na
103.010299	0.049994	119.000000	nontarget	12.000000	na
103.060293	0.049997	119.000000	nontarget	13.000000	na
103.110289	0.049996	119.000000	nontarget	14.000000	na
103.160285	0.049996	119.000000	nontarget	15.000000	na
103.210282	0.049997	119.000000	nontarget	16.000000	na
103.260279	0.049999	120.000000	target	1.000000	na
103.310278	0.049996	120.000000	target	2.000000	na
103.360274	0.049997	120.000000	target	3.000000	na
103.410271	0.049997	120.000000	target	4.000000	na
103.460268	0.049997	120.000000	target	5.000000	na
103.510265	0.049996	120.000000	target	6.000000	na
103.560261	0.050000	120.000000	target	7.000000	na
103.610261	0.049994	120.000000	target	8.000000	na
103.660255	0.049999	120.000000	target	9.000000	na
103.710254	0.049998	120.000000	target	10.000000	na
103.760251	0.049996	120.000000	target	11.000000	na
103.810247	0.049996	120.000000	target	12.000000	na
103.860243	0.049996	120.000000	target	13.000000	na
103.910239	0.050001	120.000000	target	14.000000	na
103.960240	0.049996	120.000000	target	15.000000	na
104.010236	0.049998	120.000000	target	16.000000	104.035446
104.060234	0.049995	121.000000	nontarget	1.000000	104.060988
104.110229	0.049997	121.000000	nontarget	2.000000	na
104.160226	0.049997	121.000000	nontarget	3.000000	na
104.210223	0.049998	121.000000	nontarget	4.000000	na
104.260221	0.049996	121.000000	nontarget	5.000000	na
104.310218	0.049996	121.000000	nontarget	6.000000	na
104.360214	0.049998	121.000000	nontarget	7.000000	na
104.410212	0.049996	121.000000	nontarget	8.000000	na
