onset	duration	trial_number	stim_type	trial_type	accuracy	response_time
13.033524	1.000382	1.000000	scene	nontarget	correct	0.528516
14.033905	0.999410	1.000000	fixation	nontarget	na	na
15.033316	1.000380	2.000000	scene	nontarget	correct	0.491777
16.033696	0.999885	2.000000	fixation	nontarget	na	na
17.033581	1.000001	3.000000	scene	target	correct	 NaN
18.033582	1.000013	3.000000	fixation	target	na	na
19.033595	0.999188	4.000000	scene	target	correct	 NaN
20.032783	1.000796	4.000000	fixation	target	na	na
21.033579	0.999305	5.000000	scene	nontarget	correct	0.546139
22.032884	1.000414	5.000000	fixation	nontarget	na	na
23.033299	1.000304	6.000000	scene	nontarget	correct	0.700795
24.033603	0.999344	6.000000	fixation	nontarget	na	na
25.032948	1.000365	7.000000	scene	nontarget	correct	0.609788
26.033313	1.000323	7.000000	fixation	nontarget	na	na
27.033635	0.999292	8.000000	scene	nontarget	correct	0.579095
28.032927	1.000521	8.000000	fixation	nontarget	na	na
29.033448	0.999384	9.000000	scene	nontarget	correct	0.463952
30.032832	1.000563	9.000000	fixation	nontarget	na	na
31.033395	1.000313	10.000000	scene	nontarget	correct	0.576484
32.033707	0.999731	10.000000	fixation	nontarget	na	na
33.033438	0.999968	11.000000	scene	nontarget	correct	0.606455
34.033406	1.000004	11.000000	fixation	nontarget	na	na
35.033410	0.999366	12.000000	scene	nontarget	correct	0.524517
36.032776	1.000616	12.000000	fixation	nontarget	na	na
37.033391	0.999932	13.000000	scene	nontarget	correct	0.623200
38.033323	1.000256	13.000000	fixation	nontarget	na	na
39.033579	0.999686	14.000000	scene	nontarget	correct	0.547051
40.033265	1.000258	14.000000	fixation	nontarget	na	na
41.033523	0.999351	15.000000	scene	nontarget	correct	0.517173
42.032874	1.000396	15.000000	fixation	nontarget	na	na
43.033270	1.000262	16.000000	scene	nontarget	correct	0.572308
44.033532	0.999658	16.000000	fixation	nontarget	na	na
45.033190	0.999266	17.000000	scene	nontarget	correct	0.602020
46.032457	1.000077	17.000000	fixation	nontarget	na	na
47.032533	1.000202	18.000000	scene	nontarget	correct	0.491640
48.032735	1.000289	18.000000	fixation	nontarget	na	na
49.033025	1.000399	19.000000	scene	nontarget	correct	0.537115
50.033424	0.999382	19.000000	fixation	nontarget	na	na
51.032805	1.000705	20.000000	scene	nontarget	correct	0.654675
52.033510	0.999632	20.000000	fixation	nontarget	na	na
53.033142	1.000254	21.000000	scene	nontarget	correct	0.632073
54.033397	0.999689	21.000000	fixation	nontarget	na	na
55.033086	0.999053	22.000000	scene	nontarget	correct	0.812603
56.032139	1.000930	22.000000	fixation	nontarget	na	na
57.033069	0.999966	23.000000	scene	nontarget	correct	0.796643
58.033035	1.000007	23.000000	fixation	nontarget	na	na
59.033042	0.999098	24.000000	scene	nontarget	correct	0.714989
60.032140	1.000875	24.000000	fixation	nontarget	na	na
61.033015	0.999239	25.000000	scene	nontarget	correct	0.733560
62.032255	1.000704	25.000000	fixation	nontarget	na	na
63.032959	0.999957	26.000000	scene	nontarget	correct	0.511381
64.032916	0.999996	26.000000	fixation	nontarget	na	na
65.032912	0.999236	27.000000	scene	nontarget	correct	0.836264
66.032147	1.000344	27.000000	fixation	nontarget	na	na
67.032492	1.000391	28.000000	scene	nontarget	correct	0.734992
68.032883	1.000016	28.000000	fixation	nontarget	na	na
69.032899	0.999976	29.000000	scene	nontarget	correct	0.756603
70.032876	0.999987	29.000000	fixation	nontarget	na	na
71.032862	0.999956	30.000000	scene	nontarget	correct	0.710680
72.032818	1.000013	30.000000	fixation	nontarget	na	na
73.032831	0.999303	31.000000	scene	nontarget	correct	0.652078
74.032135	1.000678	31.000000	fixation	nontarget	na	na
75.032813	0.999953	32.000000	scene	nontarget	correct	0.724480
76.032766	0.999994	32.000000	fixation	nontarget	na	na
77.032760	0.999408	33.000000	scene	nontarget	incorrect	 NaN
78.032168	1.000578	33.000000	fixation	nontarget	na	na
79.032746	0.999415	34.000000	scene	nontarget	correct	0.329182
80.032160	1.000565	34.000000	fixation	nontarget	na	na
81.032725	0.999433	35.000000	scene	nontarget	correct	0.804324
82.032158	1.000014	35.000000	fixation	nontarget	na	na
83.032172	1.000490	36.000000	scene	target	correct	 NaN
84.032661	0.999519	36.000000	fixation	target	na	na
85.032180	0.999992	37.000000	scene	nontarget	correct	0.445795
86.032172	1.000021	37.000000	fixation	nontarget	na	na
87.032193	0.999977	38.000000	scene	nontarget	correct	0.839984
88.032170	1.000021	38.000000	fixation	nontarget	na	na
89.032191	1.000162	39.000000	scene	nontarget	correct	0.816839
90.032353	0.999834	39.000000	fixation	nontarget	na	na
91.032188	1.000314	40.000000	scene	nontarget	correct	0.834686
92.032502	0.999966	40.000000	fixation	nontarget	na	na
93.032468	0.999809	41.000000	scene	target	correct	 NaN
94.032277	0.999928	41.000000	fixation	target	na	na
95.032204	0.999980	42.000000	scene	nontarget	correct	0.375535
96.032185	1.000007	42.000000	fixation	nontarget	na	na
97.032192	0.999993	43.000000	scene	target	correct	 NaN
98.032185	1.000325	43.000000	fixation	target	na	na
99.032510	0.999669	44.000000	scene	nontarget	correct	0.344466
100.032179	1.000011	44.000000	fixation	nontarget	na	na
101.032190	0.999988	45.000000	scene	nontarget	correct	0.511301
102.032178	1.000036	45.000000	fixation	nontarget	na	na
103.032213	1.000351	46.000000	scene	nontarget	correct	0.734623
104.032564	0.999623	46.000000	fixation	nontarget	na	na
105.032187	1.000324	47.000000	scene	nontarget	correct	0.809072
106.032511	0.999744	47.000000	fixation	nontarget	na	na
107.032254	0.999984	48.000000	scene	nontarget	correct	0.749872
108.032238	1.000022	48.000000	fixation	nontarget	na	na
109.032260	0.999294	49.000000	scene	nontarget	correct	0.558374
110.031554	1.000702	49.000000	fixation	nontarget	na	na
111.032256	0.999305	50.000000	scene	nontarget	correct	0.553177
112.031561	1.000668	50.000000	fixation	nontarget	na	na
113.032230	0.999974	51.000000	scene	nontarget	correct	0.514906
114.032204	1.000020	51.000000	fixation	nontarget	na	na
115.032223	0.999250	52.000000	scene	nontarget	correct	0.555900
116.031474	1.000707	52.000000	fixation	nontarget	na	na
117.032181	0.999316	53.000000	scene	nontarget	correct	0.628856
118.031496	1.000672	53.000000	fixation	nontarget	na	na
119.032168	0.999979	54.000000	scene	nontarget	correct	0.690359
120.032147	0.999957	54.000000	fixation	nontarget	na	na
121.032104	0.999991	55.000000	scene	nontarget	correct	0.805045
122.032095	1.000012	55.000000	fixation	nontarget	na	na
123.032107	0.999955	56.000000	scene	nontarget	correct	0.563029
124.032062	1.000016	56.000000	fixation	nontarget	na	na
125.032078	0.999388	57.000000	scene	nontarget	correct	0.609643
126.031466	1.000579	57.000000	fixation	nontarget	na	na
127.032045	0.999400	58.000000	scene	nontarget	correct	0.754626
128.031444	1.000350	58.000000	fixation	nontarget	na	na
129.031794	1.000332	59.000000	scene	nontarget	correct	0.611693
130.032126	0.999853	59.000000	fixation	nontarget	na	na
131.031979	1.000229	60.000000	scene	nontarget	correct	0.601950
132.032208	0.999735	60.000000	fixation	nontarget	na	na
133.031943	0.999373	61.000000	scene	nontarget	correct	0.694378
134.031316	1.000609	61.000000	fixation	nontarget	na	na
135.031925	0.999945	62.000000	scene	nontarget	correct	0.629767
136.031870	1.000018	62.000000	fixation	nontarget	na	na
137.031888	0.999972	63.000000	scene	nontarget	correct	0.703262
138.031860	1.000023	63.000000	fixation	nontarget	na	na
139.031883	0.999959	64.000000	scene	target	correct	 NaN
140.031843	1.000014	64.000000	fixation	target	na	na
141.031856	0.999967	65.000000	scene	nontarget	correct	0.398392
142.031823	0.999375	65.000000	fixation	nontarget	na	na
143.031199	1.000577	66.000000	scene	nontarget	correct	0.826697
144.031775	1.000017	66.000000	fixation	nontarget	na	na
145.031792	0.999233	67.000000	scene	nontarget	correct	0.842906
146.031025	1.000413	67.000000	fixation	nontarget	na	na
147.031438	1.000274	68.000000	scene	nontarget	correct	0.860099
148.031712	0.999369	68.000000	fixation	nontarget	na	na
149.031082	1.000614	69.000000	scene	nontarget	correct	0.640104
150.031696	1.000000	69.000000	fixation	nontarget	na	na
151.031696	0.999973	70.000000	scene	nontarget	correct	0.682680
152.031669	1.000011	70.000000	fixation	nontarget	na	na
153.031680	0.999940	71.000000	scene	nontarget	correct	0.696277
154.031621	1.000003	71.000000	fixation	nontarget	na	na
155.031624	0.999359	72.000000	scene	nontarget	correct	0.598829
156.030983	1.000625	72.000000	fixation	nontarget	na	na
157.031609	0.999968	73.000000	scene	nontarget	correct	0.651262
158.031576	1.000010	73.000000	fixation	nontarget	na	na
159.031587	0.999353	74.000000	scene	nontarget	correct	0.630959
160.030939	1.000622	74.000000	fixation	nontarget	na	na
161.031561	0.999456	75.000000	scene	target	incorrect	0.950208
162.031017	1.000521	75.000000	fixation	target	na	na
163.031538	0.999456	76.000000	scene	nontarget	correct	0.691286
164.030994	1.000513	76.000000	fixation	nontarget	na	na
165.031507	1.000073	77.000000	scene	nontarget	correct	0.672731
166.031580	1.000017	77.000000	fixation	nontarget	na	na
167.031597	0.999478	78.000000	scene	nontarget	correct	0.687533
168.031075	1.000506	78.000000	fixation	nontarget	na	na
169.031581	0.999461	79.000000	scene	nontarget	correct	0.567610
170.031042	1.000507	79.000000	fixation	nontarget	na	na
171.031549	1.000009	80.000000	scene	nontarget	correct	0.542435
172.031559	1.000007	80.000000	fixation	nontarget	na	na
173.031566	0.999477	81.000000	scene	nontarget	correct	0.711844
174.031044	1.000508	81.000000	fixation	nontarget	na	na
175.031552	0.999413	82.000000	scene	nontarget	correct	0.598014
176.030965	1.000531	82.000000	fixation	nontarget	na	na
177.031496	0.999429	83.000000	scene	nontarget	correct	0.718903
178.030925	1.000510	83.000000	fixation	nontarget	na	na
179.031434	1.000019	84.000000	scene	nontarget	incorrect	 NaN
180.031453	0.999991	84.000000	fixation	nontarget	na	na
181.031444	0.999961	85.000000	scene	nontarget	correct	0.256744
182.031405	1.000018	85.000000	fixation	nontarget	na	na
183.031424	0.999958	86.000000	scene	nontarget	correct	0.494287
184.031382	1.000028	86.000000	fixation	nontarget	na	na
185.031410	0.999970	87.000000	scene	target	correct	 NaN
186.031380	0.999949	87.000000	fixation	target	na	na
187.031329	0.999509	88.000000	scene	nontarget	correct	0.431805
188.030838	1.000478	88.000000	fixation	nontarget	na	na
189.031316	0.999971	89.000000	scene	target	correct	 NaN
190.031287	0.999988	89.000000	fixation	target	na	na
191.031275	0.999972	90.000000	scene	nontarget	correct	0.659924
192.031247	5.999763	90.000000	fixation	nontarget	na	na
198.031010	1.000502	91.000000	face	nontarget	correct	0.638739
199.031512	0.999623	91.000000	fixation	nontarget	na	na
200.031135	0.999985	92.000000	face	nontarget	correct	0.472206
201.031119	0.999987	92.000000	fixation	nontarget	na	na
202.031106	0.999966	93.000000	face	nontarget	correct	0.573410
203.031072	0.999990	93.000000	fixation	nontarget	na	na
204.031063	0.999989	94.000000	face	target	correct	 NaN
205.031052	0.999994	94.000000	fixation	target	na	na
206.031046	0.999952	95.000000	face	nontarget	correct	0.565559
207.030998	1.000013	95.000000	fixation	nontarget	na	na
208.031011	0.999972	96.000000	face	nontarget	correct	0.741766
209.030984	0.999991	96.000000	fixation	nontarget	na	na
210.030975	0.999990	97.000000	face	nontarget	correct	0.550338
211.030965	0.999966	97.000000	fixation	nontarget	na	na
212.030931	0.999339	98.000000	face	nontarget	correct	0.619315
213.030270	1.000491	98.000000	fixation	nontarget	na	na
214.030761	1.000133	99.000000	face	nontarget	correct	0.637278
215.030894	0.999999	99.000000	fixation	nontarget	na	na
216.030893	1.000012	100.000000	face	nontarget	correct	0.645798
217.030905	0.999983	100.000000	fixation	nontarget	na	na
218.030888	0.999996	101.000000	face	target	correct	 NaN
219.030884	0.999998	101.000000	fixation	target	na	na
220.030881	0.999990	102.000000	face	nontarget	correct	0.781461
221.030871	0.999995	102.000000	fixation	nontarget	na	na
222.030866	0.999980	103.000000	face	nontarget	correct	0.817841
223.030845	0.999994	103.000000	fixation	nontarget	na	na
224.030839	0.999967	104.000000	face	nontarget	correct	0.612670
225.030807	0.999984	104.000000	fixation	nontarget	na	na
226.030791	0.999349	105.000000	face	nontarget	correct	0.570920
227.030140	1.000491	105.000000	fixation	nontarget	na	na
228.030631	0.999080	106.000000	face	nontarget	correct	0.856516
229.029711	1.000985	106.000000	fixation	nontarget	na	na
230.030695	0.999963	107.000000	face	target	incorrect	0.594921
231.030659	1.000020	107.000000	fixation	target	na	na
232.030679	0.999988	108.000000	face	nontarget	correct	0.515108
233.030666	0.999975	108.000000	fixation	nontarget	na	na
234.030642	0.999354	109.000000	face	nontarget	correct	0.532786
235.029996	1.000475	109.000000	fixation	nontarget	na	na
236.030471	0.999357	110.000000	face	nontarget	correct	0.605750
237.029829	1.000810	110.000000	fixation	nontarget	na	na
238.030639	0.999274	111.000000	face	nontarget	incorrect	 NaN
239.029913	1.000686	111.000000	fixation	nontarget	na	na
240.030599	0.999891	112.000000	face	nontarget	correct	0.383930
241.030490	1.000066	112.000000	fixation	nontarget	na	na
242.030557	0.999981	113.000000	face	nontarget	correct	0.601823
243.030538	0.999348	113.000000	fixation	nontarget	na	na
244.029885	1.000349	114.000000	face	nontarget	correct	0.568805
245.030234	1.000506	114.000000	fixation	nontarget	na	na
246.030740	0.999590	115.000000	face	nontarget	correct	0.514043
247.030331	0.999613	115.000000	fixation	nontarget	na	na
248.029944	1.000415	116.000000	face	nontarget	correct	0.698852
249.030360	0.999554	116.000000	fixation	nontarget	na	na
250.029914	1.000111	117.000000	face	nontarget	correct	0.586131
251.030024	1.000510	117.000000	fixation	nontarget	na	na
252.030535	0.999754	118.000000	face	nontarget	correct	0.547944
253.030288	1.000005	118.000000	fixation	nontarget	na	na
254.030293	0.999335	119.000000	face	nontarget	correct	0.745765
255.029628	1.000626	119.000000	fixation	nontarget	na	na
256.030253	1.000004	120.000000	face	nontarget	correct	0.583380
257.030257	0.999985	120.000000	fixation	nontarget	na	na
258.030242	0.999982	121.000000	face	nontarget	incorrect	 NaN
259.030225	0.999376	121.000000	fixation	nontarget	na	na
260.029601	1.000374	122.000000	face	nontarget	correct	0.569656
261.029975	1.000391	122.000000	fixation	nontarget	na	na
262.030366	0.999724	123.000000	face	nontarget	correct	0.715932
263.030091	0.999898	123.000000	fixation	nontarget	na	na
264.029989	0.999982	124.000000	face	nontarget	correct	0.627291
265.029971	1.000394	124.000000	fixation	nontarget	na	na
266.030365	0.999383	125.000000	face	nontarget	correct	0.580895
267.029749	1.000360	125.000000	fixation	nontarget	na	na
268.030109	0.999352	126.000000	face	nontarget	correct	0.661487
269.029461	1.000378	126.000000	fixation	nontarget	na	na
270.029839	1.000367	127.000000	face	nontarget	correct	0.819775
271.030206	0.999662	127.000000	fixation	nontarget	na	na
272.029867	1.000032	128.000000	face	nontarget	correct	0.717579
273.029900	0.999983	128.000000	fixation	nontarget	na	na
274.029883	1.000070	129.000000	face	nontarget	correct	0.671232
275.029953	0.999805	129.000000	fixation	nontarget	na	na
276.029758	1.000155	130.000000	face	target	correct	 NaN
277.029913	1.000010	130.000000	fixation	target	na	na
278.029923	1.000021	131.000000	face	nontarget	correct	0.336071
279.029944	0.999940	131.000000	fixation	nontarget	na	na
280.029884	1.000000	132.000000	face	nontarget	correct	0.460988
281.029883	1.000001	132.000000	fixation	nontarget	na	na
282.029884	0.999968	133.000000	face	nontarget	correct	0.558195
283.029853	0.999984	133.000000	fixation	nontarget	na	na
284.029837	0.999909	134.000000	face	nontarget	correct	0.646031
285.029746	1.000067	134.000000	fixation	nontarget	na	na
286.029813	0.999273	135.000000	face	nontarget	correct	0.714443
287.029086	1.000694	135.000000	fixation	nontarget	na	na
288.029779	0.999317	136.000000	face	nontarget	correct	0.623760
289.029096	1.000639	136.000000	fixation	nontarget	na	na
290.029735	1.000378	137.000000	face	nontarget	correct	0.653613
291.030113	0.999604	137.000000	fixation	nontarget	na	na
292.029717	1.000369	138.000000	face	nontarget	correct	0.616982
293.030086	0.999631	138.000000	fixation	nontarget	na	na
294.029716	1.000361	139.000000	face	nontarget	correct	0.902694
295.030077	0.999893	139.000000	fixation	nontarget	na	na
296.029970	0.999644	140.000000	face	target	correct	 NaN
297.029614	1.000019	140.000000	fixation	target	na	na
298.029633	0.999960	141.000000	face	nontarget	correct	0.308942
299.029593	1.000016	141.000000	fixation	nontarget	na	na
300.029609	1.000361	142.000000	face	target	incorrect	0.427876
301.029970	0.999613	142.000000	fixation	target	na	na
302.029582	1.000372	143.000000	face	nontarget	correct	0.413752
303.029954	0.999604	143.000000	fixation	nontarget	na	na
304.029559	1.000350	144.000000	face	nontarget	correct	0.618834
305.029909	0.999597	144.000000	fixation	nontarget	na	na
306.029506	0.999942	145.000000	face	target	correct	 NaN
307.029448	1.000301	145.000000	fixation	target	na	na
308.029749	0.998989	146.000000	face	nontarget	correct	0.297301
309.028738	1.001007	146.000000	fixation	nontarget	na	na
310.029745	1.000077	147.000000	face	nontarget	correct	0.540913
311.029822	1.000041	147.000000	fixation	nontarget	na	na
312.029863	0.999999	148.000000	face	nontarget	correct	0.537133
313.029862	0.998983	148.000000	fixation	nontarget	na	na
314.028845	1.001060	149.000000	face	nontarget	correct	0.616357
315.029905	0.999316	149.000000	fixation	nontarget	na	na
316.029221	0.999411	150.000000	face	nontarget	correct	0.766132
317.028632	1.000045	150.000000	fixation	nontarget	na	na
318.028677	0.999959	151.000000	face	nontarget	correct	0.717005
319.028636	1.000035	151.000000	fixation	nontarget	na	na
320.028672	1.000338	152.000000	face	nontarget	correct	0.745687
321.029009	0.999672	152.000000	fixation	nontarget	na	na
322.028681	1.000022	153.000000	face	nontarget	correct	0.598871
323.028703	1.000003	153.000000	fixation	nontarget	na	na
324.028706	0.999999	154.000000	face	nontarget	correct	0.817062
325.028705	1.000337	154.000000	fixation	nontarget	na	na
326.029042	0.999642	155.000000	face	nontarget	incorrect	 NaN
327.028684	1.000001	155.000000	fixation	nontarget	na	na
328.028685	1.000098	156.000000	face	nontarget	correct	0.210455
329.028783	1.000063	156.000000	fixation	nontarget	na	na
330.028846	0.999972	157.000000	face	nontarget	correct	0.455727
331.028818	0.999859	157.000000	fixation	nontarget	na	na
332.028677	0.999994	158.000000	face	nontarget	correct	0.636875
333.028671	1.000090	158.000000	fixation	nontarget	na	na
334.028761	1.000123	159.000000	face	nontarget	correct	0.604944
335.028884	0.999706	159.000000	fixation	nontarget	na	na
336.028590	1.000030	160.000000	face	target	correct	 NaN
337.028620	1.000075	160.000000	fixation	target	na	na
338.028694	1.000086	161.000000	face	nontarget	correct	0.300368
339.028781	0.999911	161.000000	fixation	nontarget	na	na
340.028692	1.000074	162.000000	face	nontarget	correct	0.411669
341.028765	0.999926	162.000000	fixation	nontarget	na	na
342.028691	1.000323	163.000000	face	nontarget	correct	0.643458
343.029015	0.999701	163.000000	fixation	nontarget	na	na
344.028715	1.000117	164.000000	face	nontarget	correct	0.809995
345.028832	1.000029	164.000000	fixation	nontarget	na	na
346.028861	0.999889	165.000000	face	nontarget	correct	0.581716
347.028750	0.999971	165.000000	fixation	nontarget	na	na
348.028720	1.000346	166.000000	face	nontarget	correct	0.713949
349.029066	0.999465	166.000000	fixation	nontarget	na	na
350.028531	1.000252	167.000000	face	nontarget	correct	0.757688
351.028783	1.000339	167.000000	fixation	nontarget	na	na
352.029122	0.999504	168.000000	face	nontarget	correct	0.683244
353.028626	1.000064	168.000000	fixation	nontarget	na	na
354.028691	1.000336	169.000000	face	nontarget	correct	0.657680
355.029027	0.999502	169.000000	fixation	nontarget	na	na
356.028529	1.000261	170.000000	face	nontarget	correct	0.779090
357.028790	1.000286	170.000000	fixation	nontarget	na	na
358.029076	0.999498	171.000000	face	nontarget	correct	0.762744
359.028574	1.000129	171.000000	fixation	nontarget	na	na
360.028703	1.000074	172.000000	face	nontarget	correct	0.676146
361.028778	0.999923	172.000000	fixation	nontarget	na	na
362.028700	0.999964	173.000000	face	nontarget	correct	0.783836
363.028664	1.000069	173.000000	fixation	nontarget	na	na
364.028734	1.000222	174.000000	face	nontarget	correct	0.735488
365.028956	0.999396	174.000000	fixation	nontarget	na	na
366.028352	1.000297	175.000000	face	nontarget	correct	0.708444
367.028649	1.000054	175.000000	fixation	nontarget	na	na
368.028702	0.999339	176.000000	face	target	incorrect	0.740882
369.028042	1.000687	176.000000	fixation	target	na	na
370.028729	1.000050	177.000000	face	nontarget	correct	0.725687
371.028779	0.999374	177.000000	fixation	nontarget	na	na
372.028154	1.000018	178.000000	face	nontarget	correct	0.682840
373.028172	1.000288	178.000000	fixation	nontarget	na	na
374.028459	1.000226	179.000000	face	nontarget	correct	0.662697
375.028685	0.999256	179.000000	fixation	nontarget	na	na
376.027941	1.000445	180.000000	face	nontarget	correct	0.729673
377.028385	0.970413	180.000000	fixation	nontarget	na	na
