onset	duration	trial_number	trial_type	frame_number	time_of_response
8.057041	0.049934	1.000000	target	1.000000	na
8.106975	0.049416	1.000000	target	2.000000	na
8.156391	0.050447	1.000000	target	3.000000	na
8.206838	0.049593	1.000000	target	4.000000	na
8.256431	0.050159	1.000000	target	5.000000	na
8.306590	0.050259	1.000000	target	6.000000	na
8.356850	0.049123	1.000000	target	7.000000	na
8.405973	0.050708	1.000000	target	8.000000	8.432944
8.456680	0.050071	1.000000	target	9.000000	na
8.506751	0.049973	1.000000	target	10.000000	na
8.556724	0.049895	1.000000	target	11.000000	na
8.606619	0.049824	1.000000	target	12.000000	na
8.656443	0.050005	1.000000	target	13.000000	na
8.706448	0.049360	1.000000	target	14.000000	na
8.755808	0.039799	1.000000	target	15.000000	na
8.795607	0.044272	1.000000	target	16.000000	na
8.839879	0.049791	2.000000	target	1.000000	na
8.889670	0.050217	2.000000	target	2.000000	na
8.939887	0.049959	2.000000	target	3.000000	na
8.989846	0.039121	2.000000	target	4.000000	na
9.028967	0.043667	2.000000	target	5.000000	na
9.072634	0.050818	2.000000	target	6.000000	na
9.123452	0.049819	2.000000	target	7.000000	na
9.173270	0.049345	2.000000	target	8.000000	na
9.222615	0.040052	2.000000	target	9.000000	na
9.262667	0.043776	2.000000	target	10.000000	na
9.306443	0.039303	2.000000	target	11.000000	na
9.345746	0.044265	2.000000	target	12.000000	na
9.390011	0.049930	2.000000	target	13.000000	na
9.439941	0.049941	2.000000	target	14.000000	na
9.489882	0.049849	2.000000	target	15.000000	na
9.539731	0.049812	2.000000	target	16.000000	9.563450
9.589543	0.040291	3.000000	nontarget	1.000000	9.596237
9.629834	0.042455	3.000000	nontarget	2.000000	na
9.672289	0.050768	3.000000	nontarget	3.000000	na
9.723057	0.050476	3.000000	nontarget	4.000000	na
9.773533	0.049144	3.000000	nontarget	5.000000	na
9.822677	0.050833	3.000000	nontarget	6.000000	na
9.873510	0.049783	3.000000	nontarget	7.000000	na
9.923292	0.050041	3.000000	nontarget	8.000000	na
9.973333	0.049847	3.000000	nontarget	9.000000	na
10.023181	0.050010	3.000000	nontarget	10.000000	na
10.073191	0.050050	3.000000	nontarget	11.000000	na
10.123240	0.049459	3.000000	nontarget	12.000000	na
10.172699	0.049870	3.000000	nontarget	13.000000	na
10.222569	0.050890	3.000000	nontarget	14.000000	na
10.273459	0.049887	3.000000	nontarget	15.000000	na
10.323345	0.042467	3.000000	nontarget	16.000000	10.354510
10.365812	0.047029	4.000000	nontarget	1.000000	10.371554
10.412842	0.043651	4.000000	nontarget	2.000000	na
10.456493	0.049925	4.000000	nontarget	3.000000	na
10.506417	0.049785	4.000000	nontarget	4.000000	na
10.556202	0.050523	4.000000	nontarget	5.000000	na
10.606725	0.049915	4.000000	nontarget	6.000000	na
10.656640	0.050116	4.000000	nontarget	7.000000	na
10.706756	0.049795	4.000000	nontarget	8.000000	na
10.756552	0.050052	4.000000	nontarget	9.000000	na
10.806603	0.049292	4.000000	nontarget	10.000000	na
10.855895	0.050875	4.000000	nontarget	11.000000	na
10.906771	0.049494	4.000000	nontarget	12.000000	na
10.956264	0.049620	4.000000	nontarget	13.000000	na
11.005885	0.050836	4.000000	nontarget	14.000000	na
11.056721	0.049584	4.000000	nontarget	15.000000	11.084873
11.106305	0.050281	4.000000	nontarget	16.000000	na
11.156587	0.049948	5.000000	nontarget	1.000000	11.163484
11.206534	0.049331	5.000000	nontarget	2.000000	na
11.255865	0.050583	5.000000	nontarget	3.000000	na
11.306449	0.050092	5.000000	nontarget	4.000000	na
11.356541	0.049970	5.000000	nontarget	5.000000	na
11.406510	0.049928	5.000000	nontarget	6.000000	na
11.456439	0.049922	5.000000	nontarget	7.000000	na
11.506360	0.049832	5.000000	nontarget	8.000000	na
11.556193	0.050365	5.000000	nontarget	9.000000	na
11.606557	0.049972	5.000000	nontarget	10.000000	na
11.656529	0.050019	5.000000	nontarget	11.000000	na
11.706548	0.050178	5.000000	nontarget	12.000000	na
11.756726	0.049824	5.000000	nontarget	13.000000	na
11.806550	0.049701	5.000000	nontarget	14.000000	na
11.856251	0.050580	5.000000	nontarget	15.000000	11.862873
11.906831	0.050027	5.000000	nontarget	16.000000	na
11.956857	0.049614	6.000000	nontarget	1.000000	11.963459
12.006472	0.050003	6.000000	nontarget	2.000000	na
12.056475	0.049983	6.000000	nontarget	3.000000	na
12.106458	0.050360	6.000000	nontarget	4.000000	na
12.156818	0.049674	6.000000	nontarget	5.000000	na
12.206492	0.050038	6.000000	nontarget	6.000000	na
12.256530	0.049885	6.000000	nontarget	7.000000	na
12.306416	0.050176	6.000000	nontarget	8.000000	na
12.356592	0.050019	6.000000	nontarget	9.000000	na
12.406611	0.049896	6.000000	nontarget	10.000000	na
12.456507	0.049666	6.000000	nontarget	11.000000	na
12.506174	0.050232	6.000000	nontarget	12.000000	na
12.556406	0.050404	6.000000	nontarget	13.000000	na
12.606809	0.049532	6.000000	nontarget	14.000000	na
12.656342	0.050205	6.000000	nontarget	15.000000	na
12.706547	0.049057	6.000000	nontarget	16.000000	na
12.755604	0.050986	7.000000	nontarget	1.000000	12.763061
12.806590	0.049480	7.000000	nontarget	2.000000	na
12.856070	0.039890	7.000000	nontarget	3.000000	na
12.895959	0.042946	7.000000	nontarget	4.000000	na
12.938905	0.050816	7.000000	nontarget	5.000000	na
12.989721	0.050291	7.000000	nontarget	6.000000	na
13.040013	0.049705	7.000000	nontarget	7.000000	na
13.089717	0.049540	7.000000	nontarget	8.000000	na
13.139257	0.039909	7.000000	nontarget	9.000000	na
13.179166	0.044367	7.000000	nontarget	10.000000	na
13.223532	0.049644	7.000000	nontarget	11.000000	na
13.273176	0.050072	7.000000	nontarget	12.000000	na
13.323248	0.050018	7.000000	nontarget	13.000000	na
13.373265	0.050080	7.000000	nontarget	14.000000	na
13.423345	0.049814	7.000000	nontarget	15.000000	na
13.473159	0.050419	7.000000	nontarget	16.000000	na
13.523578	0.049329	8.000000	nontarget	1.000000	na
13.572908	0.049503	8.000000	nontarget	2.000000	na
13.622410	0.050290	8.000000	nontarget	3.000000	13.629797
13.672700	0.050568	8.000000	nontarget	4.000000	na
13.723268	0.049615	8.000000	nontarget	5.000000	na
13.772883	0.049984	8.000000	nontarget	6.000000	na
13.822868	0.050345	8.000000	nontarget	7.000000	na
13.873212	0.049956	8.000000	nontarget	8.000000	na
13.923168	0.050118	8.000000	nontarget	9.000000	na
13.973286	0.039730	8.000000	nontarget	10.000000	na
14.013016	0.043667	8.000000	nontarget	11.000000	na
14.056684	0.038794	8.000000	nontarget	12.000000	na
14.095478	0.043279	8.000000	nontarget	13.000000	na
14.138756	0.051457	8.000000	nontarget	14.000000	na
14.190213	0.049593	8.000000	nontarget	15.000000	na
14.239807	0.049551	8.000000	nontarget	16.000000	na
14.289358	0.039781	9.000000	nontarget	1.000000	na
14.329139	0.044086	9.000000	nontarget	2.000000	na
14.373225	0.049421	9.000000	nontarget	3.000000	na
14.422645	0.039879	9.000000	nontarget	4.000000	na
14.462524	0.043345	9.000000	nontarget	5.000000	na
14.505869	0.040260	9.000000	nontarget	6.000000	na
14.546129	0.043616	9.000000	nontarget	7.000000	14.563853
14.589745	0.050024	9.000000	nontarget	8.000000	na
14.639770	0.050034	9.000000	nontarget	9.000000	na
14.689803	0.049521	9.000000	nontarget	10.000000	na
14.739324	0.050191	9.000000	nontarget	11.000000	na
14.789515	0.049605	9.000000	nontarget	12.000000	na
14.839120	0.050706	9.000000	nontarget	13.000000	na
14.889826	0.049933	9.000000	nontarget	14.000000	na
14.939759	0.049807	9.000000	nontarget	15.000000	na
14.989566	0.050191	9.000000	nontarget	16.000000	na
15.039757	0.049361	10.000000	nontarget	1.000000	na
15.089118	0.050430	10.000000	nontarget	2.000000	na
15.139549	0.050222	10.000000	nontarget	3.000000	na
15.189770	0.050065	10.000000	nontarget	4.000000	na
15.239836	0.050007	10.000000	nontarget	5.000000	na
15.289842	0.050185	10.000000	nontarget	6.000000	15.317002
15.340028	0.049813	10.000000	nontarget	7.000000	na
15.389841	0.050112	10.000000	nontarget	8.000000	na
15.439953	0.049890	10.000000	nontarget	9.000000	na
15.489842	0.049902	10.000000	nontarget	10.000000	na
15.539744	0.050283	10.000000	nontarget	11.000000	na
15.590027	0.049413	10.000000	nontarget	12.000000	na
15.639441	0.050207	10.000000	nontarget	13.000000	na
15.689648	0.050132	10.000000	nontarget	14.000000	na
15.739780	0.049988	10.000000	nontarget	15.000000	na
15.789767	0.050034	10.000000	nontarget	16.000000	na
15.839802	0.049924	11.000000	nontarget	1.000000	na
15.889726	0.049511	11.000000	nontarget	2.000000	na
15.939238	0.039807	11.000000	nontarget	3.000000	na
15.979045	0.043251	11.000000	nontarget	4.000000	na
16.022296	0.050768	11.000000	nontarget	5.000000	na
16.073064	0.049708	11.000000	nontarget	6.000000	16.079673
16.122772	0.050430	11.000000	nontarget	7.000000	na
16.173202	0.048958	11.000000	nontarget	8.000000	na
16.222160	0.050830	11.000000	nontarget	9.000000	na
16.272990	0.049418	11.000000	nontarget	10.000000	na
16.322408	0.039870	11.000000	nontarget	11.000000	na
16.362278	0.043108	11.000000	nontarget	12.000000	na
16.405387	0.051117	11.000000	nontarget	13.000000	na
16.456503	0.049720	11.000000	nontarget	14.000000	na
16.506223	0.050160	11.000000	nontarget	15.000000	na
16.556383	0.049943	11.000000	nontarget	16.000000	na
16.606326	0.050127	12.000000	nontarget	1.000000	na
16.656454	0.049956	12.000000	nontarget	2.000000	na
16.706409	0.050191	12.000000	nontarget	3.000000	na
16.756600	0.049129	12.000000	nontarget	4.000000	16.772319
16.805729	0.050202	12.000000	nontarget	5.000000	na
16.855931	0.039864	12.000000	nontarget	6.000000	na
16.895796	0.043605	12.000000	nontarget	7.000000	na
16.939400	0.050251	12.000000	nontarget	8.000000	na
16.989651	0.049936	12.000000	nontarget	9.000000	na
17.039587	0.049608	12.000000	nontarget	10.000000	na
17.089195	0.039865	12.000000	nontarget	11.000000	na
17.129060	0.043355	12.000000	nontarget	12.000000	na
17.172415	0.050694	12.000000	nontarget	13.000000	na
17.223109	0.049597	12.000000	nontarget	14.000000	na
17.272706	0.050404	12.000000	nontarget	15.000000	na
17.323110	0.049918	12.000000	nontarget	16.000000	na
17.373028	0.050296	13.000000	nontarget	1.000000	17.407967
17.423324	0.049835	13.000000	nontarget	2.000000	na
17.473159	0.050164	13.000000	nontarget	3.000000	na
17.523323	0.049695	13.000000	nontarget	4.000000	na
17.573018	0.049734	13.000000	nontarget	5.000000	na
17.622752	0.050218	13.000000	nontarget	6.000000	na
17.672970	0.049991	13.000000	nontarget	7.000000	na
17.722961	0.050243	13.000000	nontarget	8.000000	na
17.773204	0.049819	13.000000	nontarget	9.000000	na
17.823024	0.050061	13.000000	nontarget	10.000000	na
17.873084	0.050066	13.000000	nontarget	11.000000	na
17.923150	0.049942	13.000000	nontarget	12.000000	na
17.973092	0.050242	13.000000	nontarget	13.000000	na
18.023334	0.049083	13.000000	nontarget	14.000000	na
18.072417	0.039795	13.000000	nontarget	15.000000	na
18.112213	0.043959	13.000000	nontarget	16.000000	18.136153
18.156172	0.050375	14.000000	nontarget	1.000000	18.162079
18.206547	0.049745	14.000000	nontarget	2.000000	na
18.256292	0.050288	14.000000	nontarget	3.000000	na
18.306580	0.049883	14.000000	nontarget	4.000000	na
18.356464	0.049881	14.000000	nontarget	5.000000	na
18.406344	0.049845	14.000000	nontarget	6.000000	na
18.456190	0.050420	14.000000	nontarget	7.000000	na
18.506609	0.049848	14.000000	nontarget	8.000000	na
18.556457	0.049599	14.000000	nontarget	9.000000	na
18.606056	0.050315	14.000000	nontarget	10.000000	na
18.656371	0.049806	14.000000	nontarget	11.000000	na
18.706177	0.050209	14.000000	nontarget	12.000000	na
18.756386	0.050104	14.000000	nontarget	13.000000	na
18.806490	0.049433	14.000000	nontarget	14.000000	na
18.855923	0.050555	14.000000	nontarget	15.000000	na
18.906478	0.050106	14.000000	nontarget	16.000000	18.913837
18.956584	0.050149	15.000000	nontarget	1.000000	18.963494
19.006733	0.049175	15.000000	nontarget	2.000000	na
19.055908	0.050519	15.000000	nontarget	3.000000	na
19.106428	0.050097	15.000000	nontarget	4.000000	na
19.156525	0.050064	15.000000	nontarget	5.000000	na
19.206589	0.049431	15.000000	nontarget	6.000000	na
19.256020	0.050415	15.000000	nontarget	7.000000	na
19.306435	0.049871	15.000000	nontarget	8.000000	na
19.356305	0.050176	15.000000	nontarget	9.000000	na
19.406482	0.050135	15.000000	nontarget	10.000000	na
19.456616	0.049244	15.000000	nontarget	11.000000	na
19.505861	0.050206	15.000000	nontarget	12.000000	na
19.556067	0.050319	15.000000	nontarget	13.000000	na
19.606385	0.050058	15.000000	nontarget	14.000000	na
19.656443	0.054031	15.000000	nontarget	15.000000	na
19.710474	0.045836	15.000000	nontarget	16.000000	na
19.756310	0.039111	16.000000	nontarget	1.000000	19.763134
19.795421	0.043324	16.000000	nontarget	2.000000	na
19.838745	0.050924	16.000000	nontarget	3.000000	na
19.889669	0.049761	16.000000	nontarget	4.000000	na
19.939429	0.049909	16.000000	nontarget	5.000000	na
19.989339	0.050061	16.000000	nontarget	6.000000	na
20.039400	0.050554	16.000000	nontarget	7.000000	na
20.089954	0.049777	16.000000	nontarget	8.000000	na
20.139730	0.050026	16.000000	nontarget	9.000000	na
20.189757	0.049963	16.000000	nontarget	10.000000	na
20.239720	0.049492	16.000000	nontarget	11.000000	na
20.289211	0.039780	16.000000	nontarget	12.000000	na
20.328992	0.042922	16.000000	nontarget	13.000000	na
20.371914	0.051176	16.000000	nontarget	14.000000	na
20.423089	0.049339	16.000000	nontarget	15.000000	na
20.472428	0.053924	16.000000	nontarget	16.000000	na
20.526352	0.046145	17.000000	nontarget	1.000000	20.531954
20.572498	0.050701	17.000000	nontarget	2.000000	na
20.623199	0.049853	17.000000	nontarget	3.000000	na
20.673051	0.050032	17.000000	nontarget	4.000000	na
20.723084	0.049968	17.000000	nontarget	5.000000	na
20.773052	0.049514	17.000000	nontarget	6.000000	na
20.822565	0.050355	17.000000	nontarget	7.000000	na
20.872920	0.050128	17.000000	nontarget	8.000000	na
20.923048	0.049982	17.000000	nontarget	9.000000	na
20.973029	0.049624	17.000000	nontarget	10.000000	na
21.022653	0.050455	17.000000	nontarget	11.000000	na
21.073108	0.049883	17.000000	nontarget	12.000000	na
21.122991	0.049784	17.000000	nontarget	13.000000	na
21.172775	0.050114	17.000000	nontarget	14.000000	na
21.222890	0.049684	17.000000	nontarget	15.000000	na
21.272573	0.050717	17.000000	nontarget	16.000000	na
21.323290	0.049469	18.000000	nontarget	1.000000	na
21.372760	0.050201	18.000000	nontarget	2.000000	21.406866
21.422960	0.050101	18.000000	nontarget	3.000000	na
21.473061	0.049991	18.000000	nontarget	4.000000	na
21.523052	0.049245	18.000000	nontarget	5.000000	na
21.572297	0.039724	18.000000	nontarget	6.000000	na
21.612022	0.044244	18.000000	nontarget	7.000000	na
21.656266	0.050132	18.000000	nontarget	8.000000	na
21.706398	0.049290	18.000000	nontarget	9.000000	na
21.755688	0.049941	18.000000	nontarget	10.000000	na
21.805629	0.040141	18.000000	nontarget	11.000000	na
21.845770	0.043619	18.000000	nontarget	12.000000	na
21.889389	0.039356	18.000000	nontarget	13.000000	na
21.928746	0.043499	18.000000	nontarget	14.000000	na
21.972244	0.050371	18.000000	nontarget	15.000000	na
22.022616	0.049567	18.000000	nontarget	16.000000	na
22.072183	0.039815	19.000000	target	1.000000	na
22.111998	0.044419	19.000000	target	2.000000	na
22.156418	0.049936	19.000000	target	3.000000	na
22.206353	0.049560	19.000000	target	4.000000	na
22.255913	0.039883	19.000000	target	5.000000	na
22.295796	0.043966	19.000000	target	6.000000	na
22.339762	0.039393	19.000000	target	7.000000	na
22.379155	0.043791	19.000000	target	8.000000	na
22.422946	0.039520	19.000000	target	9.000000	na
22.462466	0.043711	19.000000	target	10.000000	na
22.506178	0.039412	19.000000	target	11.000000	na
22.545590	0.042862	19.000000	target	12.000000	na
22.588453	0.051283	19.000000	target	13.000000	na
22.639736	0.039468	19.000000	target	14.000000	na
22.679204	0.042894	19.000000	target	15.000000	na
22.722098	0.041862	19.000000	target	16.000000	22.750882
22.763960	0.041244	20.000000	nontarget	1.000000	22.769274
22.805204	0.051224	20.000000	nontarget	2.000000	na
22.856428	0.050074	20.000000	nontarget	3.000000	na
22.906502	0.049793	20.000000	nontarget	4.000000	na
22.956295	0.050283	20.000000	nontarget	5.000000	na
23.006579	0.049452	20.000000	nontarget	6.000000	na
23.056031	0.050396	20.000000	nontarget	7.000000	na
23.106427	0.049334	20.000000	nontarget	8.000000	na
23.155761	0.050569	20.000000	nontarget	9.000000	na
23.206330	0.050071	20.000000	nontarget	10.000000	na
23.256401	0.049946	20.000000	nontarget	11.000000	na
23.306347	0.049330	20.000000	nontarget	12.000000	na
23.355677	0.039861	20.000000	nontarget	13.000000	na
23.395538	0.043025	20.000000	nontarget	14.000000	na
23.438563	0.050948	20.000000	nontarget	15.000000	na
23.489511	0.050186	20.000000	nontarget	16.000000	na
23.539697	0.049974	21.000000	nontarget	1.000000	na
23.589670	0.050128	21.000000	nontarget	2.000000	na
23.639798	0.049930	21.000000	nontarget	3.000000	na
23.689728	0.049219	21.000000	nontarget	4.000000	na
23.738947	0.040842	21.000000	nontarget	5.000000	23.746925
23.779789	0.042334	21.000000	nontarget	6.000000	na
23.822123	0.050869	21.000000	nontarget	7.000000	na
23.872992	0.049489	21.000000	nontarget	8.000000	na
23.922480	0.050616	21.000000	nontarget	9.000000	na
23.973096	0.049214	21.000000	nontarget	10.000000	na
24.022310	0.039993	21.000000	nontarget	11.000000	na
24.062304	0.043990	21.000000	nontarget	12.000000	na
24.106294	0.039448	21.000000	nontarget	13.000000	na
24.145742	0.044033	21.000000	nontarget	14.000000	na
24.189775	0.049911	21.000000	nontarget	15.000000	na
24.239686	0.049656	21.000000	nontarget	16.000000	na
24.289342	0.050044	22.000000	nontarget	1.000000	na
24.339386	0.050167	22.000000	nontarget	2.000000	na
24.389554	0.050162	22.000000	nontarget	3.000000	na
24.439716	0.050030	22.000000	nontarget	4.000000	na
24.489746	0.049922	22.000000	nontarget	5.000000	na
24.539668	0.049559	22.000000	nontarget	6.000000	na
24.589227	0.050579	22.000000	nontarget	7.000000	na
24.639807	0.042394	22.000000	nontarget	8.000000	24.670768
24.682201	0.047311	22.000000	nontarget	9.000000	na
24.729512	0.043394	22.000000	nontarget	10.000000	na
24.772906	0.050107	22.000000	nontarget	11.000000	na
24.823012	0.049716	22.000000	nontarget	12.000000	na
24.872729	0.050255	22.000000	nontarget	13.000000	na
24.922983	0.050047	22.000000	nontarget	14.000000	na
24.973030	0.040031	22.000000	nontarget	15.000000	na
25.013061	0.043360	22.000000	nontarget	16.000000	na
25.056422	0.049945	23.000000	nontarget	1.000000	na
25.106367	0.039542	23.000000	nontarget	2.000000	na
25.145908	0.044039	23.000000	nontarget	3.000000	na
25.189947	0.049746	23.000000	nontarget	4.000000	na
25.239693	0.049935	23.000000	nontarget	5.000000	na
25.289628	0.050150	23.000000	nontarget	6.000000	na
25.339778	0.049929	23.000000	nontarget	7.000000	na
25.389707	0.050007	23.000000	nontarget	8.000000	na
25.439714	0.049912	23.000000	nontarget	9.000000	na
25.489626	0.049595	23.000000	nontarget	10.000000	na
25.539221	0.050403	23.000000	nontarget	11.000000	na
25.589624	0.049497	23.000000	nontarget	12.000000	na
25.639121	0.050552	23.000000	nontarget	13.000000	na
25.689672	0.049952	23.000000	nontarget	14.000000	na
25.739624	0.049913	23.000000	nontarget	15.000000	25.763729
25.789537	0.050278	23.000000	nontarget	16.000000	na
25.839815	0.049792	24.000000	nontarget	1.000000	25.846428
25.889607	0.049808	24.000000	nontarget	2.000000	na
25.939416	0.050435	24.000000	nontarget	3.000000	na
25.989850	0.050077	24.000000	nontarget	4.000000	na
26.039927	0.049592	24.000000	nontarget	5.000000	na
26.089520	0.049796	24.000000	nontarget	6.000000	na
26.139316	0.050288	24.000000	nontarget	7.000000	na
26.189604	0.049729	24.000000	nontarget	8.000000	na
26.239334	0.039843	24.000000	nontarget	9.000000	na
26.279177	0.042946	24.000000	nontarget	10.000000	na
26.322123	0.050824	24.000000	nontarget	11.000000	na
26.372947	0.050044	24.000000	nontarget	12.000000	na
26.422992	0.049975	24.000000	nontarget	13.000000	na
26.472967	0.050059	24.000000	nontarget	14.000000	na
26.523026	0.049706	24.000000	nontarget	15.000000	na
26.572732	0.039631	24.000000	nontarget	16.000000	na
26.612363	0.043347	25.000000	nontarget	1.000000	na
26.655710	0.040612	25.000000	nontarget	2.000000	na
26.696321	0.042669	25.000000	nontarget	3.000000	26.703281
26.738990	0.050873	25.000000	nontarget	4.000000	na
26.789863	0.049007	25.000000	nontarget	5.000000	na
26.838871	0.039988	25.000000	nontarget	6.000000	na
26.878859	0.043460	25.000000	nontarget	7.000000	na
26.922319	0.050651	25.000000	nontarget	8.000000	na
26.972970	0.049868	25.000000	nontarget	9.000000	na
27.022838	0.049624	25.000000	nontarget	10.000000	na
27.072461	0.039765	25.000000	nontarget	11.000000	na
27.112226	0.043427	25.000000	nontarget	12.000000	na
27.155653	0.050618	25.000000	nontarget	13.000000	na
27.206272	0.050176	25.000000	nontarget	14.000000	na
27.256448	0.049476	25.000000	nontarget	15.000000	na
27.305924	0.049937	25.000000	nontarget	16.000000	na
27.355861	0.050691	26.000000	nontarget	1.000000	na
27.406552	0.050046	26.000000	nontarget	2.000000	na
27.456598	0.049929	26.000000	nontarget	3.000000	na
27.506526	0.049371	26.000000	nontarget	4.000000	na
27.555898	0.050687	26.000000	nontarget	5.000000	na
27.606585	0.049864	26.000000	nontarget	6.000000	27.612381
27.656449	0.050084	26.000000	nontarget	7.000000	na
27.706533	0.049369	26.000000	nontarget	8.000000	na
27.755902	0.050631	26.000000	nontarget	9.000000	na
27.806533	0.050075	26.000000	nontarget	10.000000	na
27.856608	0.049955	26.000000	nontarget	11.000000	na
27.906563	0.049894	26.000000	nontarget	12.000000	na
27.956457	0.050045	26.000000	nontarget	13.000000	na
28.006502	0.049857	26.000000	nontarget	14.000000	na
28.056359	0.049979	26.000000	nontarget	15.000000	na
28.106337	0.049454	26.000000	nontarget	16.000000	na
28.155791	0.050502	27.000000	nontarget	1.000000	na
28.206293	0.050046	27.000000	nontarget	2.000000	na
28.256340	0.049622	27.000000	nontarget	3.000000	na
28.305961	0.039839	27.000000	nontarget	4.000000	na
28.345801	0.050311	27.000000	nontarget	5.000000	28.381764
28.396112	0.042706	27.000000	nontarget	6.000000	na
28.438818	0.050815	27.000000	nontarget	7.000000	na
28.489633	0.050027	27.000000	nontarget	8.000000	na
28.539660	0.049681	27.000000	nontarget	9.000000	na
28.589341	0.050612	27.000000	nontarget	10.000000	na
28.639954	0.049802	27.000000	nontarget	11.000000	na
28.689755	0.049490	27.000000	nontarget	12.000000	na
28.739246	0.050650	27.000000	nontarget	13.000000	na
28.789896	0.049898	27.000000	nontarget	14.000000	na
28.839794	0.049587	27.000000	nontarget	15.000000	na
28.889382	0.050186	27.000000	nontarget	16.000000	na
28.939567	0.049941	28.000000	nontarget	1.000000	na
28.989508	0.050388	28.000000	nontarget	2.000000	na
29.039896	0.050031	28.000000	nontarget	3.000000	na
29.089927	0.049770	28.000000	nontarget	4.000000	na
29.139697	0.039377	28.000000	nontarget	5.000000	29.148740
29.179074	0.043278	28.000000	nontarget	6.000000	na
29.222351	0.050254	28.000000	nontarget	7.000000	na
29.272606	0.049833	28.000000	nontarget	8.000000	na
29.322439	0.050426	28.000000	nontarget	9.000000	na
29.372865	0.049710	28.000000	nontarget	10.000000	na
29.422575	0.039734	28.000000	nontarget	11.000000	na
29.462310	0.044202	28.000000	nontarget	12.000000	na
29.506511	0.049773	28.000000	nontarget	13.000000	na
29.556284	0.049418	28.000000	nontarget	14.000000	na
29.605702	0.050271	28.000000	nontarget	15.000000	na
29.655974	0.049768	28.000000	nontarget	16.000000	na
29.705742	0.050543	29.000000	nontarget	1.000000	na
29.756285	0.050265	29.000000	nontarget	2.000000	na
29.806549	0.049698	29.000000	nontarget	3.000000	na
29.856248	0.049964	29.000000	nontarget	4.000000	na
29.906212	0.039556	29.000000	nontarget	5.000000	na
29.945768	0.042960	29.000000	nontarget	6.000000	na
29.988728	0.040397	29.000000	nontarget	7.000000	29.998728
30.029125	0.043312	29.000000	nontarget	8.000000	na
30.072437	0.039487	29.000000	nontarget	9.000000	na
30.111924	0.044272	29.000000	nontarget	10.000000	na
30.156196	0.039366	29.000000	nontarget	11.000000	na
30.195562	0.044370	29.000000	nontarget	12.000000	na
30.239932	0.050013	29.000000	nontarget	13.000000	na
30.289945	0.049778	29.000000	nontarget	14.000000	na
30.339723	0.050096	29.000000	nontarget	15.000000	na
30.389819	0.049521	29.000000	nontarget	16.000000	na
30.439341	0.050197	30.000000	nontarget	1.000000	na
30.489538	0.050059	30.000000	nontarget	2.000000	na
30.539597	0.049394	30.000000	nontarget	3.000000	na
30.588990	0.039687	30.000000	nontarget	4.000000	na
30.628678	0.044265	30.000000	nontarget	5.000000	na
30.672943	0.039561	30.000000	nontarget	6.000000	na
30.712504	0.043048	30.000000	nontarget	7.000000	na
30.755551	0.051020	30.000000	nontarget	8.000000	na
30.806571	0.049883	30.000000	nontarget	9.000000	30.832914
30.856454	0.049849	30.000000	nontarget	10.000000	na
30.906303	0.050055	30.000000	nontarget	11.000000	na
30.956359	0.050186	30.000000	nontarget	12.000000	na
31.006544	0.049656	30.000000	nontarget	13.000000	na
31.056200	0.050217	30.000000	nontarget	14.000000	na
31.106417	0.050246	30.000000	nontarget	15.000000	na
31.156663	0.049777	30.000000	nontarget	16.000000	na
31.206440	0.049915	31.000000	nontarget	1.000000	na
31.256355	0.049913	31.000000	nontarget	2.000000	na
31.306268	0.049975	31.000000	nontarget	3.000000	na
31.356243	0.049370	31.000000	nontarget	4.000000	na
31.405613	0.050810	31.000000	nontarget	5.000000	na
31.456423	0.049296	31.000000	nontarget	6.000000	na
31.505719	0.050760	31.000000	nontarget	7.000000	na
31.556479	0.049286	31.000000	nontarget	8.000000	na
31.605765	0.050011	31.000000	nontarget	9.000000	na
31.655775	0.050476	31.000000	nontarget	10.000000	na
31.706251	0.049764	31.000000	nontarget	11.000000	31.721927
31.756015	0.049815	31.000000	nontarget	12.000000	na
31.805831	0.050521	31.000000	nontarget	13.000000	na
31.856352	0.050224	31.000000	nontarget	14.000000	na
31.906576	0.049608	31.000000	nontarget	15.000000	na
31.956184	0.049401	31.000000	nontarget	16.000000	na
32.005585	0.050165	32.000000	nontarget	1.000000	na
32.055750	0.040071	32.000000	nontarget	2.000000	na
32.095821	0.043214	32.000000	nontarget	3.000000	na
32.139035	0.040864	32.000000	nontarget	4.000000	na
32.179900	0.042169	32.000000	nontarget	5.000000	na
32.222069	0.040300	32.000000	nontarget	6.000000	na
32.262368	0.043739	32.000000	nontarget	7.000000	na
32.306107	0.040137	32.000000	nontarget	8.000000	na
32.346244	0.042490	32.000000	nontarget	9.000000	na
32.388734	0.041037	32.000000	nontarget	10.000000	na
32.429771	0.042167	32.000000	nontarget	11.000000	na
32.471938	0.051068	32.000000	nontarget	12.000000	na
32.523007	0.049437	32.000000	nontarget	13.000000	na
32.572443	0.050132	32.000000	nontarget	14.000000	na
32.622575	0.039591	32.000000	nontarget	15.000000	na
32.662166	0.043485	32.000000	nontarget	16.000000	na
32.705652	0.050528	33.000000	nontarget	1.000000	na
32.756180	0.050112	33.000000	nontarget	2.000000	32.770616
32.806292	0.049919	33.000000	nontarget	3.000000	na
32.856211	0.049428	33.000000	nontarget	4.000000	na
32.905638	0.050781	33.000000	nontarget	5.000000	na
32.956419	0.050101	33.000000	nontarget	6.000000	na
33.006520	0.049531	33.000000	nontarget	7.000000	na
33.056051	0.039725	33.000000	nontarget	8.000000	na
33.095776	0.043681	33.000000	nontarget	9.000000	na
33.139457	0.039141	33.000000	nontarget	10.000000	na
33.178598	0.044266	33.000000	nontarget	11.000000	na
33.222864	0.039222	33.000000	nontarget	12.000000	na
33.262086	0.043681	33.000000	nontarget	13.000000	na
33.305767	0.039973	33.000000	nontarget	14.000000	na
33.345740	0.043363	33.000000	nontarget	15.000000	na
33.389103	0.050409	33.000000	nontarget	16.000000	na
33.439511	0.050137	34.000000	nontarget	1.000000	na
33.489649	0.039147	34.000000	nontarget	2.000000	na
33.528796	0.044435	34.000000	nontarget	3.000000	na
33.573231	0.049568	34.000000	nontarget	4.000000	na
33.622800	0.050128	34.000000	nontarget	5.000000	na
33.672928	0.040264	34.000000	nontarget	6.000000	33.679590
33.713192	0.042544	34.000000	nontarget	7.000000	na
33.755736	0.039674	34.000000	nontarget	8.000000	na
33.795410	0.043565	34.000000	nontarget	9.000000	na
33.838976	0.040488	34.000000	nontarget	10.000000	na
33.879464	0.043257	34.000000	nontarget	11.000000	na
33.922721	0.039830	34.000000	nontarget	12.000000	na
33.962551	0.042877	34.000000	nontarget	13.000000	na
34.005428	0.041161	34.000000	nontarget	14.000000	na
34.046589	0.042585	34.000000	nontarget	15.000000	na
34.089174	0.050442	34.000000	nontarget	16.000000	na
34.139616	0.049661	35.000000	nontarget	1.000000	na
34.189278	0.050647	35.000000	nontarget	2.000000	na
34.239925	0.049027	35.000000	nontarget	3.000000	na
34.288952	0.039781	35.000000	nontarget	4.000000	na
34.328732	0.043219	35.000000	nontarget	5.000000	na
34.371951	0.044095	35.000000	nontarget	6.000000	34.404881
34.416046	0.046545	35.000000	nontarget	7.000000	na
34.462591	0.043222	35.000000	nontarget	8.000000	na
34.505813	0.049319	35.000000	nontarget	9.000000	na
34.555131	0.051116	35.000000	nontarget	10.000000	na
34.606247	0.049785	35.000000	nontarget	11.000000	na
34.656032	0.050197	35.000000	nontarget	12.000000	na
34.706229	0.050140	35.000000	nontarget	13.000000	na
34.756370	0.048994	35.000000	nontarget	14.000000	na
34.805363	0.040475	35.000000	nontarget	15.000000	na
34.845838	0.043541	35.000000	nontarget	16.000000	na
34.889379	0.040363	36.000000	nontarget	1.000000	na
34.929742	0.042054	36.000000	nontarget	2.000000	na
34.971796	0.041452	36.000000	nontarget	3.000000	na
35.013247	0.041805	36.000000	nontarget	4.000000	na
35.055053	0.040765	36.000000	nontarget	5.000000	35.067857
35.095817	0.043649	36.000000	nontarget	6.000000	na
35.139466	0.039470	36.000000	nontarget	7.000000	na
35.178936	0.042782	36.000000	nontarget	8.000000	na
35.221718	0.051148	36.000000	nontarget	9.000000	na
35.272866	0.049931	36.000000	nontarget	10.000000	na
35.322797	0.050158	36.000000	nontarget	11.000000	na
35.372955	0.050048	36.000000	nontarget	12.000000	na
35.423002	0.049998	36.000000	nontarget	13.000000	na
35.473001	0.049258	36.000000	nontarget	14.000000	na
35.522258	0.040276	36.000000	nontarget	15.000000	na
35.562534	0.043530	36.000000	nontarget	16.000000	na
35.606064	0.039496	37.000000	nontarget	1.000000	na
35.645560	0.043722	37.000000	nontarget	2.000000	na
35.689282	0.039726	37.000000	nontarget	3.000000	na
35.729007	0.042940	37.000000	nontarget	4.000000	na
35.771947	0.050505	37.000000	nontarget	5.000000	35.781327
35.822451	0.050425	37.000000	nontarget	6.000000	na
35.872876	0.049927	37.000000	nontarget	7.000000	na
35.922803	0.050017	37.000000	nontarget	8.000000	na
35.972821	0.050053	37.000000	nontarget	9.000000	na
36.022874	0.049282	37.000000	nontarget	10.000000	na
36.072156	0.039689	37.000000	nontarget	11.000000	na
36.111845	0.044176	37.000000	nontarget	12.000000	na
36.156020	0.040475	37.000000	nontarget	13.000000	na
36.196495	0.042122	37.000000	nontarget	14.000000	na
36.238618	0.050510	37.000000	nontarget	15.000000	na
36.289128	0.040148	37.000000	nontarget	16.000000	na
36.329276	0.043478	38.000000	nontarget	1.000000	na
36.372754	0.039181	38.000000	nontarget	2.000000	na
36.411935	0.044149	38.000000	nontarget	3.000000	na
36.456084	0.039852	38.000000	nontarget	4.000000	na
36.495936	0.043486	38.000000	nontarget	5.000000	na
36.539422	0.040501	38.000000	nontarget	6.000000	36.546304
36.579923	0.042438	38.000000	nontarget	7.000000	na
36.622361	0.039874	38.000000	nontarget	8.000000	na
36.662234	0.044099	38.000000	nontarget	9.000000	na
36.706333	0.039457	38.000000	nontarget	10.000000	na
36.745790	0.043699	38.000000	nontarget	11.000000	na
36.789489	0.049991	38.000000	nontarget	12.000000	na
36.839480	0.049931	38.000000	nontarget	13.000000	na
36.889412	0.039641	38.000000	nontarget	14.000000	na
36.929053	0.043323	38.000000	nontarget	15.000000	na
36.972376	0.050249	38.000000	nontarget	16.000000	na
37.022625	0.039978	39.000000	nontarget	1.000000	na
37.062604	0.043229	39.000000	nontarget	2.000000	na
37.105833	0.050273	39.000000	nontarget	3.000000	na
37.156106	0.050272	39.000000	nontarget	4.000000	na
37.206378	0.049450	39.000000	nontarget	5.000000	na
37.255828	0.039771	39.000000	nontarget	6.000000	na
37.295600	0.043797	39.000000	nontarget	7.000000	37.304711
37.339396	0.040299	39.000000	nontarget	8.000000	na
37.379695	0.042289	39.000000	nontarget	9.000000	na
37.421984	0.050745	39.000000	nontarget	10.000000	na
37.472729	0.049233	39.000000	nontarget	11.000000	na
37.521962	0.050729	39.000000	nontarget	12.000000	na
37.572691	0.049811	39.000000	nontarget	13.000000	na
37.622502	0.050369	39.000000	nontarget	14.000000	na
37.672871	0.050003	39.000000	nontarget	15.000000	na
37.722874	0.049783	39.000000	nontarget	16.000000	na
37.772657	0.050303	40.000000	nontarget	1.000000	na
37.822960	0.049155	40.000000	nontarget	2.000000	na
37.872115	0.039868	40.000000	nontarget	3.000000	na
37.911983	0.043822	40.000000	nontarget	4.000000	na
37.955806	0.044574	40.000000	nontarget	5.000000	na
38.000380	0.046083	40.000000	nontarget	6.000000	na
38.046462	0.042684	40.000000	nontarget	7.000000	na
38.089147	0.040003	40.000000	nontarget	8.000000	38.108969
38.129150	0.043724	40.000000	nontarget	9.000000	na
38.172874	0.049928	40.000000	nontarget	10.000000	na
38.222802	0.050000	40.000000	nontarget	11.000000	na
38.272802	0.050165	40.000000	nontarget	12.000000	na
38.322967	0.049788	40.000000	nontarget	13.000000	na
38.372755	0.039822	40.000000	nontarget	14.000000	na
38.412577	0.043441	40.000000	nontarget	15.000000	na
38.456018	0.050103	40.000000	nontarget	16.000000	na
38.506121	0.050260	41.000000	nontarget	1.000000	na
38.556381	0.049747	41.000000	nontarget	2.000000	na
38.606128	0.048942	41.000000	nontarget	3.000000	na
38.655069	0.040996	41.000000	nontarget	4.000000	na
38.696066	0.043035	41.000000	nontarget	5.000000	na
38.739100	0.050356	41.000000	nontarget	6.000000	na
38.789457	0.049245	41.000000	nontarget	7.000000	na
38.838702	0.040443	41.000000	nontarget	8.000000	na
38.879145	0.043421	41.000000	nontarget	9.000000	38.888073
38.922565	0.050136	41.000000	nontarget	10.000000	na
38.972701	0.040523	41.000000	nontarget	11.000000	na
39.013224	0.041876	41.000000	nontarget	12.000000	na
39.055101	0.051173	41.000000	nontarget	13.000000	na
39.106274	0.049302	41.000000	nontarget	14.000000	na
39.155576	0.050598	41.000000	nontarget	15.000000	na
39.206174	0.049758	41.000000	nontarget	16.000000	na
39.255933	0.050190	42.000000	nontarget	1.000000	na
39.306123	0.049177	42.000000	nontarget	2.000000	na
39.355300	0.041133	42.000000	nontarget	3.000000	na
39.396433	0.041858	42.000000	nontarget	4.000000	na
39.438290	0.040690	42.000000	nontarget	5.000000	na
39.478981	0.043640	42.000000	nontarget	6.000000	na
39.522621	0.050349	42.000000	nontarget	7.000000	na
39.572970	0.049853	42.000000	nontarget	8.000000	na
39.622823	0.048801	42.000000	nontarget	9.000000	na
39.671624	0.040627	42.000000	nontarget	10.000000	39.681040
39.712251	0.043454	42.000000	nontarget	11.000000	na
39.755705	0.050605	42.000000	nontarget	12.000000	na
39.806310	0.049219	42.000000	nontarget	13.000000	na
39.855529	0.050579	42.000000	nontarget	14.000000	na
39.906108	0.049525	42.000000	nontarget	15.000000	na
39.955633	0.050240	42.000000	nontarget	16.000000	na
40.005873	0.050304	43.000000	target	1.000000	na
40.056177	0.049450	43.000000	target	2.000000	na
40.105627	0.050482	43.000000	target	3.000000	na
40.156109	0.049757	43.000000	target	4.000000	na
40.205865	0.050110	43.000000	target	5.000000	na
40.255976	0.039780	43.000000	target	6.000000	na
40.295755	0.043565	43.000000	target	7.000000	na
40.339320	0.039404	43.000000	target	8.000000	na
40.378725	0.042955	43.000000	target	9.000000	na
40.421679	0.051079	43.000000	target	10.000000	na
40.472759	0.050151	43.000000	target	11.000000	na
40.522910	0.049305	43.000000	target	12.000000	na
40.572215	0.039798	43.000000	target	13.000000	na
40.612013	0.044287	43.000000	target	14.000000	na
40.656300	0.049947	43.000000	target	15.000000	na
40.706247	0.049949	43.000000	target	16.000000	na
40.756196	0.050103	44.000000	nontarget	1.000000	na
40.806299	0.049195	44.000000	nontarget	2.000000	na
40.855494	0.050879	44.000000	nontarget	3.000000	na
40.906373	0.048653	44.000000	nontarget	4.000000	40.912661
40.955026	0.043984	44.000000	nontarget	5.000000	na
40.999010	0.047504	44.000000	nontarget	6.000000	na
41.046513	0.041939	44.000000	nontarget	7.000000	na
41.088453	0.051062	44.000000	nontarget	8.000000	na
41.139514	0.049677	44.000000	nontarget	9.000000	na
41.189191	0.039908	44.000000	nontarget	10.000000	na
41.229099	0.042911	44.000000	nontarget	11.000000	na
41.272011	0.050589	44.000000	nontarget	12.000000	na
41.322600	0.050210	44.000000	nontarget	13.000000	na
41.372810	0.049186	44.000000	nontarget	14.000000	na
41.421995	0.040814	44.000000	nontarget	15.000000	na
41.462809	0.043457	44.000000	nontarget	16.000000	na
41.506266	0.038948	45.000000	nontarget	1.000000	na
41.545214	0.044382	45.000000	nontarget	2.000000	na
41.589596	0.039195	45.000000	nontarget	3.000000	na
41.628791	0.043992	45.000000	nontarget	4.000000	na
41.672783	0.039467	45.000000	nontarget	5.000000	na
41.712250	0.043009	45.000000	nontarget	6.000000	na
41.755259	0.050821	45.000000	nontarget	7.000000	na
41.806080	0.049802	45.000000	nontarget	8.000000	41.829206
41.855882	0.050247	45.000000	nontarget	9.000000	na
41.906130	0.050173	45.000000	nontarget	10.000000	na
41.956303	0.049128	45.000000	nontarget	11.000000	na
42.005431	0.039983	45.000000	nontarget	12.000000	na
42.045414	0.043010	45.000000	nontarget	13.000000	na
42.088424	0.050688	45.000000	nontarget	14.000000	na
42.139112	0.039986	45.000000	nontarget	15.000000	na
42.179097	0.042750	45.000000	nontarget	16.000000	na
42.221847	0.050580	46.000000	target	1.000000	na
42.272427	0.049951	46.000000	target	2.000000	na
42.322378	0.039811	46.000000	target	3.000000	na
42.362189	0.043141	46.000000	target	4.000000	na
42.405330	0.050646	46.000000	target	5.000000	na
42.455975	0.039687	46.000000	target	6.000000	na
42.495663	0.043567	46.000000	target	7.000000	na
42.539230	0.039510	46.000000	target	8.000000	na
42.578740	0.042940	46.000000	target	9.000000	na
42.621680	0.051066	46.000000	target	10.000000	na
42.672746	0.049983	46.000000	target	11.000000	na
42.722729	0.050264	46.000000	target	12.000000	na
42.772993	0.049735	46.000000	target	13.000000	na
42.822728	0.049242	46.000000	target	14.000000	na
42.871970	0.040001	46.000000	target	15.000000	na
42.911972	0.043413	46.000000	target	16.000000	na
42.955385	0.049946	47.000000	nontarget	1.000000	na
43.005330	0.040477	47.000000	nontarget	2.000000	na
43.045808	0.042974	47.000000	nontarget	3.000000	43.062735
43.088781	0.040040	47.000000	nontarget	4.000000	na
43.128822	0.050675	47.000000	nontarget	5.000000	na
43.179496	0.042238	47.000000	nontarget	6.000000	na
43.221734	0.051041	47.000000	nontarget	7.000000	na
43.272776	0.049947	47.000000	nontarget	8.000000	na
43.322722	0.050006	47.000000	nontarget	9.000000	na
43.372728	0.039535	47.000000	nontarget	10.000000	na
43.412263	0.043484	47.000000	nontarget	11.000000	na
43.455747	0.040494	47.000000	nontarget	12.000000	na
43.496241	0.042306	47.000000	nontarget	13.000000	na
43.538547	0.050787	47.000000	nontarget	14.000000	na
43.589334	0.050093	47.000000	nontarget	15.000000	na
43.639427	0.049925	47.000000	nontarget	16.000000	na
43.689351	0.050060	48.000000	nontarget	1.000000	na
43.739411	0.050038	48.000000	nontarget	2.000000	na
43.789449	0.049144	48.000000	nontarget	3.000000	na
43.838593	0.040868	48.000000	nontarget	4.000000	na
43.879461	0.043216	48.000000	nontarget	5.000000	na
43.922677	0.049491	48.000000	nontarget	6.000000	43.959317
43.972167	0.039608	48.000000	nontarget	7.000000	na
44.011776	0.044030	48.000000	nontarget	8.000000	na
44.055805	0.039939	48.000000	nontarget	9.000000	na
44.095744	0.042468	48.000000	nontarget	10.000000	na
44.138213	0.051196	48.000000	nontarget	11.000000	na
44.189409	0.050220	48.000000	nontarget	12.000000	na
44.239629	0.049883	48.000000	nontarget	13.000000	na
44.289512	0.049944	48.000000	nontarget	14.000000	na
44.339456	0.050074	48.000000	nontarget	15.000000	na
44.389530	0.049520	48.000000	nontarget	16.000000	na
44.439050	0.050348	49.000000	nontarget	1.000000	na
44.489398	0.049897	49.000000	nontarget	2.000000	na
44.539295	0.050105	49.000000	nontarget	3.000000	na
44.589400	0.049550	49.000000	nontarget	4.000000	na
44.638949	0.050478	49.000000	nontarget	5.000000	na
44.689427	0.049362	49.000000	nontarget	6.000000	na
44.738789	0.040368	49.000000	nontarget	7.000000	na
44.779157	0.043421	49.000000	nontarget	8.000000	na
44.822578	0.039129	49.000000	nontarget	9.000000	na
44.861708	0.043846	49.000000	nontarget	10.000000	na
44.905554	0.050145	49.000000	nontarget	11.000000	44.922558
44.955699	0.050290	49.000000	nontarget	12.000000	na
45.005989	0.050336	49.000000	nontarget	13.000000	na
45.056325	0.048949	49.000000	nontarget	14.000000	na
45.105274	0.050751	49.000000	nontarget	15.000000	na
45.156025	0.050159	49.000000	nontarget	16.000000	na
45.206184	0.050093	50.000000	nontarget	1.000000	na
45.256277	0.049748	50.000000	nontarget	2.000000	na
45.306025	0.050003	50.000000	nontarget	3.000000	na
45.356027	0.049638	50.000000	nontarget	4.000000	na
45.405665	0.050376	50.000000	nontarget	5.000000	na
45.456042	0.049981	50.000000	nontarget	6.000000	na
45.506022	0.050031	50.000000	nontarget	7.000000	na
45.556053	0.050000	50.000000	nontarget	8.000000	na
45.606054	0.049921	50.000000	nontarget	9.000000	na
45.655975	0.039856	50.000000	nontarget	10.000000	na
45.695831	0.043252	50.000000	nontarget	11.000000	na
45.739083	0.049939	50.000000	nontarget	12.000000	na
45.789022	0.049326	50.000000	nontarget	13.000000	na
45.838348	0.040665	50.000000	nontarget	14.000000	45.847435
45.879013	0.043695	50.000000	nontarget	15.000000	na
45.922709	0.048976	50.000000	nontarget	16.000000	na
45.971685	0.041562	51.000000	nontarget	1.000000	na
46.013247	0.049390	51.000000	nontarget	2.000000	na
46.062637	0.043614	51.000000	nontarget	3.000000	na
46.106251	0.049956	51.000000	nontarget	4.000000	na
46.156208	0.050062	51.000000	nontarget	5.000000	na
46.206269	0.049202	51.000000	nontarget	6.000000	na
46.255471	0.040468	51.000000	nontarget	7.000000	na
46.295939	0.042182	51.000000	nontarget	8.000000	na
46.338121	0.051335	51.000000	nontarget	9.000000	na
46.389456	0.049939	51.000000	nontarget	10.000000	na
46.439395	0.039639	51.000000	nontarget	11.000000	na
46.479034	0.042553	51.000000	nontarget	12.000000	na
46.521587	0.040557	51.000000	nontarget	13.000000	na
46.562143	0.042997	51.000000	nontarget	14.000000	na
46.605141	0.050748	51.000000	nontarget	15.000000	na
46.655889	0.039845	51.000000	nontarget	16.000000	na
46.695734	0.043901	52.000000	nontarget	1.000000	46.705264
46.739635	0.049367	52.000000	nontarget	2.000000	na
46.789002	0.049908	52.000000	nontarget	3.000000	na
46.838910	0.050440	52.000000	nontarget	4.000000	na
46.889351	0.050037	52.000000	nontarget	5.000000	na
46.939388	0.049907	52.000000	nontarget	6.000000	na
46.989295	0.049366	52.000000	nontarget	7.000000	na
47.038661	0.041257	52.000000	nontarget	8.000000	na
47.079918	0.042121	52.000000	nontarget	9.000000	na
47.122040	0.050607	52.000000	nontarget	10.000000	na
47.172647	0.049266	52.000000	nontarget	11.000000	na
47.221913	0.040459	52.000000	nontarget	12.000000	na
47.262373	0.043535	52.000000	nontarget	13.000000	na
47.305908	0.039833	52.000000	nontarget	14.000000	na
47.345741	0.043778	52.000000	nontarget	15.000000	na
47.389520	0.039400	52.000000	nontarget	16.000000	na
47.428919	0.043479	53.000000	nontarget	1.000000	na
47.472398	0.040489	53.000000	nontarget	2.000000	na
47.512887	0.044365	53.000000	nontarget	3.000000	47.544705
47.557252	0.048423	53.000000	nontarget	4.000000	na
47.605675	0.040054	53.000000	nontarget	5.000000	na
47.645729	0.043761	53.000000	nontarget	6.000000	na
47.689489	0.048983	53.000000	nontarget	7.000000	na
47.738473	0.040541	53.000000	nontarget	8.000000	na
47.779013	0.043196	53.000000	nontarget	9.000000	na
47.822209	0.039711	53.000000	nontarget	10.000000	na
47.861920	0.043360	53.000000	nontarget	11.000000	na
47.905280	0.050698	53.000000	nontarget	12.000000	na
47.955978	0.043993	53.000000	nontarget	13.000000	na
47.999970	0.045345	53.000000	nontarget	14.000000	na
48.045316	0.043429	53.000000	nontarget	15.000000	na
48.088745	0.049882	53.000000	nontarget	16.000000	na
48.138626	0.050895	54.000000	nontarget	1.000000	na
48.189521	0.048981	54.000000	nontarget	2.000000	na
48.238502	0.040451	54.000000	nontarget	3.000000	na
48.278953	0.042931	54.000000	nontarget	4.000000	na
48.321885	0.040426	54.000000	nontarget	5.000000	na
48.362311	0.043439	54.000000	nontarget	6.000000	na
48.405750	0.050283	54.000000	nontarget	7.000000	na
48.456033	0.049571	54.000000	nontarget	8.000000	na
48.505604	0.039532	54.000000	nontarget	9.000000	na
48.545136	0.044257	54.000000	nontarget	10.000000	48.550355
48.589393	0.050022	54.000000	nontarget	11.000000	na
48.639415	0.049948	54.000000	nontarget	12.000000	na
48.689363	0.049978	54.000000	nontarget	13.000000	na
48.739340	0.050108	54.000000	nontarget	14.000000	na
48.789448	0.049551	54.000000	nontarget	15.000000	na
48.838999	0.050221	54.000000	nontarget	16.000000	na
48.889220	0.050112	55.000000	nontarget	1.000000	na
48.939332	0.049942	55.000000	nontarget	2.000000	na
48.989274	0.039296	55.000000	nontarget	3.000000	na
49.028569	0.044005	55.000000	nontarget	4.000000	na
49.072575	0.039345	55.000000	nontarget	5.000000	na
49.111920	0.043237	55.000000	nontarget	6.000000	na
49.155157	0.050785	55.000000	nontarget	7.000000	na
49.205942	0.049863	55.000000	nontarget	8.000000	na
49.255805	0.049982	55.000000	nontarget	9.000000	na
49.305787	0.039357	55.000000	nontarget	10.000000	na
49.345144	0.043379	55.000000	nontarget	11.000000	na
49.388523	0.050762	55.000000	nontarget	12.000000	49.425068
49.439285	0.049441	55.000000	nontarget	13.000000	na
49.488727	0.050737	55.000000	nontarget	14.000000	na
49.539464	0.050073	55.000000	nontarget	15.000000	na
49.589537	0.050066	55.000000	nontarget	16.000000	na
49.639602	0.049760	56.000000	nontarget	1.000000	na
49.689362	0.039324	56.000000	nontarget	2.000000	na
49.728686	0.043759	56.000000	nontarget	3.000000	na
49.772446	0.039989	56.000000	nontarget	4.000000	na
49.812435	0.043298	56.000000	nontarget	5.000000	na
49.855733	0.050480	56.000000	nontarget	6.000000	na
49.906213	0.039595	56.000000	nontarget	7.000000	na
49.945808	0.042642	56.000000	nontarget	8.000000	na
49.988450	0.040955	56.000000	nontarget	9.000000	na
50.029405	0.042284	56.000000	nontarget	10.000000	na
50.071689	0.050212	56.000000	nontarget	11.000000	na
50.121900	0.040094	56.000000	nontarget	12.000000	na
50.161994	0.043276	56.000000	nontarget	13.000000	na
50.205271	0.050908	56.000000	nontarget	14.000000	na
50.256178	0.049786	56.000000	nontarget	15.000000	na
50.305964	0.039842	56.000000	nontarget	16.000000	50.317158
50.345806	0.042979	57.000000	nontarget	1.000000	50.351113
50.388785	0.040922	57.000000	nontarget	2.000000	na
50.429707	0.041809	57.000000	nontarget	3.000000	na
50.471516	0.051223	57.000000	nontarget	4.000000	na
50.522739	0.049440	57.000000	nontarget	5.000000	na
50.572178	0.049855	57.000000	nontarget	6.000000	na
50.622033	0.040824	57.000000	nontarget	7.000000	na
50.662857	0.042350	57.000000	nontarget	8.000000	na
50.705207	0.039932	57.000000	nontarget	9.000000	na
50.745139	0.043080	57.000000	nontarget	10.000000	na
50.788219	0.050847	57.000000	nontarget	11.000000	na
50.839066	0.050275	57.000000	nontarget	12.000000	na
50.889340	0.049969	57.000000	nontarget	13.000000	na
50.939310	0.049907	57.000000	nontarget	14.000000	na
50.989217	0.039576	57.000000	nontarget	15.000000	na
51.028792	0.043651	57.000000	nontarget	16.000000	na
51.072443	0.039451	58.000000	nontarget	1.000000	na
51.111894	0.043267	58.000000	nontarget	2.000000	na
51.155161	0.055176	58.000000	nontarget	3.000000	na
51.210337	0.045445	58.000000	nontarget	4.000000	51.216436
51.255782	0.050068	58.000000	nontarget	5.000000	na
51.305850	0.049403	58.000000	nontarget	6.000000	na
51.355253	0.039802	58.000000	nontarget	7.000000	na
51.395055	0.044073	58.000000	nontarget	8.000000	na
51.439128	0.049873	58.000000	nontarget	9.000000	na
51.489001	0.039818	58.000000	nontarget	10.000000	na
51.528820	0.043720	58.000000	nontarget	11.000000	na
51.572540	0.039233	58.000000	nontarget	12.000000	na
51.611773	0.042999	58.000000	nontarget	13.000000	na
51.654773	0.051376	58.000000	nontarget	14.000000	na
51.706149	0.039636	58.000000	nontarget	15.000000	na
51.745785	0.043418	58.000000	nontarget	16.000000	na
51.789203	0.039536	59.000000	nontarget	1.000000	na
51.828739	0.043674	59.000000	nontarget	2.000000	na
51.872412	0.039403	59.000000	nontarget	3.000000	na
51.911815	0.044050	59.000000	nontarget	4.000000	na
51.955866	0.042881	59.000000	nontarget	5.000000	na
51.998747	0.047676	59.000000	nontarget	6.000000	na
52.046423	0.042474	59.000000	nontarget	7.000000	52.062090
52.088897	0.040366	59.000000	nontarget	8.000000	na
52.129264	0.043364	59.000000	nontarget	9.000000	na
52.172628	0.049449	59.000000	nontarget	10.000000	na
52.222077	0.040018	59.000000	nontarget	11.000000	na
52.262095	0.043603	59.000000	nontarget	12.000000	na
52.305699	0.050187	59.000000	nontarget	13.000000	na
52.355885	0.039628	59.000000	nontarget	14.000000	na
52.395513	0.042918	59.000000	nontarget	15.000000	na
52.438432	0.050946	59.000000	nontarget	16.000000	na
52.489378	0.039914	60.000000	nontarget	1.000000	na
52.529292	0.043128	60.000000	nontarget	2.000000	na
52.572419	0.039537	60.000000	nontarget	3.000000	na
52.611956	0.043264	60.000000	nontarget	4.000000	na
52.655220	0.050760	60.000000	nontarget	5.000000	na
52.705980	0.039625	60.000000	nontarget	6.000000	na
52.745605	0.043041	60.000000	nontarget	7.000000	na
52.788646	0.050805	60.000000	nontarget	8.000000	na
52.839451	0.049316	60.000000	nontarget	9.000000	na
52.888767	0.039955	60.000000	nontarget	10.000000	na
52.928723	0.043746	60.000000	nontarget	11.000000	na
52.972469	0.050164	60.000000	nontarget	12.000000	na
53.022633	0.049991	60.000000	nontarget	13.000000	53.042235
53.072624	0.049386	60.000000	nontarget	14.000000	na
53.122010	0.040192	60.000000	nontarget	15.000000	na
53.162202	0.042543	60.000000	nontarget	16.000000	na
53.204744	0.051051	61.000000	nontarget	1.000000	na
53.255795	0.039671	61.000000	nontarget	2.000000	na
53.295466	0.042997	61.000000	nontarget	3.000000	na
53.338463	0.050507	61.000000	nontarget	4.000000	na
53.388970	0.049566	61.000000	nontarget	5.000000	na
53.438536	0.050642	61.000000	nontarget	6.000000	na
53.489178	0.050007	61.000000	nontarget	7.000000	na
53.539186	0.049953	61.000000	nontarget	8.000000	na
53.589139	0.049426	61.000000	nontarget	9.000000	na
53.638565	0.050073	61.000000	nontarget	10.000000	na
53.688638	0.050373	61.000000	nontarget	11.000000	na
53.739011	0.039772	61.000000	nontarget	12.000000	na
53.778783	0.043660	61.000000	nontarget	13.000000	na
53.822443	0.049925	61.000000	nontarget	14.000000	na
53.872369	0.039906	61.000000	nontarget	15.000000	53.899033
53.912274	0.043665	61.000000	nontarget	16.000000	na
53.955940	0.049936	62.000000	nontarget	1.000000	53.962341
54.005875	0.050144	62.000000	nontarget	2.000000	na
54.056020	0.049918	62.000000	nontarget	3.000000	na
54.105937	0.050176	62.000000	nontarget	4.000000	na
54.156113	0.049883	62.000000	nontarget	5.000000	na
54.205996	0.039811	62.000000	nontarget	6.000000	na
54.245807	0.042937	62.000000	nontarget	7.000000	na
54.288744	0.039901	62.000000	nontarget	8.000000	na
54.328645	0.043141	62.000000	nontarget	9.000000	na
54.371785	0.041272	62.000000	nontarget	10.000000	na
54.413058	0.041700	62.000000	nontarget	11.000000	na
54.454758	0.051288	62.000000	nontarget	12.000000	na
54.506046	0.039703	62.000000	nontarget	13.000000	na
54.545749	0.043458	62.000000	nontarget	14.000000	na
54.589207	0.039389	62.000000	nontarget	15.000000	na
54.628596	0.043414	62.000000	nontarget	16.000000	na
54.672011	0.050715	63.000000	nontarget	1.000000	na
54.722726	0.049830	63.000000	nontarget	2.000000	na
54.772556	0.050066	63.000000	nontarget	3.000000	na
54.822621	0.050433	63.000000	nontarget	4.000000	na
54.873054	0.049263	63.000000	nontarget	5.000000	na
54.922317	0.049842	63.000000	nontarget	6.000000	54.945913
54.972159	0.039591	63.000000	nontarget	7.000000	na
55.011750	0.043231	63.000000	nontarget	8.000000	na
55.054982	0.040253	63.000000	nontarget	9.000000	na
55.095235	0.044272	63.000000	nontarget	10.000000	na
55.139507	0.039364	63.000000	nontarget	11.000000	na
55.178871	0.043871	63.000000	nontarget	12.000000	na
55.222742	0.049984	63.000000	nontarget	13.000000	na
55.272726	0.049699	63.000000	nontarget	14.000000	na
55.322424	0.050617	63.000000	nontarget	15.000000	na
55.373041	0.049681	63.000000	nontarget	16.000000	na
55.422722	0.050217	64.000000	nontarget	1.000000	na
55.472939	0.049487	64.000000	nontarget	2.000000	na
55.522426	0.050507	64.000000	nontarget	3.000000	na
55.572933	0.049049	64.000000	nontarget	4.000000	na
55.621982	0.050595	64.000000	nontarget	5.000000	na
55.672577	0.049395	64.000000	nontarget	6.000000	na
55.721971	0.040614	64.000000	nontarget	7.000000	na
55.762586	0.043414	64.000000	nontarget	8.000000	na
55.805999	0.049101	64.000000	nontarget	9.000000	na
55.855101	0.040749	64.000000	nontarget	10.000000	na
55.895850	0.043570	64.000000	nontarget	11.000000	na
55.939420	0.040334	64.000000	nontarget	12.000000	na
55.979753	0.042029	64.000000	nontarget	13.000000	na
56.021783	0.040449	64.000000	nontarget	14.000000	56.040133
56.062232	0.043272	64.000000	nontarget	15.000000	na
56.105504	0.041008	64.000000	nontarget	16.000000	na
56.146512	0.043040	65.000000	nontarget	1.000000	56.152085
56.189551	0.039310	65.000000	nontarget	2.000000	na
56.228862	0.043165	65.000000	nontarget	3.000000	na
56.272027	0.050546	65.000000	nontarget	4.000000	na
56.322573	0.039891	65.000000	nontarget	5.000000	na
56.362464	0.043291	65.000000	nontarget	6.000000	na
56.405755	0.040740	65.000000	nontarget	7.000000	na
56.446495	0.041792	65.000000	nontarget	8.000000	na
56.488287	0.040453	65.000000	nontarget	9.000000	na
56.528740	0.043073	65.000000	nontarget	10.000000	na
56.571813	0.050719	65.000000	nontarget	11.000000	na
56.622532	0.049655	65.000000	nontarget	12.000000	na
56.672186	0.049991	65.000000	nontarget	13.000000	na
56.722178	0.040520	65.000000	nontarget	14.000000	na
56.762698	0.042383	65.000000	nontarget	15.000000	na
56.805081	0.050603	65.000000	nontarget	16.000000	na
56.855684	0.050552	66.000000	nontarget	1.000000	56.875005
56.906236	0.049795	66.000000	nontarget	2.000000	na
56.956031	0.049758	66.000000	nontarget	3.000000	na
57.005789	0.050167	66.000000	nontarget	4.000000	na
57.055956	0.049971	66.000000	nontarget	5.000000	na
57.105927	0.049835	66.000000	nontarget	6.000000	na
57.155761	0.050106	66.000000	nontarget	7.000000	na
57.205867	0.049854	66.000000	nontarget	8.000000	na
57.255721	0.049632	66.000000	nontarget	9.000000	na
57.305353	0.040959	66.000000	nontarget	10.000000	na
57.346312	0.042316	66.000000	nontarget	11.000000	na
57.388628	0.050640	66.000000	nontarget	12.000000	na
57.439268	0.049355	66.000000	nontarget	13.000000	na
57.488623	0.050971	66.000000	nontarget	14.000000	na
57.539594	0.049808	66.000000	nontarget	15.000000	na
57.589402	0.049163	66.000000	nontarget	16.000000	na
57.638565	0.049705	67.000000	nontarget	1.000000	na
57.688270	0.050990	67.000000	nontarget	2.000000	57.697746
57.739259	0.050257	67.000000	nontarget	3.000000	na
57.789517	0.049084	67.000000	nontarget	4.000000	na
57.838601	0.050082	67.000000	nontarget	5.000000	na
57.888683	0.040336	67.000000	nontarget	6.000000	na
57.929019	0.043384	67.000000	nontarget	7.000000	na
57.972403	0.050397	67.000000	nontarget	8.000000	na
58.022799	0.049798	67.000000	nontarget	9.000000	na
58.072597	0.049953	67.000000	nontarget	10.000000	na
58.122550	0.049972	67.000000	nontarget	11.000000	na
58.172522	0.039771	67.000000	nontarget	12.000000	na
58.212293	0.043088	67.000000	nontarget	13.000000	na
58.255381	0.050464	67.000000	nontarget	14.000000	na
58.305845	0.039879	67.000000	nontarget	15.000000	na
58.345725	0.042594	67.000000	nontarget	16.000000	na
58.388318	0.050931	68.000000	nontarget	1.000000	na
58.439249	0.049621	68.000000	nontarget	2.000000	na
58.488870	0.040118	68.000000	nontarget	3.000000	na
58.528988	0.043417	68.000000	nontarget	4.000000	na
58.572405	0.040263	68.000000	nontarget	5.000000	58.587381
58.612668	0.042588	68.000000	nontarget	6.000000	na
58.655256	0.050933	68.000000	nontarget	7.000000	na
58.706189	0.049605	68.000000	nontarget	8.000000	na
58.755794	0.050413	68.000000	nontarget	9.000000	na
58.806207	0.049686	68.000000	nontarget	10.000000	na
58.855893	0.049903	68.000000	nontarget	11.000000	na
58.905796	0.049275	68.000000	nontarget	12.000000	na
58.955071	0.043485	68.000000	nontarget	13.000000	na
58.998556	0.048025	68.000000	nontarget	14.000000	na
59.046581	0.042493	68.000000	nontarget	15.000000	na
59.089074	0.039698	68.000000	nontarget	16.000000	na
59.128772	0.043173	69.000000	nontarget	1.000000	na
59.171945	0.050410	69.000000	nontarget	2.000000	na
59.222354	0.039728	69.000000	nontarget	3.000000	na
59.262082	0.044159	69.000000	nontarget	4.000000	na
59.306242	0.039660	69.000000	nontarget	5.000000	na
59.345902	0.043532	69.000000	nontarget	6.000000	na
59.389433	0.039350	69.000000	nontarget	7.000000	na
59.428783	0.043144	69.000000	nontarget	8.000000	na
59.471928	0.041240	69.000000	nontarget	9.000000	59.477544
59.513167	0.042140	69.000000	nontarget	10.000000	na
59.555308	0.040537	69.000000	nontarget	11.000000	na
59.595845	0.043039	69.000000	nontarget	12.000000	na
59.638884	0.050163	69.000000	nontarget	13.000000	na
59.689047	0.039668	69.000000	nontarget	14.000000	na
59.728714	0.043595	69.000000	nontarget	15.000000	na
59.772309	0.040748	69.000000	nontarget	16.000000	na
59.813057	0.041696	70.000000	nontarget	1.000000	na
59.854753	0.051290	70.000000	nontarget	2.000000	na
59.906043	0.039702	70.000000	nontarget	3.000000	na
59.945745	0.043458	70.000000	nontarget	4.000000	na
59.989203	0.049470	70.000000	nontarget	5.000000	na
60.038673	0.040874	70.000000	nontarget	6.000000	na
60.079547	0.042190	70.000000	nontarget	7.000000	na
60.121737	0.050196	70.000000	nontarget	8.000000	na
60.171933	0.040679	70.000000	nontarget	9.000000	na
60.212612	0.042281	70.000000	nontarget	10.000000	na
60.254893	0.051139	70.000000	nontarget	11.000000	na
60.306032	0.049834	70.000000	nontarget	12.000000	na
60.355866	0.039513	70.000000	nontarget	13.000000	60.371777
60.395379	0.043858	70.000000	nontarget	14.000000	na
60.439237	0.049970	70.000000	nontarget	15.000000	na
60.489208	0.049412	70.000000	nontarget	16.000000	na
60.538620	0.049986	71.000000	nontarget	1.000000	na
60.588606	0.050221	71.000000	nontarget	2.000000	na
60.638827	0.050416	71.000000	nontarget	3.000000	na
60.689243	0.049386	71.000000	nontarget	4.000000	na
60.738629	0.050423	71.000000	nontarget	5.000000	na
60.789053	0.049475	71.000000	nontarget	6.000000	na
60.838527	0.040225	71.000000	nontarget	7.000000	na
60.878753	0.050767	71.000000	nontarget	8.000000	na
60.929519	0.042129	71.000000	nontarget	9.000000	na
60.971648	0.050813	71.000000	nontarget	10.000000	na
61.022461	0.050050	71.000000	nontarget	11.000000	na
61.072511	0.049992	71.000000	nontarget	12.000000	na
61.122503	0.050008	71.000000	nontarget	13.000000	na
61.172511	0.050018	71.000000	nontarget	14.000000	na
61.222529	0.049874	71.000000	nontarget	15.000000	na
61.272402	0.039675	71.000000	nontarget	16.000000	na
61.312078	0.043489	72.000000	nontarget	1.000000	na
61.355566	0.040796	72.000000	nontarget	2.000000	61.381870
61.396363	0.042559	72.000000	nontarget	3.000000	na
61.438921	0.050121	72.000000	nontarget	4.000000	na
61.489042	0.049589	72.000000	nontarget	5.000000	na
61.538631	0.050561	72.000000	nontarget	6.000000	na
61.589192	0.050026	72.000000	nontarget	7.000000	na
61.639218	0.049846	72.000000	nontarget	8.000000	na
61.689064	0.039837	72.000000	nontarget	9.000000	na
61.728901	0.043338	72.000000	nontarget	10.000000	na
61.772239	0.040805	72.000000	nontarget	11.000000	na
61.813044	0.042041	72.000000	nontarget	12.000000	na
61.855085	0.040523	72.000000	nontarget	13.000000	na
61.895608	0.042934	72.000000	nontarget	14.000000	na
61.938542	0.050736	72.000000	nontarget	15.000000	na
61.989278	0.050087	72.000000	nontarget	16.000000	na
62.039365	0.049724	73.000000	nontarget	1.000000	na
62.089089	0.050394	73.000000	nontarget	2.000000	na
62.139483	0.049581	73.000000	nontarget	3.000000	62.146064
62.189064	0.049512	73.000000	nontarget	4.000000	na
62.238576	0.050646	73.000000	nontarget	5.000000	na
62.289222	0.049892	73.000000	nontarget	6.000000	na
62.339113	0.049753	73.000000	nontarget	7.000000	na
62.388866	0.040196	73.000000	nontarget	8.000000	na
62.429062	0.043493	73.000000	nontarget	9.000000	na
62.472555	0.039827	73.000000	nontarget	10.000000	na
62.512382	0.042282	73.000000	nontarget	11.000000	na
62.554664	0.051073	73.000000	nontarget	12.000000	na
62.605737	0.039696	73.000000	nontarget	13.000000	na
62.645434	0.043115	73.000000	nontarget	14.000000	na
62.688548	0.050592	73.000000	nontarget	15.000000	na
62.739140	0.049956	73.000000	nontarget	16.000000	na
62.789097	0.050038	74.000000	nontarget	1.000000	na
62.839135	0.049682	74.000000	nontarget	2.000000	na
62.888817	0.050298	74.000000	nontarget	3.000000	na
62.939114	0.050201	74.000000	nontarget	4.000000	na
62.989315	0.049861	74.000000	nontarget	5.000000	na
63.039176	0.049858	74.000000	nontarget	6.000000	na
63.089034	0.042963	74.000000	nontarget	7.000000	63.120147
63.131998	0.047895	74.000000	nontarget	8.000000	na
63.179893	0.042485	74.000000	nontarget	9.000000	na
63.222377	0.049458	74.000000	nontarget	10.000000	na
63.271836	0.040604	74.000000	nontarget	11.000000	na
63.312440	0.042490	74.000000	nontarget	12.000000	na
63.354930	0.050721	74.000000	nontarget	13.000000	na
63.405651	0.049798	74.000000	nontarget	14.000000	na
63.455449	0.050275	74.000000	nontarget	15.000000	na
63.505724	0.050047	74.000000	nontarget	16.000000	na
63.555771	0.049435	75.000000	nontarget	1.000000	na
63.605206	0.040666	75.000000	nontarget	2.000000	na
63.645872	0.042967	75.000000	nontarget	3.000000	na
63.688839	0.050442	75.000000	nontarget	4.000000	na
63.739281	0.039876	75.000000	nontarget	5.000000	na
63.779157	0.043101	75.000000	nontarget	6.000000	na
63.822258	0.040948	75.000000	nontarget	7.000000	na
63.863206	0.042049	75.000000	nontarget	8.000000	na
63.905254	0.040556	75.000000	nontarget	9.000000	na
63.945810	0.043231	75.000000	nontarget	10.000000	na
63.989041	0.049589	75.000000	nontarget	11.000000	na
64.038630	0.049830	75.000000	nontarget	12.000000	na
64.088459	0.040529	75.000000	nontarget	13.000000	64.096380
64.128989	0.042777	75.000000	nontarget	14.000000	na
64.171766	0.050873	75.000000	nontarget	15.000000	na
64.222638	0.049772	75.000000	nontarget	16.000000	na
64.272411	0.049528	76.000000	nontarget	1.000000	na
64.321939	0.040487	76.000000	nontarget	2.000000	na
64.362425	0.042520	76.000000	nontarget	3.000000	na
64.404945	0.050775	76.000000	nontarget	4.000000	na
64.455720	0.050018	76.000000	nontarget	5.000000	na
64.505738	0.039769	76.000000	nontarget	6.000000	na
64.545508	0.043297	76.000000	nontarget	7.000000	na
64.588805	0.040955	76.000000	nontarget	8.000000	na
64.629759	0.041700	76.000000	nontarget	9.000000	na
64.671459	0.050540	76.000000	nontarget	10.000000	na
64.722000	0.041096	76.000000	nontarget	11.000000	na
64.763095	0.041799	76.000000	nontarget	12.000000	na
64.804894	0.040513	76.000000	nontarget	13.000000	na
64.845407	0.043073	76.000000	nontarget	14.000000	na
64.888480	0.050761	76.000000	nontarget	15.000000	na
64.939241	0.049636	76.000000	nontarget	16.000000	64.950486
64.988877	0.039948	77.000000	nontarget	1.000000	64.995360
65.028825	0.043638	77.000000	nontarget	2.000000	na
65.072463	0.050102	77.000000	nontarget	3.000000	na
65.122565	0.039847	77.000000	nontarget	4.000000	na
65.162412	0.042161	77.000000	nontarget	5.000000	na
65.204573	0.051153	77.000000	nontarget	6.000000	na
65.255726	0.039845	77.000000	nontarget	7.000000	na
65.295571	0.043034	77.000000	nontarget	8.000000	na
65.338605	0.040782	77.000000	nontarget	9.000000	na
65.379387	0.042186	77.000000	nontarget	10.000000	na
65.421573	0.040662	77.000000	nontarget	11.000000	na
65.462235	0.043322	77.000000	nontarget	12.000000	na
65.505557	0.040778	77.000000	nontarget	13.000000	na
65.546335	0.041922	77.000000	nontarget	14.000000	na
65.588257	0.040701	77.000000	nontarget	15.000000	na
65.628958	0.043407	77.000000	nontarget	16.000000	na
65.672365	0.039540	78.000000	nontarget	1.000000	na
65.711906	0.043226	78.000000	nontarget	2.000000	na
65.755131	0.050086	78.000000	nontarget	3.000000	65.776396
65.805217	0.040065	78.000000	nontarget	4.000000	na
65.845283	0.043787	78.000000	nontarget	5.000000	na
65.889069	0.050031	78.000000	nontarget	6.000000	na
65.939101	0.050062	78.000000	nontarget	7.000000	na
65.989163	0.039413	78.000000	nontarget	8.000000	na
66.028576	0.043082	78.000000	nontarget	9.000000	na
66.071658	0.050098	78.000000	nontarget	10.000000	na
66.121756	0.041269	78.000000	nontarget	11.000000	na
66.163026	0.042236	78.000000	nontarget	12.000000	na
66.205262	0.040651	78.000000	nontarget	13.000000	na
66.245913	0.042906	78.000000	nontarget	14.000000	na
66.288819	0.050295	78.000000	nontarget	15.000000	na
66.339114	0.039762	78.000000	nontarget	16.000000	na
66.378876	0.042552	79.000000	nontarget	1.000000	na
66.421428	0.050996	79.000000	nontarget	2.000000	na
66.472424	0.050001	79.000000	nontarget	3.000000	na
66.522425	0.049996	79.000000	nontarget	4.000000	na
66.572420	0.040079	79.000000	nontarget	5.000000	na
66.612500	0.042119	79.000000	nontarget	6.000000	na
66.654619	0.050647	79.000000	nontarget	7.000000	na
66.705266	0.040591	79.000000	nontarget	8.000000	66.728373
66.745857	0.042111	79.000000	nontarget	9.000000	na
66.787968	0.040780	79.000000	nontarget	10.000000	na
66.828747	0.043193	79.000000	nontarget	11.000000	na
66.871940	0.050487	79.000000	nontarget	12.000000	na
66.922427	0.039998	79.000000	nontarget	13.000000	na
66.962424	0.043359	79.000000	nontarget	14.000000	na
67.005783	0.039858	79.000000	nontarget	15.000000	na
67.045641	0.043218	79.000000	nontarget	16.000000	na
67.088859	0.039668	80.000000	nontarget	1.000000	na
67.128528	0.043157	80.000000	nontarget	2.000000	na
67.171685	0.040613	80.000000	nontarget	3.000000	na
67.212298	0.043406	80.000000	nontarget	4.000000	na
67.255704	0.049873	80.000000	nontarget	5.000000	na
67.305577	0.049664	80.000000	nontarget	6.000000	na
67.355241	0.041334	80.000000	nontarget	7.000000	na
67.396575	0.049222	80.000000	nontarget	8.000000	na
67.445797	0.042032	80.000000	nontarget	9.000000	na
67.487829	0.051102	80.000000	nontarget	10.000000	na
67.538931	0.040962	80.000000	nontarget	11.000000	na
67.579894	0.049831	80.000000	nontarget	12.000000	na
67.629724	0.041836	80.000000	nontarget	13.000000	na
67.671561	0.050850	80.000000	nontarget	14.000000	na
67.722410	0.049490	80.000000	nontarget	15.000000	67.757156
67.771900	0.041331	80.000000	nontarget	16.000000	na
67.813231	0.041757	81.000000	nontarget	1.000000	67.818772
67.854988	0.050404	81.000000	nontarget	2.000000	na
67.905393	0.040240	81.000000	nontarget	3.000000	na
67.945632	0.043326	81.000000	nontarget	4.000000	na
67.988958	0.050205	81.000000	nontarget	5.000000	na
68.039163	0.049517	81.000000	nontarget	6.000000	na
68.088679	0.040362	81.000000	nontarget	7.000000	na
68.129041	0.043263	81.000000	nontarget	8.000000	na
68.172304	0.039554	81.000000	nontarget	9.000000	na
68.211857	0.043897	81.000000	nontarget	10.000000	na
68.255754	0.049942	81.000000	nontarget	11.000000	na
68.305696	0.049904	81.000000	nontarget	12.000000	na
68.355599	0.050210	81.000000	nontarget	13.000000	na
68.405810	0.049749	81.000000	nontarget	14.000000	na
68.455558	0.049752	81.000000	nontarget	15.000000	na
68.505310	0.050292	81.000000	nontarget	16.000000	na
68.555602	0.050114	82.000000	nontarget	1.000000	na
68.605716	0.039991	82.000000	nontarget	2.000000	na
68.645707	0.043245	82.000000	nontarget	3.000000	na
68.688952	0.049540	82.000000	nontarget	4.000000	68.695415
68.738492	0.040874	82.000000	nontarget	5.000000	na
68.779366	0.042658	82.000000	nontarget	6.000000	na
68.822024	0.050197	82.000000	nontarget	7.000000	na
68.872221	0.050192	82.000000	nontarget	8.000000	na
68.922412	0.049966	82.000000	nontarget	9.000000	na
68.972379	0.040728	82.000000	nontarget	10.000000	na
69.013106	0.042029	82.000000	nontarget	11.000000	na
69.055136	0.040912	82.000000	nontarget	12.000000	na
69.096047	0.042283	82.000000	nontarget	13.000000	na
69.138330	0.050766	82.000000	nontarget	14.000000	na
69.189096	0.049431	82.000000	nontarget	15.000000	na
69.238527	0.040737	82.000000	nontarget	16.000000	na
69.279264	0.041911	83.000000	nontarget	1.000000	na
69.321176	0.040968	83.000000	nontarget	2.000000	na
69.362143	0.042879	83.000000	nontarget	3.000000	na
69.405022	0.050654	83.000000	nontarget	4.000000	na
69.455677	0.039567	83.000000	nontarget	5.000000	na
69.495243	0.043032	83.000000	nontarget	6.000000	na
69.538275	0.050798	83.000000	nontarget	7.000000	na
69.589073	0.039460	83.000000	nontarget	8.000000	na
69.628533	0.043341	83.000000	nontarget	9.000000	na
69.671873	0.049802	83.000000	nontarget	10.000000	69.678129
69.721676	0.040273	83.000000	nontarget	11.000000	na
69.761948	0.042863	83.000000	nontarget	12.000000	na
69.804811	0.050918	83.000000	nontarget	13.000000	na
69.855729	0.049775	83.000000	nontarget	14.000000	na
69.905505	0.050123	83.000000	nontarget	15.000000	na
69.955628	0.049768	83.000000	nontarget	16.000000	na
70.005396	0.040410	84.000000	nontarget	1.000000	na
70.045805	0.042831	84.000000	nontarget	2.000000	na
70.088637	0.049930	84.000000	nontarget	3.000000	na
70.138567	0.040780	84.000000	nontarget	4.000000	na
70.179347	0.042906	84.000000	nontarget	5.000000	na
70.222253	0.050172	84.000000	nontarget	6.000000	na
70.272425	0.040119	84.000000	nontarget	7.000000	na
70.312544	0.042204	84.000000	nontarget	8.000000	na
70.354748	0.050980	84.000000	nontarget	9.000000	na
70.405729	0.039785	84.000000	nontarget	10.000000	na
70.445514	0.043697	84.000000	nontarget	11.000000	na
70.489211	0.039465	84.000000	nontarget	12.000000	na
70.528676	0.043388	84.000000	nontarget	13.000000	na
70.572063	0.040972	84.000000	nontarget	14.000000	na
70.613036	0.041825	84.000000	nontarget	15.000000	na
70.654861	0.050510	84.000000	nontarget	16.000000	na
70.705371	0.041109	85.000000	target	1.000000	na
70.746480	0.041657	85.000000	target	2.000000	na
70.788137	0.040673	85.000000	target	3.000000	na
70.828810	0.042972	85.000000	target	4.000000	na
70.871782	0.040501	85.000000	target	5.000000	na
70.912283	0.043371	85.000000	target	6.000000	na
70.955654	0.050085	85.000000	target	7.000000	na
71.005739	0.050175	85.000000	target	8.000000	na
71.055914	0.039827	85.000000	target	9.000000	na
71.095741	0.042558	85.000000	target	10.000000	na
71.138299	0.040681	85.000000	target	11.000000	na
71.178980	0.043061	85.000000	target	12.000000	na
71.222041	0.050155	85.000000	target	13.000000	na
71.272195	0.040035	85.000000	target	14.000000	na
71.312231	0.042237	85.000000	target	15.000000	na
71.354468	0.050958	85.000000	target	16.000000	71.387412
71.405426	0.050466	86.000000	nontarget	1.000000	71.412041
71.455892	0.049755	86.000000	nontarget	2.000000	na
71.505647	0.049081	86.000000	nontarget	3.000000	na
71.554728	0.041720	86.000000	nontarget	4.000000	na
71.596448	0.049988	86.000000	nontarget	5.000000	na
71.646436	0.041362	86.000000	nontarget	6.000000	na
71.687797	0.051185	86.000000	nontarget	7.000000	na
71.738982	0.039902	86.000000	nontarget	8.000000	na
71.778884	0.042239	86.000000	nontarget	9.000000	na
71.821123	0.051223	86.000000	nontarget	10.000000	na
71.872347	0.040084	86.000000	nontarget	11.000000	na
71.912431	0.042041	86.000000	nontarget	12.000000	na
71.954472	0.051538	86.000000	nontarget	13.000000	na
72.006010	0.049600	86.000000	nontarget	14.000000	na
72.055610	0.050018	86.000000	nontarget	15.000000	na
72.105628	0.050100	86.000000	nontarget	16.000000	na
72.155728	0.049811	87.000000	target	1.000000	na
72.205539	0.040210	87.000000	target	2.000000	na
72.245749	0.042179	87.000000	target	3.000000	na
72.287928	0.041601	87.000000	target	4.000000	na
72.329529	0.042849	87.000000	target	5.000000	na
72.372378	0.049998	87.000000	target	6.000000	na
72.422376	0.049936	87.000000	target	7.000000	na
72.472312	0.050026	87.000000	target	8.000000	na
72.522338	0.040299	87.000000	target	9.000000	na
72.562637	0.042114	87.000000	target	10.000000	na
72.604751	0.050849	87.000000	target	11.000000	na
72.655600	0.040143	87.000000	target	12.000000	na
72.695743	0.043420	87.000000	target	13.000000	na
72.739163	0.040707	87.000000	target	14.000000	na
72.779870	0.049350	87.000000	target	15.000000	na
72.829219	0.043296	87.000000	target	16.000000	na
72.872516	0.039603	88.000000	nontarget	1.000000	na
72.912118	0.042526	88.000000	nontarget	2.000000	72.928858
72.954644	0.045086	88.000000	nontarget	3.000000	na
72.999730	0.046102	88.000000	nontarget	4.000000	na
73.045833	0.042917	88.000000	nontarget	5.000000	na
73.088749	0.040766	88.000000	nontarget	6.000000	na
73.129515	0.041742	88.000000	nontarget	7.000000	na
73.171257	0.040729	88.000000	nontarget	8.000000	na
73.211986	0.043454	88.000000	nontarget	9.000000	na
73.255440	0.041104	88.000000	nontarget	10.000000	na
73.296544	0.049287	88.000000	nontarget	11.000000	na
73.345831	0.042493	88.000000	nontarget	12.000000	na
73.388324	0.050715	88.000000	nontarget	13.000000	na
73.439039	0.049952	88.000000	nontarget	14.000000	na
73.488991	0.049970	88.000000	nontarget	15.000000	na
73.538961	0.049710	88.000000	nontarget	16.000000	na
73.588671	0.050066	89.000000	target	1.000000	na
73.638738	0.040483	89.000000	target	2.000000	na
73.679220	0.043296	89.000000	target	3.000000	na
73.722516	0.039798	89.000000	target	4.000000	na
73.762314	0.043335	89.000000	target	5.000000	na
73.805649	0.039473	89.000000	target	6.000000	na
73.845122	0.043422	89.000000	target	7.000000	na
73.888544	0.050446	89.000000	target	8.000000	na
73.938989	0.039768	89.000000	target	9.000000	na
73.978757	0.042555	89.000000	target	10.000000	na
74.021311	0.051052	89.000000	target	11.000000	na
74.072363	0.040201	89.000000	target	12.000000	na
74.112564	0.042097	89.000000	target	13.000000	na
74.154661	0.040497	89.000000	target	14.000000	na
74.195157	0.043686	89.000000	target	15.000000	na
74.238843	0.050154	89.000000	target	16.000000	na
74.288997	0.049848	90.000000	nontarget	1.000000	na
74.338845	0.039937	90.000000	nontarget	2.000000	na
74.378782	0.043817	90.000000	nontarget	3.000000	74.391736
74.422599	0.049739	90.000000	nontarget	4.000000	na
74.472339	0.040014	90.000000	nontarget	5.000000	na
74.512353	0.043413	90.000000	nontarget	6.000000	na
74.555766	0.049840	90.000000	nontarget	7.000000	na
74.605606	0.049698	90.000000	nontarget	8.000000	na
74.655304	0.040153	90.000000	nontarget	9.000000	na
74.695458	0.043812	90.000000	nontarget	10.000000	na
74.739270	0.039415	90.000000	nontarget	11.000000	na
74.778685	0.043033	90.000000	nontarget	12.000000	na
74.821718	0.050594	90.000000	nontarget	13.000000	na
74.872312	0.040073	90.000000	nontarget	14.000000	na
74.912385	0.043557	90.000000	nontarget	15.000000	na
74.955941	0.049482	90.000000	nontarget	16.000000	na
75.005423	0.040335	91.000000	nontarget	1.000000	na
75.045758	0.043108	91.000000	nontarget	2.000000	na
75.088866	0.039893	91.000000	nontarget	3.000000	na
75.128758	0.043401	91.000000	nontarget	4.000000	na
75.172159	0.049407	91.000000	nontarget	5.000000	na
75.221565	0.040319	91.000000	nontarget	6.000000	na
75.261885	0.043736	91.000000	nontarget	7.000000	75.271139
75.305620	0.039874	91.000000	nontarget	8.000000	na
75.345494	0.043756	91.000000	nontarget	9.000000	na
75.389250	0.039575	91.000000	nontarget	10.000000	na
75.428825	0.043193	91.000000	nontarget	11.000000	na
75.472017	0.050175	91.000000	nontarget	12.000000	na
75.522192	0.039844	91.000000	nontarget	13.000000	na
75.562036	0.043856	91.000000	nontarget	14.000000	na
75.605892	0.039838	91.000000	nontarget	15.000000	na
75.645729	0.042329	91.000000	nontarget	16.000000	na
75.688058	0.041267	92.000000	nontarget	1.000000	na
75.729325	0.042064	92.000000	nontarget	2.000000	na
75.771389	0.050803	92.000000	nontarget	3.000000	na
75.822192	0.049993	92.000000	nontarget	4.000000	na
75.872185	0.049475	92.000000	nontarget	5.000000	na
75.921660	0.050465	92.000000	nontarget	6.000000	na
75.972125	0.041159	92.000000	nontarget	7.000000	na
76.013284	0.041581	92.000000	nontarget	8.000000	na
76.054865	0.050754	92.000000	nontarget	9.000000	na
76.105618	0.049472	92.000000	nontarget	10.000000	76.140869
76.155090	0.040223	92.000000	nontarget	11.000000	na
76.195313	0.043673	92.000000	nontarget	12.000000	na
76.238986	0.039788	92.000000	nontarget	13.000000	na
76.278774	0.042623	92.000000	nontarget	14.000000	na
76.321397	0.050985	92.000000	nontarget	15.000000	na
76.372381	0.039968	92.000000	nontarget	16.000000	na
76.412349	0.043202	93.000000	target	1.000000	na
76.455551	0.049985	93.000000	target	2.000000	na
76.505536	0.050118	93.000000	target	3.000000	na
76.555654	0.049923	93.000000	target	4.000000	na
76.605577	0.040295	93.000000	target	5.000000	na
76.645872	0.042709	93.000000	target	6.000000	na
76.688581	0.050417	93.000000	target	7.000000	na
76.738998	0.049979	93.000000	target	8.000000	na
76.788977	0.049636	93.000000	target	9.000000	na
76.838613	0.040865	93.000000	target	10.000000	na
76.879478	0.041770	93.000000	target	11.000000	na
76.921248	0.040888	93.000000	target	12.000000	na
76.962136	0.043311	93.000000	target	13.000000	na
77.005446	0.040479	93.000000	target	14.000000	na
77.045925	0.042729	93.000000	target	15.000000	na
77.088654	0.049965	93.000000	target	16.000000	77.106635
77.138619	0.050704	94.000000	nontarget	1.000000	77.145253
77.189323	0.049982	94.000000	nontarget	2.000000	na
77.239305	0.049923	94.000000	nontarget	3.000000	na
77.289228	0.049678	94.000000	nontarget	4.000000	na
77.338907	0.039922	94.000000	nontarget	5.000000	na
77.378829	0.043567	94.000000	nontarget	6.000000	na
77.422396	0.050121	94.000000	nontarget	7.000000	na
77.472517	0.039971	94.000000	nontarget	8.000000	na
77.512488	0.042145	94.000000	nontarget	9.000000	na
77.554633	0.040698	94.000000	nontarget	10.000000	na
77.595331	0.042974	94.000000	nontarget	11.000000	na
77.638305	0.050793	94.000000	nontarget	12.000000	na
77.689098	0.039815	94.000000	nontarget	13.000000	na
77.728913	0.043093	94.000000	nontarget	14.000000	na
77.772007	0.040771	94.000000	nontarget	15.000000	na
77.812778	0.042293	94.000000	nontarget	16.000000	na
77.855071	0.050722	95.000000	nontarget	1.000000	na
77.905793	0.049338	95.000000	nontarget	2.000000	na
77.955131	0.043360	95.000000	nontarget	3.000000	na
77.998490	0.047989	95.000000	nontarget	4.000000	na
78.046479	0.042767	95.000000	nontarget	5.000000	78.077381
78.089246	0.049098	95.000000	nontarget	6.000000	na
78.138344	0.041152	95.000000	nontarget	7.000000	na
78.179496	0.042256	95.000000	nontarget	8.000000	na
78.221752	0.050239	95.000000	nontarget	9.000000	na
78.271991	0.040600	95.000000	nontarget	10.000000	na
78.312590	0.042108	95.000000	nontarget	11.000000	na
78.354699	0.051138	95.000000	nontarget	12.000000	na
78.405837	0.049756	95.000000	nontarget	13.000000	na
78.455593	0.049914	95.000000	nontarget	14.000000	na
78.505507	0.050104	95.000000	nontarget	15.000000	na
78.555610	0.050116	95.000000	nontarget	16.000000	na
78.605727	0.050080	96.000000	nontarget	1.000000	na
78.655806	0.049726	96.000000	nontarget	2.000000	na
78.705532	0.050320	96.000000	nontarget	3.000000	na
78.755852	0.040042	96.000000	nontarget	4.000000	na
78.795894	0.042715	96.000000	nontarget	5.000000	na
78.838609	0.049844	96.000000	nontarget	6.000000	na
78.888453	0.040652	96.000000	nontarget	7.000000	na
78.929106	0.042929	96.000000	nontarget	8.000000	na
78.972034	0.041272	96.000000	nontarget	9.000000	na
79.013307	0.041704	96.000000	nontarget	10.000000	na
79.055010	0.050360	96.000000	nontarget	11.000000	79.061354
79.105371	0.040206	96.000000	nontarget	12.000000	na
79.145576	0.043415	96.000000	nontarget	13.000000	na
79.188991	0.050088	96.000000	nontarget	14.000000	na
79.239079	0.039823	96.000000	nontarget	15.000000	na
79.278903	0.042371	96.000000	nontarget	16.000000	na
79.321274	0.050960	97.000000	nontarget	1.000000	na
79.372234	0.040020	97.000000	nontarget	2.000000	na
79.412253	0.042374	97.000000	nontarget	3.000000	na
79.454627	0.050825	97.000000	nontarget	4.000000	na
79.505452	0.040089	97.000000	nontarget	5.000000	na
79.545541	0.042673	97.000000	nontarget	6.000000	na
79.588214	0.040575	97.000000	nontarget	7.000000	na
79.628788	0.043411	97.000000	nontarget	8.000000	na
79.672200	0.041042	97.000000	nontarget	9.000000	na
79.713242	0.041856	97.000000	nontarget	10.000000	na
79.755097	0.040598	97.000000	nontarget	11.000000	na
79.795696	0.042210	97.000000	nontarget	12.000000	na
79.837906	0.050962	97.000000	nontarget	13.000000	na
79.888868	0.050041	97.000000	nontarget	14.000000	na
79.938909	0.044747	97.000000	nontarget	15.000000	79.970393
79.983657	0.046096	97.000000	nontarget	16.000000	na
80.029753	0.041908	98.000000	nontarget	1.000000	80.036361
80.071661	0.050315	98.000000	nontarget	2.000000	na
80.121976	0.040074	98.000000	nontarget	3.000000	na
80.162051	0.042443	98.000000	nontarget	4.000000	na
80.204493	0.040942	98.000000	nontarget	5.000000	na
80.245436	0.042987	98.000000	nontarget	6.000000	na
80.288422	0.041064	98.000000	nontarget	7.000000	na
80.329486	0.041978	98.000000	nontarget	8.000000	na
80.371465	0.040534	98.000000	nontarget	9.000000	na
80.411999	0.043093	98.000000	nontarget	10.000000	na
80.455092	0.050422	98.000000	nontarget	11.000000	na
80.505514	0.040272	98.000000	nontarget	12.000000	na
80.545786	0.042636	98.000000	nontarget	13.000000	na
80.588422	0.050310	98.000000	nontarget	14.000000	na
80.638732	0.039859	98.000000	nontarget	15.000000	na
80.678591	0.043517	98.000000	nontarget	16.000000	na
80.722108	0.040717	99.000000	nontarget	1.000000	na
80.762825	0.042275	99.000000	nontarget	2.000000	na
80.805101	0.040716	99.000000	nontarget	3.000000	na
80.845817	0.043180	99.000000	nontarget	4.000000	na
80.888998	0.049739	99.000000	nontarget	5.000000	80.923120
80.938737	0.039921	99.000000	nontarget	6.000000	na
80.978658	0.042812	99.000000	nontarget	7.000000	na
81.021469	0.041668	99.000000	nontarget	8.000000	na
81.063138	0.042713	99.000000	nontarget	9.000000	na
81.105851	0.039796	99.000000	nontarget	10.000000	na
81.145647	0.043500	99.000000	nontarget	11.000000	na
81.189147	0.039557	99.000000	nontarget	12.000000	na
81.228704	0.043382	99.000000	nontarget	13.000000	na
81.272086	0.039817	99.000000	nontarget	14.000000	na
81.311903	0.042825	99.000000	nontarget	15.000000	na
81.354728	0.050793	99.000000	nontarget	16.000000	na
81.405521	0.040018	100.000000	nontarget	1.000000	na
81.445539	0.043713	100.000000	nontarget	2.000000	na
81.489252	0.039484	100.000000	nontarget	3.000000	na
81.528735	0.043299	100.000000	nontarget	4.000000	na
81.572035	0.049422	100.000000	nontarget	5.000000	na
81.621457	0.040498	100.000000	nontarget	6.000000	na
81.661955	0.043408	100.000000	nontarget	7.000000	na
81.705363	0.050160	100.000000	nontarget	8.000000	na
81.755523	0.049805	100.000000	nontarget	9.000000	na
81.805327	0.040080	100.000000	nontarget	10.000000	na
81.845408	0.043974	100.000000	nontarget	11.000000	81.870087
81.889382	0.049132	100.000000	nontarget	12.000000	na
81.938514	0.050313	100.000000	nontarget	13.000000	na
81.988827	0.040563	100.000000	nontarget	14.000000	na
82.029391	0.042279	100.000000	nontarget	15.000000	na
82.071670	0.050425	100.000000	nontarget	16.000000	na
82.122095	0.039928	101.000000	nontarget	1.000000	na
82.162023	0.043281	101.000000	nontarget	2.000000	na
82.205303	0.039956	101.000000	nontarget	3.000000	na
82.245260	0.042885	101.000000	nontarget	4.000000	na
82.288145	0.050709	101.000000	nontarget	5.000000	na
82.338854	0.039952	101.000000	nontarget	6.000000	na
82.378806	0.043647	101.000000	nontarget	7.000000	na
82.422452	0.039743	101.000000	nontarget	8.000000	na
82.462195	0.042620	101.000000	nontarget	9.000000	na
82.504815	0.050914	101.000000	nontarget	10.000000	na
82.555729	0.049537	101.000000	nontarget	11.000000	na
82.605266	0.040521	101.000000	nontarget	12.000000	na
82.645787	0.042331	101.000000	nontarget	13.000000	na
82.688118	0.041509	101.000000	nontarget	14.000000	82.709095
82.729627	0.042915	101.000000	nontarget	15.000000	na
82.772542	0.039763	101.000000	nontarget	16.000000	na
82.812305	0.043400	102.000000	nontarget	1.000000	82.817347
82.855705	0.049052	102.000000	nontarget	2.000000	na
82.904757	0.041279	102.000000	nontarget	3.000000	na
82.946036	0.042309	102.000000	nontarget	4.000000	na
82.988345	0.050947	102.000000	nontarget	5.000000	na
83.039292	0.049761	102.000000	nontarget	6.000000	na
83.089053	0.049773	102.000000	nontarget	7.000000	na
83.138826	0.049138	102.000000	nontarget	8.000000	na
83.187964	0.041415	102.000000	nontarget	9.000000	na
83.229380	0.042488	102.000000	nontarget	10.000000	na
83.271867	0.041145	102.000000	nontarget	11.000000	na
83.313012	0.042210	102.000000	nontarget	12.000000	na
83.355221	0.040650	102.000000	nontarget	13.000000	na
83.395871	0.042819	102.000000	nontarget	14.000000	na
83.438690	0.040808	102.000000	nontarget	15.000000	na
83.479498	0.041776	102.000000	nontarget	16.000000	na
83.521274	0.041146	103.000000	nontarget	1.000000	83.530190
83.562420	0.042329	103.000000	nontarget	2.000000	na
83.604748	0.041165	103.000000	nontarget	3.000000	na
83.645914	0.042106	103.000000	nontarget	4.000000	na
83.688020	0.050389	103.000000	nontarget	5.000000	na
83.738409	0.041060	103.000000	nontarget	6.000000	na
83.779469	0.042932	103.000000	nontarget	7.000000	na
83.822400	0.049807	103.000000	nontarget	8.000000	na
83.872207	0.049987	103.000000	nontarget	9.000000	na
83.922194	0.040106	103.000000	nontarget	10.000000	na
83.962300	0.043390	103.000000	nontarget	11.000000	na
84.005690	0.050186	103.000000	nontarget	12.000000	na
84.055876	0.049623	103.000000	nontarget	13.000000	na
84.105499	0.049647	103.000000	nontarget	14.000000	na
84.155145	0.040046	103.000000	nontarget	15.000000	na
84.195191	0.042658	103.000000	nontarget	16.000000	na
84.237849	0.051065	104.000000	nontarget	1.000000	na
84.288915	0.049514	104.000000	nontarget	2.000000	na
84.338428	0.040316	104.000000	nontarget	3.000000	na
84.378745	0.043461	104.000000	nontarget	4.000000	na
84.422206	0.040184	104.000000	nontarget	5.000000	na
84.462390	0.043505	104.000000	nontarget	6.000000	84.471662
84.505896	0.049353	104.000000	nontarget	7.000000	na
84.555248	0.040686	104.000000	nontarget	8.000000	na
84.595934	0.043008	104.000000	nontarget	9.000000	na
84.638942	0.049907	104.000000	nontarget	10.000000	na
84.688849	0.049824	104.000000	nontarget	11.000000	na
84.738673	0.049742	104.000000	nontarget	12.000000	na
84.788414	0.050385	104.000000	nontarget	13.000000	na
84.838800	0.040270	104.000000	nontarget	14.000000	na
84.879070	0.042328	104.000000	nontarget	15.000000	na
84.921398	0.050970	104.000000	nontarget	16.000000	na
84.972369	0.040872	105.000000	nontarget	1.000000	na
85.013241	0.049433	105.000000	nontarget	2.000000	na
85.062674	0.042749	105.000000	nontarget	3.000000	na
85.105423	0.040255	105.000000	nontarget	4.000000	na
85.145678	0.042216	105.000000	nontarget	5.000000	na
85.187894	0.050447	105.000000	nontarget	6.000000	na
85.238342	0.040835	105.000000	nontarget	7.000000	na
85.279177	0.042603	105.000000	nontarget	8.000000	na
85.321779	0.050271	105.000000	nontarget	9.000000	85.327807
85.372051	0.050153	105.000000	nontarget	10.000000	na
85.422204	0.049971	105.000000	nontarget	11.000000	na
85.472175	0.049846	105.000000	nontarget	12.000000	na
85.522021	0.050059	105.000000	nontarget	13.000000	na
85.572080	0.050099	105.000000	nontarget	14.000000	na
85.622179	0.049891	105.000000	nontarget	15.000000	na
85.672070	0.039943	105.000000	nontarget	16.000000	na
85.712013	0.043690	106.000000	nontarget	1.000000	na
85.755703	0.039454	106.000000	nontarget	2.000000	na
85.795157	0.043522	106.000000	nontarget	3.000000	na
85.838679	0.040800	106.000000	nontarget	4.000000	na
85.879478	0.041577	106.000000	nontarget	5.000000	na
85.921055	0.040714	106.000000	nontarget	6.000000	na
85.961769	0.042822	106.000000	nontarget	7.000000	na
86.004591	0.041605	106.000000	nontarget	8.000000	na
86.046196	0.041836	106.000000	nontarget	9.000000	na
86.088032	0.040655	106.000000	nontarget	10.000000	na
86.128687	0.043362	106.000000	nontarget	11.000000	na
86.172048	0.041077	106.000000	nontarget	12.000000	na
86.213125	0.041818	106.000000	nontarget	13.000000	na
86.254943	0.050727	106.000000	nontarget	14.000000	86.260037
86.305670	0.040056	106.000000	nontarget	15.000000	na
86.345727	0.042275	106.000000	nontarget	16.000000	na
86.388002	0.041654	107.000000	nontarget	1.000000	86.393271
86.429656	0.041774	107.000000	nontarget	2.000000	na
86.471430	0.050930	107.000000	nontarget	3.000000	na
86.522360	0.040131	107.000000	nontarget	4.000000	na
86.562491	0.042699	107.000000	nontarget	5.000000	na
86.605190	0.049825	107.000000	nontarget	6.000000	na
86.655015	0.040674	107.000000	nontarget	7.000000	na
86.695689	0.042805	107.000000	nontarget	8.000000	na
86.738494	0.049800	107.000000	nontarget	9.000000	na
86.788294	0.041110	107.000000	nontarget	10.000000	na
86.829405	0.042387	107.000000	nontarget	11.000000	na
86.871791	0.050765	107.000000	nontarget	12.000000	na
86.922557	0.049594	107.000000	nontarget	13.000000	na
86.972150	0.039682	107.000000	nontarget	14.000000	na
87.011833	0.043949	107.000000	nontarget	15.000000	na
87.055782	0.049780	107.000000	nontarget	16.000000	na
87.105562	0.049729	108.000000	target	1.000000	na
87.155291	0.040442	108.000000	target	2.000000	na
87.195733	0.042399	108.000000	target	3.000000	na
87.238132	0.050591	108.000000	target	4.000000	na
87.288724	0.049777	108.000000	target	5.000000	na
87.338501	0.050474	108.000000	target	6.000000	na
87.388975	0.049644	108.000000	target	7.000000	na
87.438619	0.040125	108.000000	target	8.000000	na
87.478743	0.042574	108.000000	target	9.000000	na
87.521317	0.050625	108.000000	target	10.000000	na
87.571942	0.040591	108.000000	target	11.000000	na
87.612533	0.041943	108.000000	target	12.000000	na
87.654476	0.041976	108.000000	target	13.000000	na
87.696452	0.041734	108.000000	target	14.000000	na
87.738186	0.041532	108.000000	target	15.000000	na
87.779718	0.042608	108.000000	target	16.000000	87.793402
87.822326	0.050051	109.000000	nontarget	1.000000	87.828752
87.872377	0.049593	109.000000	nontarget	2.000000	na
87.921970	0.050000	109.000000	nontarget	3.000000	na
87.971969	0.039888	109.000000	nontarget	4.000000	na
88.011857	0.043349	109.000000	nontarget	5.000000	na
88.055207	0.050269	109.000000	nontarget	6.000000	na
88.105476	0.040215	109.000000	nontarget	7.000000	na
88.145691	0.043424	109.000000	nontarget	8.000000	na
88.189114	0.039943	109.000000	nontarget	9.000000	na
88.229057	0.042755	109.000000	nontarget	10.000000	na
88.271812	0.049890	109.000000	nontarget	11.000000	na
88.321702	0.040521	109.000000	nontarget	12.000000	na
88.362223	0.042376	109.000000	nontarget	13.000000	na
88.404599	0.041000	109.000000	nontarget	14.000000	na
88.445598	0.043270	109.000000	nontarget	15.000000	na
88.488869	0.039611	109.000000	nontarget	16.000000	na
88.528480	0.043543	110.000000	nontarget	1.000000	na
88.572022	0.039932	110.000000	nontarget	2.000000	88.594904
88.611954	0.043738	110.000000	nontarget	3.000000	na
88.655692	0.039412	110.000000	nontarget	4.000000	na
88.695104	0.042855	110.000000	nontarget	5.000000	na
88.737959	0.050966	110.000000	nontarget	6.000000	na
88.788925	0.039628	110.000000	nontarget	7.000000	na
88.828553	0.042908	110.000000	nontarget	8.000000	na
88.871461	0.050492	110.000000	nontarget	9.000000	na
88.921953	0.040260	110.000000	nontarget	10.000000	na
88.962213	0.043513	110.000000	nontarget	11.000000	na
89.005726	0.049880	110.000000	nontarget	12.000000	na
89.055607	0.050150	110.000000	nontarget	13.000000	na
89.105756	0.049684	110.000000	nontarget	14.000000	na
89.155441	0.049989	110.000000	nontarget	15.000000	na
89.205430	0.040446	110.000000	nontarget	16.000000	na
89.245875	0.042591	111.000000	nontarget	1.000000	na
89.288467	0.049934	111.000000	nontarget	2.000000	na
89.338401	0.041326	111.000000	nontarget	3.000000	na
89.379727	0.042584	111.000000	nontarget	4.000000	na
89.422311	0.039773	111.000000	nontarget	5.000000	na
89.462084	0.043398	111.000000	nontarget	6.000000	89.475085
89.505482	0.040023	111.000000	nontarget	7.000000	na
89.545505	0.043549	111.000000	nontarget	8.000000	na
89.589054	0.039962	111.000000	nontarget	9.000000	na
89.629016	0.042762	111.000000	nontarget	10.000000	na
89.671778	0.050277	111.000000	nontarget	11.000000	na
89.722055	0.040588	111.000000	nontarget	12.000000	na
89.762644	0.042472	111.000000	nontarget	13.000000	na
89.805115	0.050321	111.000000	nontarget	14.000000	na
89.855436	0.049927	111.000000	nontarget	15.000000	na
89.905363	0.040455	111.000000	nontarget	16.000000	na
89.945818	0.042593	112.000000	nontarget	1.000000	na
89.988411	0.040088	112.000000	nontarget	2.000000	na
90.028499	0.042381	112.000000	nontarget	3.000000	na
90.070880	0.041749	112.000000	nontarget	4.000000	na
90.112629	0.042329	112.000000	nontarget	5.000000	na
90.154958	0.049773	112.000000	nontarget	6.000000	na
90.204731	0.040576	112.000000	nontarget	7.000000	na
90.245307	0.043066	112.000000	nontarget	8.000000	na
90.288373	0.041218	112.000000	nontarget	9.000000	na
90.329591	0.041940	112.000000	nontarget	10.000000	na
90.371531	0.042704	112.000000	nontarget	11.000000	90.399530
90.414235	0.048794	112.000000	nontarget	12.000000	na
90.463028	0.041658	112.000000	nontarget	13.000000	na
90.504686	0.041902	112.000000	nontarget	14.000000	na
90.546588	0.041352	112.000000	nontarget	15.000000	na
90.587940	0.050735	112.000000	nontarget	16.000000	na
90.638675	0.039868	113.000000	nontarget	1.000000	na
90.678543	0.043384	113.000000	nontarget	2.000000	na
90.721928	0.040770	113.000000	nontarget	3.000000	na
90.762697	0.042048	113.000000	nontarget	4.000000	na
90.804745	0.040748	113.000000	nontarget	5.000000	na
90.845493	0.042979	113.000000	nontarget	6.000000	na
90.888472	0.041033	113.000000	nontarget	7.000000	na
90.929505	0.041729	113.000000	nontarget	8.000000	na
90.971233	0.042017	113.000000	nontarget	9.000000	na
91.013250	0.049394	113.000000	nontarget	10.000000	na
91.062644	0.042590	113.000000	nontarget	11.000000	na
91.105233	0.041160	113.000000	nontarget	12.000000	na
91.146394	0.050231	113.000000	nontarget	13.000000	na
91.196625	0.041680	113.000000	nontarget	14.000000	na
91.238304	0.041368	113.000000	nontarget	15.000000	na
91.279672	0.041617	113.000000	nontarget	16.000000	91.301364
91.321289	0.040688	114.000000	nontarget	1.000000	91.326928
91.361977	0.043599	114.000000	nontarget	2.000000	na
91.405576	0.039777	114.000000	nontarget	3.000000	na
91.445353	0.042438	114.000000	nontarget	4.000000	na
91.487791	0.051137	114.000000	nontarget	5.000000	na
91.538928	0.049707	114.000000	nontarget	6.000000	na
91.588635	0.049364	114.000000	nontarget	7.000000	na
91.637999	0.041332	114.000000	nontarget	8.000000	na
91.679332	0.041857	114.000000	nontarget	9.000000	na
91.721188	0.040862	114.000000	nontarget	10.000000	na
91.762050	0.043255	114.000000	nontarget	11.000000	na
91.805305	0.040877	114.000000	nontarget	12.000000	na
91.846182	0.041814	114.000000	nontarget	13.000000	na
91.887995	0.041234	114.000000	nontarget	14.000000	na
91.929230	0.041596	114.000000	nontarget	15.000000	na
91.970826	0.042420	114.000000	nontarget	16.000000	na
92.013246	0.049887	115.000000	nontarget	1.000000	na
92.063133	0.041475	115.000000	nontarget	2.000000	na
92.104608	0.049839	115.000000	nontarget	3.000000	92.140354
92.154447	0.041815	115.000000	nontarget	4.000000	na
92.196262	0.042580	115.000000	nontarget	5.000000	na
92.238842	0.049276	115.000000	nontarget	6.000000	na
92.288118	0.050616	115.000000	nontarget	7.000000	na
92.338734	0.040265	115.000000	nontarget	8.000000	na
92.378999	0.042103	115.000000	nontarget	9.000000	na
92.421102	0.050874	115.000000	nontarget	10.000000	na
92.471976	0.040487	115.000000	nontarget	11.000000	na
92.512464	0.042487	115.000000	nontarget	12.000000	na
92.554951	0.049745	115.000000	nontarget	13.000000	na
92.604696	0.041514	115.000000	nontarget	14.000000	na
92.646209	0.042320	115.000000	nontarget	15.000000	na
92.688529	0.049957	115.000000	nontarget	16.000000	na
92.738486	0.050197	116.000000	nontarget	1.000000	na
92.788683	0.049887	116.000000	nontarget	2.000000	na
92.838569	0.040985	116.000000	nontarget	3.000000	na
92.879555	0.041655	116.000000	nontarget	4.000000	na
92.921209	0.050783	116.000000	nontarget	5.000000	na
92.971992	0.041229	116.000000	nontarget	6.000000	na
93.013221	0.042005	116.000000	nontarget	7.000000	na
93.055227	0.040890	116.000000	nontarget	8.000000	na
93.096117	0.041522	116.000000	nontarget	9.000000	93.116973
93.137638	0.041296	116.000000	nontarget	10.000000	na
93.178934	0.042042	116.000000	nontarget	11.000000	na
93.220976	0.042118	116.000000	nontarget	12.000000	na
93.263094	0.049190	116.000000	nontarget	13.000000	na
93.312284	0.042922	116.000000	nontarget	14.000000	na
93.355206	0.040679	116.000000	nontarget	15.000000	na
93.395885	0.041658	116.000000	nontarget	16.000000	na
93.437543	0.041961	117.000000	nontarget	1.000000	na
93.479504	0.041297	117.000000	nontarget	2.000000	na
93.520801	0.042389	117.000000	nontarget	3.000000	na
93.563190	0.048898	117.000000	nontarget	4.000000	na
93.612088	0.043030	117.000000	nontarget	5.000000	na
93.655118	0.041073	117.000000	nontarget	6.000000	na
93.696192	0.049384	117.000000	nontarget	7.000000	na
93.745576	0.042988	117.000000	nontarget	8.000000	na
93.788564	0.040924	117.000000	nontarget	9.000000	na
93.829488	0.041763	117.000000	nontarget	10.000000	na
93.871250	0.040760	117.000000	nontarget	11.000000	na
93.912011	0.043248	117.000000	nontarget	12.000000	na
93.955259	0.043144	117.000000	nontarget	13.000000	na
93.998403	0.047415	117.000000	nontarget	14.000000	na
94.045818	0.042363	117.000000	nontarget	15.000000	94.057142
94.088181	0.050587	117.000000	nontarget	16.000000	na
94.138768	0.050140	118.000000	nontarget	1.000000	94.145377
94.188908	0.049773	118.000000	nontarget	2.000000	na
94.238681	0.040278	118.000000	nontarget	3.000000	na
94.278959	0.042347	118.000000	nontarget	4.000000	na
94.321307	0.040952	118.000000	nontarget	5.000000	na
94.362259	0.041948	118.000000	nontarget	6.000000	na
94.404207	0.041690	118.000000	nontarget	7.000000	na
94.445898	0.042117	118.000000	nontarget	8.000000	na
94.488015	0.040758	118.000000	nontarget	9.000000	na
94.528772	0.043184	118.000000	nontarget	10.000000	na
94.571957	0.041006	118.000000	nontarget	11.000000	na
94.612963	0.041876	118.000000	nontarget	12.000000	na
94.654839	0.040802	118.000000	nontarget	13.000000	na
94.695641	0.042077	118.000000	nontarget	14.000000	na
94.737718	0.051099	118.000000	nontarget	15.000000	na
94.788817	0.049888	118.000000	nontarget	16.000000	na
94.838706	0.040045	119.000000	nontarget	1.000000	na
94.878751	0.042801	119.000000	nontarget	2.000000	na
94.921552	0.041400	119.000000	nontarget	3.000000	94.935300
94.962952	0.041573	119.000000	nontarget	4.000000	na
95.004525	0.041994	119.000000	nontarget	5.000000	na
95.046519	0.041280	119.000000	nontarget	6.000000	na
95.087799	0.041694	119.000000	nontarget	7.000000	na
95.129492	0.042364	119.000000	nontarget	8.000000	na
95.171856	0.039949	119.000000	nontarget	9.000000	na
95.211805	0.043416	119.000000	nontarget	10.000000	na
95.255221	0.040676	119.000000	nontarget	11.000000	na
95.295897	0.042043	119.000000	nontarget	12.000000	na
95.337940	0.050665	119.000000	nontarget	13.000000	na
95.388604	0.040573	119.000000	nontarget	14.000000	na
95.429177	0.041894	119.000000	nontarget	15.000000	na
95.471072	0.050940	119.000000	nontarget	16.000000	na
95.522012	0.039842	120.000000	nontarget	1.000000	na
95.561854	0.042919	120.000000	nontarget	2.000000	na
95.604773	0.050590	120.000000	nontarget	3.000000	na
95.655364	0.040197	120.000000	nontarget	4.000000	na
95.695561	0.042650	120.000000	nontarget	5.000000	na
95.738212	0.050038	120.000000	nontarget	6.000000	na
95.788249	0.041642	120.000000	nontarget	7.000000	95.811926
95.829891	0.041902	120.000000	nontarget	8.000000	na
95.871792	0.041157	120.000000	nontarget	9.000000	na
95.912949	0.042443	120.000000	nontarget	10.000000	na
95.955392	0.043847	120.000000	nontarget	11.000000	na
95.999239	0.046837	120.000000	nontarget	12.000000	na
96.046076	0.042509	120.000000	nontarget	13.000000	na
96.088585	0.040940	120.000000	nontarget	14.000000	na
96.129525	0.041696	120.000000	nontarget	15.000000	na
96.171221	0.040684	120.000000	nontarget	16.000000	na
96.211904	0.042424	121.000000	nontarget	1.000000	na
96.254329	0.041079	121.000000	nontarget	2.000000	na
96.295407	0.042495	121.000000	nontarget	3.000000	na
96.337902	0.050023	121.000000	nontarget	4.000000	na
96.387926	0.041707	121.000000	nontarget	5.000000	na
96.429633	0.041462	121.000000	nontarget	6.000000	na
96.471095	0.040935	121.000000	nontarget	7.000000	na
96.512030	0.043230	121.000000	nontarget	8.000000	na
96.555260	0.041199	121.000000	nontarget	9.000000	na
96.596459	0.049990	121.000000	nontarget	10.000000	na
96.646449	0.041973	121.000000	nontarget	11.000000	na
96.688422	0.041107	121.000000	nontarget	12.000000	96.714510
