onset	duration	trial_number	trial_type	frame_number	time_of_response
8.066348	0.050025	1.000000	nontarget	1.000000	na
8.116374	0.050090	1.000000	nontarget	2.000000	na
8.166464	0.050179	1.000000	nontarget	3.000000	na
8.216643	0.049642	1.000000	nontarget	4.000000	na
8.266285	0.050263	1.000000	nontarget	5.000000	na
8.316548	0.049517	1.000000	nontarget	6.000000	na
8.366066	0.050284	1.000000	nontarget	7.000000	na
8.416349	0.050278	1.000000	nontarget	8.000000	na
8.466628	0.049658	1.000000	nontarget	9.000000	na
8.516285	0.050069	1.000000	nontarget	10.000000	na
8.566354	0.049400	1.000000	nontarget	11.000000	8.582180
8.615754	0.050144	1.000000	nontarget	12.000000	na
8.665898	0.050648	1.000000	nontarget	13.000000	na
8.716546	0.049707	1.000000	nontarget	14.000000	na
8.766253	0.049595	1.000000	nontarget	15.000000	na
8.815848	0.050627	1.000000	nontarget	16.000000	na
8.866474	0.049876	2.000000	nontarget	1.000000	na
8.916351	0.049997	2.000000	nontarget	2.000000	na
8.966348	0.049920	2.000000	nontarget	3.000000	na
9.016268	0.050079	2.000000	nontarget	4.000000	na
9.066346	0.050236	2.000000	nontarget	5.000000	na
9.116583	0.049757	2.000000	nontarget	6.000000	na
9.166340	0.049999	2.000000	nontarget	7.000000	na
9.216339	0.049976	2.000000	nontarget	8.000000	na
9.266314	0.050023	2.000000	nontarget	9.000000	na
9.316337	0.049477	2.000000	nontarget	10.000000	9.323278
9.365814	0.050506	2.000000	nontarget	11.000000	na
9.416319	0.050098	2.000000	nontarget	12.000000	na
9.466417	0.049519	2.000000	nontarget	13.000000	na
9.515936	0.049848	2.000000	nontarget	14.000000	na
9.565784	0.050552	2.000000	nontarget	15.000000	na
9.616335	0.049997	2.000000	nontarget	16.000000	na
9.666333	0.049504	3.000000	nontarget	1.000000	na
9.715837	0.049837	3.000000	nontarget	2.000000	na
9.765674	0.050658	3.000000	nontarget	3.000000	na
9.816333	0.050188	3.000000	nontarget	4.000000	na
9.866521	0.049421	3.000000	nontarget	5.000000	na
9.915942	0.050678	3.000000	nontarget	6.000000	na
9.966620	0.049039	3.000000	nontarget	7.000000	na
10.015658	0.050658	3.000000	nontarget	8.000000	na
10.066316	0.049356	3.000000	nontarget	9.000000	na
10.115672	0.050653	3.000000	nontarget	10.000000	na
10.166325	0.049310	3.000000	nontarget	11.000000	na
10.215635	0.050692	3.000000	nontarget	12.000000	10.230990
10.266327	0.049948	3.000000	nontarget	13.000000	na
10.316275	0.050144	3.000000	nontarget	14.000000	na
10.366419	0.050190	3.000000	nontarget	15.000000	na
10.416610	0.049878	3.000000	nontarget	16.000000	na
10.466487	0.049836	4.000000	nontarget	1.000000	na
10.516324	0.049383	4.000000	nontarget	2.000000	na
10.565706	0.050644	4.000000	nontarget	3.000000	na
10.616350	0.050150	4.000000	nontarget	4.000000	na
10.666500	0.049818	4.000000	nontarget	5.000000	na
10.716318	0.050004	4.000000	nontarget	6.000000	na
10.766322	0.049994	4.000000	nontarget	7.000000	na
10.816316	0.050149	4.000000	nontarget	8.000000	na
10.866465	0.049629	4.000000	nontarget	9.000000	na
10.916094	0.050220	4.000000	nontarget	10.000000	na
10.966314	0.050117	4.000000	nontarget	11.000000	na
11.016431	0.049880	4.000000	nontarget	12.000000	na
11.066311	0.050047	4.000000	nontarget	13.000000	na
11.116357	0.049510	4.000000	nontarget	14.000000	na
11.165867	0.050732	4.000000	nontarget	15.000000	na
11.216599	0.049398	4.000000	nontarget	16.000000	na
11.265998	0.050511	5.000000	nontarget	1.000000	11.272161
11.316509	0.049801	5.000000	nontarget	2.000000	na
11.366310	0.050137	5.000000	nontarget	3.000000	na
11.416447	0.049564	5.000000	nontarget	4.000000	na
11.466010	0.050396	5.000000	nontarget	5.000000	na
11.516406	0.049900	5.000000	nontarget	6.000000	na
11.566307	0.049348	5.000000	nontarget	7.000000	na
11.615655	0.050634	5.000000	nontarget	8.000000	na
11.666289	0.050300	5.000000	nontarget	9.000000	na
11.716589	0.049715	5.000000	nontarget	10.000000	na
11.766304	0.050118	5.000000	nontarget	11.000000	na
11.816423	0.049338	5.000000	nontarget	12.000000	na
11.865761	0.050544	5.000000	nontarget	13.000000	na
11.916305	0.049999	5.000000	nontarget	14.000000	11.946545
11.966304	0.049279	5.000000	nontarget	15.000000	na
12.015583	0.050716	5.000000	nontarget	16.000000	na
12.066299	0.049999	6.000000	nontarget	1.000000	12.072975
12.116298	0.050001	6.000000	nontarget	2.000000	na
12.166299	0.049946	6.000000	nontarget	3.000000	na
12.216245	0.049434	6.000000	nontarget	4.000000	na
12.265678	0.050296	6.000000	nontarget	5.000000	na
12.315974	0.050321	6.000000	nontarget	6.000000	na
12.366295	0.049901	6.000000	nontarget	7.000000	na
12.416197	0.050101	6.000000	nontarget	8.000000	na
12.466298	0.049900	6.000000	nontarget	9.000000	na
12.516198	0.050092	6.000000	nontarget	10.000000	na
12.566289	0.049666	6.000000	nontarget	11.000000	na
12.615956	0.050238	6.000000	nontarget	12.000000	na
12.666193	0.050012	6.000000	nontarget	13.000000	na
12.716205	0.050084	6.000000	nontarget	14.000000	na
12.766289	0.049359	6.000000	nontarget	15.000000	12.785501
12.815648	0.050641	6.000000	nontarget	16.000000	na
12.866290	0.049995	7.000000	nontarget	1.000000	12.872947
12.916285	0.049490	7.000000	nontarget	2.000000	na
12.965774	0.050189	7.000000	nontarget	3.000000	na
13.015963	0.050294	7.000000	nontarget	4.000000	na
13.066258	0.049700	7.000000	nontarget	5.000000	na
13.115958	0.050311	7.000000	nontarget	6.000000	na
13.166269	0.050023	7.000000	nontarget	7.000000	na
13.216292	0.050018	7.000000	nontarget	8.000000	na
13.266310	0.049009	7.000000	nontarget	9.000000	na
13.315319	0.051229	7.000000	nontarget	10.000000	na
13.366548	0.049696	7.000000	nontarget	11.000000	na
13.416244	0.049511	7.000000	nontarget	12.000000	na
13.465755	0.050620	7.000000	nontarget	13.000000	na
13.516375	0.049910	7.000000	nontarget	14.000000	na
13.566285	0.049988	7.000000	nontarget	15.000000	na
13.616273	0.049422	7.000000	nontarget	16.000000	na
13.665695	0.050586	8.000000	nontarget	1.000000	na
13.716280	0.049592	8.000000	nontarget	2.000000	13.723219
13.765872	0.050404	8.000000	nontarget	3.000000	na
13.816276	0.050113	8.000000	nontarget	4.000000	na
13.866389	0.049884	8.000000	nontarget	5.000000	na
13.916274	0.049908	8.000000	nontarget	6.000000	na
13.966182	0.050292	8.000000	nontarget	7.000000	na
14.016474	0.049802	8.000000	nontarget	8.000000	na
14.066276	0.049994	8.000000	nontarget	9.000000	na
14.116270	0.049533	8.000000	nontarget	10.000000	na
14.165804	0.050467	8.000000	nontarget	11.000000	na
14.216270	0.050041	8.000000	nontarget	12.000000	na
14.266312	0.050071	8.000000	nontarget	13.000000	na
14.316383	0.049987	8.000000	nontarget	14.000000	na
14.366369	0.049897	8.000000	nontarget	15.000000	na
14.416266	0.049933	8.000000	nontarget	16.000000	na
14.466199	0.050063	9.000000	nontarget	1.000000	14.500222
14.516262	0.050004	9.000000	nontarget	2.000000	na
14.566266	0.049977	9.000000	nontarget	3.000000	na
14.616244	0.050297	9.000000	nontarget	4.000000	na
14.666541	0.049727	9.000000	nontarget	5.000000	na
14.716268	0.050310	9.000000	nontarget	6.000000	na
14.766578	0.049700	9.000000	nontarget	7.000000	na
14.816278	0.049956	9.000000	nontarget	8.000000	na
14.866235	0.050025	9.000000	nontarget	9.000000	na
14.916260	0.049998	9.000000	nontarget	10.000000	na
14.966258	0.050114	9.000000	nontarget	11.000000	na
15.016372	0.050169	9.000000	nontarget	12.000000	na
15.066541	0.049717	9.000000	nontarget	13.000000	na
15.116258	0.049319	9.000000	nontarget	14.000000	na
15.165577	0.050591	9.000000	nontarget	15.000000	na
15.216168	0.050075	9.000000	nontarget	16.000000	15.227575
15.266243	0.050008	10.000000	nontarget	1.000000	15.272844
15.316252	0.049625	10.000000	nontarget	2.000000	na
15.365877	0.049673	10.000000	nontarget	3.000000	na
15.415550	0.050971	10.000000	nontarget	4.000000	na
15.466522	0.049858	10.000000	nontarget	5.000000	na
15.516380	0.049859	10.000000	nontarget	6.000000	na
15.566239	0.049785	10.000000	nontarget	7.000000	na
15.616024	0.049937	10.000000	nontarget	8.000000	na
15.665960	0.050287	10.000000	nontarget	9.000000	na
15.716247	0.050004	10.000000	nontarget	10.000000	na
15.766251	0.049451	10.000000	nontarget	11.000000	na
15.815702	0.050520	10.000000	nontarget	12.000000	na
15.866222	0.049760	10.000000	nontarget	13.000000	na
15.915982	0.050154	10.000000	nontarget	14.000000	15.940110
15.966136	0.049633	10.000000	nontarget	15.000000	na
16.015770	0.050362	10.000000	nontarget	16.000000	na
16.066131	0.050110	11.000000	nontarget	1.000000	16.073171
16.116242	0.050000	11.000000	nontarget	2.000000	na
16.166242	0.049999	11.000000	nontarget	3.000000	na
16.216241	0.049932	11.000000	nontarget	4.000000	na
16.266173	0.050176	11.000000	nontarget	5.000000	na
16.316349	0.049889	11.000000	nontarget	6.000000	na
16.366238	0.049430	11.000000	nontarget	7.000000	na
16.415668	0.049978	11.000000	nontarget	8.000000	na
16.465647	0.050338	11.000000	nontarget	9.000000	na
16.515985	0.050250	11.000000	nontarget	10.000000	na
16.566235	0.050000	11.000000	nontarget	11.000000	na
16.616234	0.049213	11.000000	nontarget	12.000000	na
16.665447	0.050784	11.000000	nontarget	13.000000	na
16.716231	0.050035	11.000000	nontarget	14.000000	na
16.766266	0.049965	11.000000	nontarget	15.000000	16.799987
16.816231	0.050236	11.000000	nontarget	16.000000	na
16.866467	0.049791	12.000000	nontarget	1.000000	16.873001
16.916258	0.049972	12.000000	nontarget	2.000000	na
16.966231	0.050249	12.000000	nontarget	3.000000	na
17.016480	0.049748	12.000000	nontarget	4.000000	na
17.066228	0.050001	12.000000	nontarget	5.000000	na
17.116229	0.050001	12.000000	nontarget	6.000000	na
17.166231	0.050003	12.000000	nontarget	7.000000	na
17.216234	0.049990	12.000000	nontarget	8.000000	na
17.266225	0.049659	12.000000	nontarget	9.000000	na
17.315884	0.049716	12.000000	nontarget	10.000000	na
17.365600	0.050658	12.000000	nontarget	11.000000	na
17.416257	0.049972	12.000000	nontarget	12.000000	na
17.466229	0.049965	12.000000	nontarget	13.000000	na
17.516194	0.050029	12.000000	nontarget	14.000000	na
17.566224	0.049470	12.000000	nontarget	15.000000	na
17.615694	0.050660	12.000000	nontarget	16.000000	na
17.666354	0.049897	13.000000	nontarget	1.000000	na
17.716250	0.049975	13.000000	nontarget	2.000000	na
17.766225	0.049594	13.000000	nontarget	3.000000	na
17.815819	0.050055	13.000000	nontarget	4.000000	17.822038
17.865874	0.050345	13.000000	nontarget	5.000000	na
17.916219	0.049982	13.000000	nontarget	6.000000	na
17.966202	0.049418	13.000000	nontarget	7.000000	na
18.015619	0.050779	13.000000	nontarget	8.000000	na
18.066399	0.049758	13.000000	nontarget	9.000000	na
18.116157	0.050054	13.000000	nontarget	10.000000	na
18.166211	0.050000	13.000000	nontarget	11.000000	na
18.216211	0.049909	13.000000	nontarget	12.000000	na
18.266120	0.050089	13.000000	nontarget	13.000000	na
18.316210	0.049418	13.000000	nontarget	14.000000	na
18.365628	0.050586	13.000000	nontarget	15.000000	na
18.416214	0.049995	13.000000	nontarget	16.000000	na
18.466209	0.050001	14.000000	nontarget	1.000000	18.477524
18.516210	0.050197	14.000000	nontarget	2.000000	na
18.566407	0.049141	14.000000	nontarget	3.000000	na
18.615547	0.050665	14.000000	nontarget	4.000000	na
18.666212	0.049558	14.000000	nontarget	5.000000	na
18.715770	0.050455	14.000000	nontarget	6.000000	na
18.766225	0.049981	14.000000	nontarget	7.000000	na
18.816207	0.050002	14.000000	nontarget	8.000000	na
18.866208	0.049997	14.000000	nontarget	9.000000	na
18.916206	0.050097	14.000000	nontarget	10.000000	na
18.966303	0.049897	14.000000	nontarget	11.000000	na
19.016200	0.049639	14.000000	nontarget	12.000000	na
19.065839	0.050545	14.000000	nontarget	13.000000	na
19.116383	0.049863	14.000000	nontarget	14.000000	na
19.166246	0.049245	14.000000	nontarget	15.000000	na
19.215491	0.050675	14.000000	nontarget	16.000000	19.222098
19.266166	0.049294	15.000000	nontarget	1.000000	19.272690
19.315460	0.050738	15.000000	nontarget	2.000000	na
19.366197	0.049279	15.000000	nontarget	3.000000	na
19.415476	0.050718	15.000000	nontarget	4.000000	na
19.466195	0.049889	15.000000	nontarget	5.000000	na
19.516084	0.050114	15.000000	nontarget	6.000000	na
19.566198	0.049993	15.000000	nontarget	7.000000	na
19.616191	0.050001	15.000000	nontarget	8.000000	na
19.666192	0.050004	15.000000	nontarget	9.000000	na
19.716196	0.050320	15.000000	nontarget	10.000000	na
19.766516	0.048946	15.000000	nontarget	11.000000	na
19.815462	0.050729	15.000000	nontarget	12.000000	na
19.866191	0.049999	15.000000	nontarget	13.000000	na
19.916190	0.050004	15.000000	nontarget	14.000000	na
19.966194	0.049997	15.000000	nontarget	15.000000	na
20.016190	0.049569	15.000000	nontarget	16.000000	20.022802
20.065759	0.050672	16.000000	nontarget	1.000000	20.072381
20.116431	0.049952	16.000000	nontarget	2.000000	na
20.166383	0.049891	16.000000	nontarget	3.000000	na
20.216274	0.049483	16.000000	nontarget	4.000000	na
20.265757	0.050426	16.000000	nontarget	5.000000	na
20.316183	0.050102	16.000000	nontarget	6.000000	na
20.366285	0.049894	16.000000	nontarget	7.000000	na
20.416180	0.050009	16.000000	nontarget	8.000000	na
20.466189	0.049990	16.000000	nontarget	9.000000	na
20.516178	0.050019	16.000000	nontarget	10.000000	na
20.566197	0.049987	16.000000	nontarget	11.000000	na
20.616184	0.049879	16.000000	nontarget	12.000000	na
20.666064	0.050311	16.000000	nontarget	13.000000	na
20.716374	0.049805	16.000000	nontarget	14.000000	na
20.766180	0.049995	16.000000	nontarget	15.000000	na
20.816175	0.050000	16.000000	nontarget	16.000000	na
20.866174	0.050008	17.000000	nontarget	1.000000	na
20.916182	0.050097	17.000000	nontarget	2.000000	na
20.966279	0.049253	17.000000	nontarget	3.000000	20.972950
21.015532	0.050762	17.000000	nontarget	4.000000	na
21.066295	0.049882	17.000000	nontarget	5.000000	na
21.116177	0.049992	17.000000	nontarget	6.000000	na
21.166169	0.049598	17.000000	nontarget	7.000000	na
21.215767	0.049894	17.000000	nontarget	8.000000	na
21.265662	0.050503	17.000000	nontarget	9.000000	na
21.316165	0.050029	17.000000	nontarget	10.000000	na
21.366194	0.049977	17.000000	nontarget	11.000000	na
21.416171	0.049996	17.000000	nontarget	12.000000	na
21.466167	0.050003	17.000000	nontarget	13.000000	na
21.516170	0.049558	17.000000	nontarget	14.000000	na
21.565729	0.050440	17.000000	nontarget	15.000000	na
21.616169	0.050017	17.000000	nontarget	16.000000	na
21.666186	0.049979	18.000000	nontarget	1.000000	na
21.716165	0.050002	18.000000	nontarget	2.000000	na
21.766167	0.050011	18.000000	nontarget	3.000000	na
21.816178	0.049493	18.000000	nontarget	4.000000	na
21.865671	0.050490	18.000000	nontarget	5.000000	21.872406
21.916160	0.050287	18.000000	nontarget	6.000000	na
21.966447	0.049805	18.000000	nontarget	7.000000	na
22.016252	0.049327	18.000000	nontarget	8.000000	na
22.065580	0.050490	18.000000	nontarget	9.000000	na
22.116070	0.050176	18.000000	nontarget	10.000000	na
22.166246	0.049275	18.000000	nontarget	11.000000	na
22.215521	0.050718	18.000000	nontarget	12.000000	na
22.266239	0.049460	18.000000	nontarget	13.000000	na
22.315698	0.050479	18.000000	nontarget	14.000000	na
22.366178	0.049994	18.000000	nontarget	15.000000	na
22.416171	0.049934	18.000000	nontarget	16.000000	na
22.466105	0.049972	19.000000	nontarget	1.000000	na
22.516077	0.050083	19.000000	nontarget	2.000000	na
22.566161	0.049990	19.000000	nontarget	3.000000	na
22.616150	0.050018	19.000000	nontarget	4.000000	na
22.666169	0.050000	19.000000	nontarget	5.000000	na
22.716169	0.049979	19.000000	nontarget	6.000000	na
22.766148	0.049378	19.000000	nontarget	7.000000	22.772656
22.815526	0.050622	19.000000	nontarget	8.000000	na
22.866148	0.050002	19.000000	nontarget	9.000000	na
22.916150	0.049904	19.000000	nontarget	10.000000	na
22.966054	0.049425	19.000000	nontarget	11.000000	na
23.015479	0.049760	19.000000	nontarget	12.000000	na
23.065239	0.050970	19.000000	nontarget	13.000000	na
23.116209	0.049816	19.000000	nontarget	14.000000	na
23.166024	0.050209	19.000000	nontarget	15.000000	na
23.216233	0.049903	19.000000	nontarget	16.000000	na
23.266137	0.049445	20.000000	nontarget	1.000000	na
23.315582	0.050514	20.000000	nontarget	2.000000	na
23.366096	0.049390	20.000000	nontarget	3.000000	na
23.415486	0.050723	20.000000	nontarget	4.000000	na
23.466210	0.050201	20.000000	nontarget	5.000000	na
23.516411	0.049732	20.000000	nontarget	6.000000	na
23.566143	0.049456	20.000000	nontarget	7.000000	na
23.615599	0.049701	20.000000	nontarget	8.000000	23.622216
23.665299	0.050866	20.000000	nontarget	9.000000	na
23.716165	0.049968	20.000000	nontarget	10.000000	na
23.766134	0.050199	20.000000	nontarget	11.000000	na
23.816333	0.049798	20.000000	nontarget	12.000000	na
23.866130	0.050037	20.000000	nontarget	13.000000	na
23.916168	0.049985	20.000000	nontarget	14.000000	na
23.966153	0.049107	20.000000	nontarget	15.000000	na
24.015259	0.050964	20.000000	nontarget	16.000000	na
24.066223	0.049935	21.000000	nontarget	1.000000	na
24.116158	0.049423	21.000000	nontarget	2.000000	na
24.165581	0.050764	21.000000	nontarget	3.000000	na
24.216345	0.049778	21.000000	nontarget	4.000000	na
24.266123	0.050020	21.000000	nontarget	5.000000	na
24.316143	0.050244	21.000000	nontarget	6.000000	na
24.366386	0.049715	21.000000	nontarget	7.000000	na
24.416102	0.050091	21.000000	nontarget	8.000000	na
24.466192	0.050005	21.000000	nontarget	9.000000	na
24.516198	0.049432	21.000000	nontarget	10.000000	24.522954
24.565629	0.050156	21.000000	nontarget	11.000000	na
24.615786	0.050436	21.000000	nontarget	12.000000	na
24.666221	0.049928	21.000000	nontarget	13.000000	na
24.716149	0.049314	21.000000	nontarget	14.000000	na
24.765464	0.050744	21.000000	nontarget	15.000000	na
24.816207	0.049908	21.000000	nontarget	16.000000	na
24.866116	0.050031	22.000000	nontarget	1.000000	na
24.916147	0.049337	22.000000	nontarget	2.000000	na
24.965484	0.050637	22.000000	nontarget	3.000000	na
25.016121	0.050272	22.000000	nontarget	4.000000	na
25.066393	0.049090	22.000000	nontarget	5.000000	na
25.115483	0.050659	22.000000	nontarget	6.000000	na
25.166142	0.049895	22.000000	nontarget	7.000000	na
25.216038	0.049674	22.000000	nontarget	8.000000	na
25.265711	0.050397	22.000000	nontarget	9.000000	na
25.316108	0.050110	22.000000	nontarget	10.000000	na
25.366218	0.049888	22.000000	nontarget	11.000000	na
25.416107	0.050118	22.000000	nontarget	12.000000	na
25.466225	0.049856	22.000000	nontarget	13.000000	25.477191
25.516081	0.050206	22.000000	nontarget	14.000000	na
25.566288	0.049538	22.000000	nontarget	15.000000	na
25.615826	0.049483	22.000000	nontarget	16.000000	na
25.665309	0.050891	23.000000	nontarget	1.000000	na
25.716200	0.049942	23.000000	nontarget	2.000000	na
25.766142	0.049965	23.000000	nontarget	3.000000	na
25.816108	0.049644	23.000000	nontarget	4.000000	na
25.865751	0.050695	23.000000	nontarget	5.000000	na
25.916447	0.049689	23.000000	nontarget	6.000000	na
25.966136	0.050067	23.000000	nontarget	7.000000	na
26.016203	0.049990	23.000000	nontarget	8.000000	na
26.066193	0.049889	23.000000	nontarget	9.000000	na
26.116081	0.050139	23.000000	nontarget	10.000000	na
26.166221	0.049598	23.000000	nontarget	11.000000	na
26.215819	0.050613	23.000000	nontarget	12.000000	na
26.266431	0.049774	23.000000	nontarget	13.000000	na
26.316206	0.050078	23.000000	nontarget	14.000000	na
26.366283	0.049810	23.000000	nontarget	15.000000	na
26.416094	0.049679	23.000000	nontarget	16.000000	na
26.465773	0.049520	24.000000	nontarget	1.000000	na
26.515293	0.050943	24.000000	nontarget	2.000000	26.526712
26.566237	0.050043	24.000000	nontarget	3.000000	na
26.616280	0.050003	24.000000	nontarget	4.000000	na
26.666283	0.050067	24.000000	nontarget	5.000000	na
26.716350	0.049741	24.000000	nontarget	6.000000	na
26.766091	0.050096	24.000000	nontarget	7.000000	na
26.816187	0.049997	24.000000	nontarget	8.000000	na
26.866184	0.050005	24.000000	nontarget	9.000000	na
26.916189	0.050260	24.000000	nontarget	10.000000	na
26.966449	0.049644	24.000000	nontarget	11.000000	na
27.016092	0.050092	24.000000	nontarget	12.000000	na
27.066184	0.049907	24.000000	nontarget	13.000000	na
27.116091	0.050098	24.000000	nontarget	14.000000	na
27.166190	0.050278	24.000000	nontarget	15.000000	na
27.216467	0.049713	24.000000	nontarget	16.000000	27.250742
27.266181	0.050007	25.000000	nontarget	1.000000	27.272792
27.316187	0.050079	25.000000	nontarget	2.000000	na
27.366267	0.050117	25.000000	nontarget	3.000000	na
27.416383	0.049799	25.000000	nontarget	4.000000	na
27.466182	0.050320	25.000000	nontarget	5.000000	na
27.516502	0.049678	25.000000	nontarget	6.000000	na
27.566180	0.049788	25.000000	nontarget	7.000000	na
27.615968	0.050442	25.000000	nontarget	8.000000	na
27.666410	0.049861	25.000000	nontarget	9.000000	na
27.716271	0.050020	25.000000	nontarget	10.000000	na
27.766291	0.049290	25.000000	nontarget	11.000000	na
27.815581	0.050119	25.000000	nontarget	12.000000	na
27.865700	0.050481	25.000000	nontarget	13.000000	na
27.916181	0.050080	25.000000	nontarget	14.000000	na
27.966261	0.050012	25.000000	nontarget	15.000000	na
28.016273	0.049808	25.000000	nontarget	16.000000	na
28.066081	0.049957	26.000000	nontarget	1.000000	na
28.116039	0.049995	26.000000	nontarget	2.000000	na
28.166034	0.050491	26.000000	nontarget	3.000000	na
28.216525	0.049081	26.000000	nontarget	4.000000	28.223377
28.265606	0.050886	26.000000	nontarget	5.000000	na
28.316492	0.049927	26.000000	nontarget	6.000000	na
28.366419	0.049752	26.000000	nontarget	7.000000	na
28.416171	0.050182	26.000000	nontarget	8.000000	na
28.466353	0.049846	26.000000	nontarget	9.000000	na
28.516199	0.050067	26.000000	nontarget	10.000000	na
28.566266	0.049914	26.000000	nontarget	11.000000	na
28.616179	0.049323	26.000000	nontarget	12.000000	na
28.665503	0.050662	26.000000	nontarget	13.000000	na
28.716165	0.050294	26.000000	nontarget	14.000000	na
28.766459	0.049808	26.000000	nontarget	15.000000	na
28.816267	0.049696	26.000000	nontarget	16.000000	na
28.865963	0.050196	27.000000	nontarget	1.000000	na
28.916159	0.049643	27.000000	nontarget	2.000000	na
28.965802	0.050364	27.000000	nontarget	3.000000	na
29.016166	0.049620	27.000000	nontarget	4.000000	na
29.065786	0.050597	27.000000	nontarget	5.000000	29.090315
29.116383	0.049803	27.000000	nontarget	6.000000	na
29.166185	0.049815	27.000000	nontarget	7.000000	na
29.216000	0.049661	27.000000	nontarget	8.000000	na
29.265661	0.050503	27.000000	nontarget	9.000000	na
29.316164	0.050111	27.000000	nontarget	10.000000	na
29.366275	0.049763	27.000000	nontarget	11.000000	na
29.416039	0.050016	27.000000	nontarget	12.000000	na
29.466054	0.049996	27.000000	nontarget	13.000000	na
29.516050	0.050224	27.000000	nontarget	14.000000	na
29.566274	0.049392	27.000000	nontarget	15.000000	na
29.615666	0.050483	27.000000	nontarget	16.000000	na
29.666149	0.050095	28.000000	nontarget	1.000000	na
29.716245	0.050223	28.000000	nontarget	2.000000	na
29.766468	0.049587	28.000000	nontarget	3.000000	na
29.816055	0.050392	28.000000	nontarget	4.000000	na
29.866447	0.049276	28.000000	nontarget	5.000000	29.873033
29.915723	0.050420	28.000000	nontarget	6.000000	na
29.966143	0.050492	28.000000	nontarget	7.000000	na
30.016635	0.049778	28.000000	nontarget	8.000000	na
30.066414	0.049248	28.000000	nontarget	9.000000	na
30.115662	0.050383	28.000000	nontarget	10.000000	na
30.166045	0.050199	28.000000	nontarget	11.000000	na
30.216244	0.049796	28.000000	nontarget	12.000000	na
30.266040	0.050387	28.000000	nontarget	13.000000	na
30.316427	0.049763	28.000000	nontarget	14.000000	na
30.366190	0.050146	28.000000	nontarget	15.000000	na
30.416336	0.049706	28.000000	nontarget	16.000000	na
30.466041	0.050404	29.000000	nontarget	1.000000	na
30.516445	0.049592	29.000000	nontarget	2.000000	na
30.566037	0.049602	29.000000	nontarget	3.000000	na
30.615639	0.050498	29.000000	nontarget	4.000000	na
30.666137	0.050049	29.000000	nontarget	5.000000	na
30.716187	0.049947	29.000000	nontarget	6.000000	na
30.766133	0.050338	29.000000	nontarget	7.000000	30.772610
30.816471	0.049686	29.000000	nontarget	8.000000	na
30.866157	0.050176	29.000000	nontarget	9.000000	na
30.916333	0.050364	29.000000	nontarget	10.000000	na
30.966697	0.049329	29.000000	nontarget	11.000000	na
31.016026	0.049879	29.000000	nontarget	12.000000	na
31.065905	0.050468	29.000000	nontarget	13.000000	na
31.116373	0.049779	29.000000	nontarget	14.000000	na
31.166152	0.049852	29.000000	nontarget	15.000000	na
31.216004	0.050270	29.000000	nontarget	16.000000	na
31.266273	0.049851	30.000000	nontarget	1.000000	na
31.316124	0.050101	30.000000	nontarget	2.000000	na
31.366225	0.049546	30.000000	nontarget	3.000000	na
31.415771	0.050458	30.000000	nontarget	4.000000	31.450412
31.466229	0.049526	30.000000	nontarget	5.000000	na
31.515755	0.050474	30.000000	nontarget	6.000000	na
31.566228	0.049044	30.000000	nontarget	7.000000	na
31.615272	0.050624	30.000000	nontarget	8.000000	na
31.665897	0.049814	30.000000	nontarget	9.000000	na
31.715711	0.050308	30.000000	nontarget	10.000000	na
31.766019	0.050123	30.000000	nontarget	11.000000	na
31.816142	0.049453	30.000000	nontarget	12.000000	na
31.865595	0.050559	30.000000	nontarget	13.000000	na
31.916154	0.050127	30.000000	nontarget	14.000000	na
31.966281	0.049297	30.000000	nontarget	15.000000	na
32.015578	0.050334	30.000000	nontarget	16.000000	na
32.065913	0.050286	31.000000	nontarget	1.000000	na
32.116199	0.049301	31.000000	nontarget	2.000000	na
32.165500	0.050897	31.000000	nontarget	3.000000	32.184631
32.216397	0.049153	31.000000	nontarget	4.000000	na
32.265549	0.050734	31.000000	nontarget	5.000000	na
32.316284	0.049908	31.000000	nontarget	6.000000	na
32.366192	0.050019	31.000000	nontarget	7.000000	na
32.416211	0.049798	31.000000	nontarget	8.000000	na
32.466009	0.050199	31.000000	nontarget	9.000000	na
32.516209	0.050001	31.000000	nontarget	10.000000	na
32.566209	0.050011	31.000000	nontarget	11.000000	na
32.616220	0.049982	31.000000	nontarget	12.000000	na
32.666202	0.050198	31.000000	nontarget	13.000000	na
32.716399	0.049908	31.000000	nontarget	14.000000	na
32.766307	0.049227	31.000000	nontarget	15.000000	na
32.815534	0.050566	31.000000	nontarget	16.000000	na
32.866100	0.050081	32.000000	target	1.000000	na
32.916180	0.050086	32.000000	target	2.000000	na
32.966266	0.049062	32.000000	target	3.000000	na
33.015328	0.050894	32.000000	target	4.000000	na
33.066223	0.050079	32.000000	target	5.000000	na
33.116302	0.049700	32.000000	target	6.000000	na
33.166002	0.050192	32.000000	target	7.000000	na
33.216194	0.049757	32.000000	target	8.000000	na
33.265950	0.050047	32.000000	target	9.000000	na
33.315998	0.050225	32.000000	target	10.000000	na
33.366223	0.049974	32.000000	target	11.000000	na
33.416197	0.050204	32.000000	target	12.000000	na
33.466400	0.049592	32.000000	target	13.000000	na
33.515992	0.050278	32.000000	target	14.000000	33.551126
33.566270	0.049836	32.000000	target	15.000000	na
33.616106	0.049558	32.000000	target	16.000000	na
33.665665	0.050769	33.000000	nontarget	1.000000	33.672258
33.716434	0.049252	33.000000	nontarget	2.000000	na
33.765686	0.050306	33.000000	nontarget	3.000000	na
33.815992	0.050185	33.000000	nontarget	4.000000	na
33.866177	0.050115	33.000000	nontarget	5.000000	na
33.916292	0.050081	33.000000	nontarget	6.000000	na
33.966373	0.049864	33.000000	nontarget	7.000000	na
34.016237	0.049977	33.000000	nontarget	8.000000	na
34.066214	0.049964	33.000000	nontarget	9.000000	na
34.116178	0.049679	33.000000	nontarget	10.000000	na
34.165857	0.050316	33.000000	nontarget	11.000000	na
34.216173	0.049628	33.000000	nontarget	12.000000	na
34.265801	0.050432	33.000000	nontarget	13.000000	na
34.316232	0.050049	33.000000	nontarget	14.000000	na
34.366282	0.049886	33.000000	nontarget	15.000000	na
34.416168	0.050009	33.000000	nontarget	16.000000	na
34.466177	0.050184	34.000000	nontarget	1.000000	na
34.516361	0.049663	34.000000	nontarget	2.000000	na
34.566024	0.050165	34.000000	nontarget	3.000000	na
34.616189	0.050005	34.000000	nontarget	4.000000	na
34.666194	0.049657	34.000000	nontarget	5.000000	na
34.715851	0.050348	34.000000	nontarget	6.000000	na
34.766199	0.049450	34.000000	nontarget	7.000000	34.773092
34.815648	0.050683	34.000000	nontarget	8.000000	na
34.866331	0.049832	34.000000	nontarget	9.000000	na
34.916164	0.050179	34.000000	nontarget	10.000000	na
34.966343	0.049123	34.000000	nontarget	11.000000	na
35.015465	0.050872	34.000000	nontarget	12.000000	na
35.066337	0.049795	34.000000	nontarget	13.000000	na
35.116132	0.050190	34.000000	nontarget	14.000000	na
35.166322	0.049831	34.000000	nontarget	15.000000	na
35.216153	0.050201	34.000000	nontarget	16.000000	na
35.266354	0.049725	35.000000	nontarget	1.000000	na
35.316080	0.050071	35.000000	nontarget	2.000000	na
35.366151	0.049771	35.000000	nontarget	3.000000	na
35.415922	0.050441	35.000000	nontarget	4.000000	na
35.466363	0.049601	35.000000	nontarget	5.000000	na
35.515963	0.050114	35.000000	nontarget	6.000000	na
35.566077	0.050309	35.000000	nontarget	7.000000	na
35.616387	0.049926	35.000000	nontarget	8.000000	na
35.666313	0.049941	35.000000	nontarget	9.000000	na
35.716254	0.049988	35.000000	nontarget	10.000000	na
35.766242	0.049407	35.000000	nontarget	11.000000	na
35.815649	0.050487	35.000000	nontarget	12.000000	na
35.866136	0.049373	35.000000	nontarget	13.000000	35.872556
35.915509	0.050755	35.000000	nontarget	14.000000	na
35.966264	0.049916	35.000000	nontarget	15.000000	na
36.016179	0.050040	35.000000	nontarget	16.000000	na
36.066219	0.049480	36.000000	nontarget	1.000000	na
36.115699	0.050541	36.000000	nontarget	2.000000	na
36.166240	0.049717	36.000000	nontarget	3.000000	na
36.215957	0.050202	36.000000	nontarget	4.000000	na
36.266159	0.049992	36.000000	nontarget	5.000000	na
36.316151	0.050041	36.000000	nontarget	6.000000	na
36.366192	0.050040	36.000000	nontarget	7.000000	na
36.416233	0.049456	36.000000	nontarget	8.000000	na
36.465689	0.049820	36.000000	nontarget	9.000000	na
36.515508	0.050813	36.000000	nontarget	10.000000	na
36.566322	0.049636	36.000000	nontarget	11.000000	na
36.615957	0.050335	36.000000	nontarget	12.000000	na
36.666292	0.049939	36.000000	nontarget	13.000000	na
36.716230	0.049717	36.000000	nontarget	14.000000	na
36.765948	0.050265	36.000000	nontarget	15.000000	na
36.816213	0.049387	36.000000	nontarget	16.000000	na
36.865599	0.050606	37.000000	target	1.000000	na
36.916205	0.050205	37.000000	target	2.000000	na
36.966410	0.049798	37.000000	target	3.000000	na
37.016208	0.050146	37.000000	target	4.000000	na
37.066354	0.050015	37.000000	target	5.000000	na
37.116370	0.049880	37.000000	target	6.000000	na
37.166250	0.049962	37.000000	target	7.000000	na
37.216212	0.049120	37.000000	target	8.000000	na
37.265332	0.050610	37.000000	target	9.000000	na
37.315942	0.050185	37.000000	target	10.000000	na
37.366127	0.050125	37.000000	target	11.000000	na
37.416252	0.049303	37.000000	target	12.000000	na
37.465555	0.050562	37.000000	target	13.000000	na
37.516118	0.049813	37.000000	target	14.000000	na
37.565931	0.050272	37.000000	target	15.000000	na
37.616203	0.050005	37.000000	target	16.000000	na
37.666208	0.049989	38.000000	nontarget	1.000000	na
37.716197	0.049919	38.000000	nontarget	2.000000	na
37.766116	0.049482	38.000000	nontarget	3.000000	na
37.815599	0.050661	38.000000	nontarget	4.000000	na
37.866259	0.049673	38.000000	nontarget	5.000000	na
37.915932	0.049996	38.000000	nontarget	6.000000	na
37.965928	0.049399	38.000000	nontarget	7.000000	na
38.015327	0.050869	38.000000	nontarget	8.000000	38.026641
38.066196	0.050000	38.000000	nontarget	9.000000	na
38.116196	0.050099	38.000000	nontarget	10.000000	na
38.166295	0.049630	38.000000	nontarget	11.000000	na
38.215924	0.050396	38.000000	nontarget	12.000000	na
38.266321	0.049602	38.000000	nontarget	13.000000	na
38.315922	0.050416	38.000000	nontarget	14.000000	na
38.366338	0.049868	38.000000	nontarget	15.000000	na
38.416205	0.050038	38.000000	nontarget	16.000000	na
38.466243	0.049982	39.000000	nontarget	1.000000	na
38.516225	0.049964	39.000000	nontarget	2.000000	na
38.566189	0.050036	39.000000	nontarget	3.000000	na
38.616225	0.050051	39.000000	nontarget	4.000000	na
38.666276	0.049927	39.000000	nontarget	5.000000	na
38.716203	0.049718	39.000000	nontarget	6.000000	na
38.765921	0.050315	39.000000	nontarget	7.000000	na
38.816236	0.049955	39.000000	nontarget	8.000000	38.822850
38.866191	0.050060	39.000000	nontarget	9.000000	na
38.916251	0.049662	39.000000	nontarget	10.000000	na
38.965913	0.049743	39.000000	nontarget	11.000000	na
39.015656	0.050573	39.000000	nontarget	12.000000	na
39.066229	0.049971	39.000000	nontarget	13.000000	na
39.116200	0.050087	39.000000	nontarget	14.000000	na
39.166287	0.049938	39.000000	nontarget	15.000000	na
39.216225	0.049789	39.000000	nontarget	16.000000	na
39.266014	0.050171	40.000000	target	1.000000	na
39.316185	0.050075	40.000000	target	2.000000	na
39.366260	0.049951	40.000000	target	3.000000	na
39.416211	0.049985	40.000000	target	4.000000	na
39.466197	0.050075	40.000000	target	5.000000	na
39.516272	0.050003	40.000000	target	6.000000	na
39.566275	0.049755	40.000000	target	7.000000	na
39.616030	0.049472	40.000000	target	8.000000	na
39.665502	0.050897	40.000000	target	9.000000	na
39.716399	0.049703	40.000000	target	10.000000	na
39.766102	0.050154	40.000000	target	11.000000	na
39.816256	0.050037	40.000000	target	12.000000	na
39.866293	0.049896	40.000000	target	13.000000	na
39.916189	0.050125	40.000000	target	14.000000	na
39.966314	0.050029	40.000000	target	15.000000	39.973022
40.016343	0.049559	40.000000	target	16.000000	na
40.065902	0.050354	41.000000	nontarget	1.000000	40.072511
40.116256	0.050078	41.000000	nontarget	2.000000	na
40.166334	0.049379	41.000000	nontarget	3.000000	na
40.215714	0.050489	41.000000	nontarget	4.000000	na
40.266202	0.050278	41.000000	nontarget	5.000000	na
40.316481	0.049863	41.000000	nontarget	6.000000	na
40.366344	0.049680	41.000000	nontarget	7.000000	na
40.416024	0.049830	41.000000	nontarget	8.000000	na
40.465854	0.050385	41.000000	nontarget	9.000000	na
40.516239	0.050230	41.000000	nontarget	10.000000	na
40.566469	0.049420	41.000000	nontarget	11.000000	na
40.615890	0.050522	41.000000	nontarget	12.000000	na
40.666412	0.049713	41.000000	nontarget	13.000000	na
40.716124	0.049767	41.000000	nontarget	14.000000	na
40.765892	0.050005	41.000000	nontarget	15.000000	na
40.815897	0.049458	41.000000	nontarget	16.000000	na
40.865355	0.050532	42.000000	nontarget	1.000000	na
40.915887	0.049659	42.000000	nontarget	2.000000	na
40.965546	0.050016	42.000000	nontarget	3.000000	na
41.015562	0.050712	42.000000	nontarget	4.000000	na
41.066274	0.049966	42.000000	nontarget	5.000000	na
41.116240	0.049979	42.000000	nontarget	6.000000	41.151222
41.166219	0.049931	42.000000	nontarget	7.000000	na
41.216150	0.050090	42.000000	nontarget	8.000000	na
41.266240	0.049314	42.000000	nontarget	9.000000	na
41.315553	0.050330	42.000000	nontarget	10.000000	na
41.365883	0.050151	42.000000	nontarget	11.000000	na
41.416034	0.050217	42.000000	nontarget	12.000000	na
41.466251	0.049957	42.000000	nontarget	13.000000	na
41.516208	0.050096	42.000000	nontarget	14.000000	na
41.566304	0.050213	42.000000	nontarget	15.000000	na
41.616517	0.050069	42.000000	nontarget	16.000000	na
41.666586	0.049607	43.000000	nontarget	1.000000	na
41.716193	0.050428	43.000000	nontarget	2.000000	na
41.766620	0.049619	43.000000	nontarget	3.000000	na
41.816239	0.049638	43.000000	nontarget	4.000000	na
41.865877	0.050521	43.000000	nontarget	5.000000	na
41.916398	0.050141	43.000000	nontarget	6.000000	na
41.966539	0.049511	43.000000	nontarget	7.000000	41.989825
42.016050	0.049822	43.000000	nontarget	8.000000	na
42.065872	0.050391	43.000000	nontarget	9.000000	na
42.116263	0.049941	43.000000	nontarget	10.000000	na
42.166205	0.049779	43.000000	nontarget	11.000000	na
42.215984	0.050236	43.000000	nontarget	12.000000	na
42.266220	0.049647	43.000000	nontarget	13.000000	na
42.315867	0.049728	43.000000	nontarget	14.000000	na
42.365596	0.050859	43.000000	nontarget	15.000000	na
42.416454	0.049896	43.000000	nontarget	16.000000	na
42.466350	0.049877	44.000000	nontarget	1.000000	na
42.516228	0.050143	44.000000	nontarget	2.000000	na
42.566370	0.050196	44.000000	nontarget	3.000000	na
42.616566	0.049986	44.000000	nontarget	4.000000	na
42.666553	0.049514	44.000000	nontarget	5.000000	na
42.716067	0.050159	44.000000	nontarget	6.000000	na
42.766226	0.050023	44.000000	nontarget	7.000000	na
42.816249	0.049526	44.000000	nontarget	8.000000	na
42.865775	0.050087	44.000000	nontarget	9.000000	na
42.915862	0.050394	44.000000	nontarget	10.000000	na
42.966256	0.049492	44.000000	nontarget	11.000000	na
43.015749	0.050725	44.000000	nontarget	12.000000	na
43.066474	0.049583	44.000000	nontarget	13.000000	43.073362
43.116057	0.050139	44.000000	nontarget	14.000000	na
43.166196	0.050019	44.000000	nontarget	15.000000	na
43.216215	0.050203	44.000000	nontarget	16.000000	na
43.266418	0.049995	45.000000	target	1.000000	na
43.316413	0.049811	45.000000	target	2.000000	na
43.366224	0.050116	45.000000	target	3.000000	na
43.416341	0.050213	45.000000	target	4.000000	na
43.466554	0.049322	45.000000	target	5.000000	na
43.515876	0.050516	45.000000	target	6.000000	na
43.566392	0.050001	45.000000	target	7.000000	na
43.616394	0.049767	45.000000	target	8.000000	na
43.666161	0.050572	45.000000	target	9.000000	na
43.716733	0.049617	45.000000	target	10.000000	na
43.766350	0.049884	45.000000	target	11.000000	na
43.816234	0.050314	45.000000	target	12.000000	na
43.866548	0.049667	45.000000	target	13.000000	na
43.916215	0.049826	45.000000	target	14.000000	na
43.966041	0.050524	45.000000	target	15.000000	na
44.016564	0.049888	45.000000	target	16.000000	na
44.066453	0.049876	46.000000	nontarget	1.000000	na
44.116329	0.049716	46.000000	nontarget	2.000000	na
44.166044	0.050151	46.000000	nontarget	3.000000	na
44.216195	0.050071	46.000000	nontarget	4.000000	44.222760
44.266266	0.049618	46.000000	nontarget	5.000000	na
44.315883	0.050762	46.000000	nontarget	6.000000	na
44.366645	0.049890	46.000000	nontarget	7.000000	na
44.416536	0.049720	46.000000	nontarget	8.000000	na
44.466256	0.049959	46.000000	nontarget	9.000000	na
44.516215	0.050104	46.000000	nontarget	10.000000	na
44.566319	0.050254	46.000000	nontarget	11.000000	na
44.616573	0.049254	46.000000	nontarget	12.000000	na
44.665826	0.050411	46.000000	nontarget	13.000000	na
44.716237	0.050066	46.000000	nontarget	14.000000	na
44.766303	0.049906	46.000000	nontarget	15.000000	na
44.816210	0.049589	46.000000	nontarget	16.000000	na
44.865798	0.050312	47.000000	nontarget	1.000000	na
44.916110	0.049792	47.000000	nontarget	2.000000	na
44.965902	0.049929	47.000000	nontarget	3.000000	na
45.015831	0.050268	47.000000	nontarget	4.000000	na
45.066099	0.050132	47.000000	nontarget	5.000000	na
45.116231	0.049703	47.000000	nontarget	6.000000	na
45.165933	0.050304	47.000000	nontarget	7.000000	na
45.216238	0.049835	47.000000	nontarget	8.000000	45.222561
45.266073	0.050501	47.000000	nontarget	9.000000	na
45.316574	0.049892	47.000000	nontarget	10.000000	na
45.366466	0.049851	47.000000	nontarget	11.000000	na
45.416318	0.049866	47.000000	nontarget	12.000000	na
45.466183	0.050056	47.000000	nontarget	13.000000	na
45.516239	0.049581	47.000000	nontarget	14.000000	na
45.565820	0.050001	47.000000	nontarget	15.000000	na
45.615821	0.050622	47.000000	nontarget	16.000000	na
45.666443	0.049764	48.000000	target	1.000000	na
45.716208	0.050039	48.000000	target	2.000000	na
45.766246	0.050236	48.000000	target	3.000000	na
45.816482	0.049248	48.000000	target	4.000000	na
45.865730	0.050524	48.000000	target	5.000000	na
45.916254	0.050165	48.000000	target	6.000000	na
45.966419	0.049799	48.000000	target	7.000000	na
46.016218	0.049937	48.000000	target	8.000000	na
46.066155	0.050099	48.000000	target	9.000000	na
46.116254	0.049249	48.000000	target	10.000000	na
46.165503	0.050727	48.000000	target	11.000000	na
46.216230	0.050016	48.000000	target	12.000000	na
46.266246	0.049566	48.000000	target	13.000000	na
46.315812	0.050459	48.000000	target	14.000000	na
46.366272	0.049911	48.000000	target	15.000000	na
46.416183	0.050044	48.000000	target	16.000000	na
46.466227	0.049972	49.000000	nontarget	1.000000	na
46.516199	0.049807	49.000000	nontarget	2.000000	46.522890
46.566006	0.050243	49.000000	nontarget	3.000000	na
46.616248	0.049553	49.000000	nontarget	4.000000	na
46.665801	0.049562	49.000000	nontarget	5.000000	na
46.715363	0.050917	49.000000	nontarget	6.000000	na
46.766280	0.049540	49.000000	nontarget	7.000000	na
46.815819	0.050430	49.000000	nontarget	8.000000	na
46.866250	0.049907	49.000000	nontarget	9.000000	na
46.916157	0.049645	49.000000	nontarget	10.000000	na
46.965802	0.050480	49.000000	nontarget	11.000000	na
47.016282	0.049491	49.000000	nontarget	12.000000	na
47.065772	0.050569	49.000000	nontarget	13.000000	na
47.116341	0.049442	49.000000	nontarget	14.000000	na
47.165783	0.050122	49.000000	nontarget	15.000000	na
47.215906	0.050239	49.000000	nontarget	16.000000	47.239361
47.266145	0.049248	50.000000	nontarget	1.000000	47.272543
47.315393	0.050821	50.000000	nontarget	2.000000	na
47.366213	0.049281	50.000000	nontarget	3.000000	na
47.415494	0.050735	50.000000	nontarget	4.000000	na
47.466229	0.049883	50.000000	nontarget	5.000000	na
47.516112	0.050095	50.000000	nontarget	6.000000	na
47.566207	0.049167	50.000000	nontarget	7.000000	na
47.615374	0.050612	50.000000	nontarget	8.000000	na
47.665985	0.049711	50.000000	nontarget	9.000000	na
47.715697	0.050558	50.000000	nontarget	10.000000	na
47.766255	0.049875	50.000000	nontarget	11.000000	na
47.816130	0.049953	50.000000	nontarget	12.000000	na
47.866083	0.050304	50.000000	nontarget	13.000000	na
47.916388	0.049833	50.000000	nontarget	14.000000	na
47.966220	0.049470	50.000000	nontarget	15.000000	na
48.015691	0.050737	50.000000	nontarget	16.000000	na
48.066428	0.049691	51.000000	nontarget	1.000000	na
48.116118	0.050301	51.000000	nontarget	2.000000	na
48.166419	0.049833	51.000000	nontarget	3.000000	48.200508
48.216252	0.049816	51.000000	nontarget	4.000000	na
48.266068	0.049637	51.000000	nontarget	5.000000	na
48.315705	0.050507	51.000000	nontarget	6.000000	na
48.366212	0.049888	51.000000	nontarget	7.000000	na
48.416100	0.049679	51.000000	nontarget	8.000000	na
48.465780	0.050359	51.000000	nontarget	9.000000	na
48.516139	0.049606	51.000000	nontarget	10.000000	na
48.565745	0.050551	51.000000	nontarget	11.000000	na
48.616296	0.049940	51.000000	nontarget	12.000000	na
48.666236	0.049093	51.000000	nontarget	13.000000	na
48.715329	0.050877	51.000000	nontarget	14.000000	na
48.766206	0.049921	51.000000	nontarget	15.000000	na
48.816127	0.049948	51.000000	nontarget	16.000000	na
48.866075	0.050138	52.000000	nontarget	1.000000	na
48.916213	0.049653	52.000000	nontarget	2.000000	na
48.965866	0.050212	52.000000	nontarget	3.000000	na
49.016078	0.050147	52.000000	nontarget	4.000000	na
49.066225	0.049639	52.000000	nontarget	5.000000	na
49.115864	0.050352	52.000000	nontarget	6.000000	na
49.166216	0.050018	52.000000	nontarget	7.000000	na
49.216234	0.050161	52.000000	nontarget	8.000000	49.233726
49.266395	0.048751	52.000000	nontarget	9.000000	na
49.315147	0.051050	52.000000	nontarget	10.000000	na
49.366196	0.050122	52.000000	nontarget	11.000000	na
49.416318	0.049752	52.000000	nontarget	12.000000	na
49.466070	0.050165	52.000000	nontarget	13.000000	na
49.516235	0.050096	52.000000	nontarget	14.000000	na
49.566331	0.049889	52.000000	nontarget	15.000000	na
49.616219	0.050031	52.000000	nontarget	16.000000	na
49.666250	0.049790	53.000000	nontarget	1.000000	na
49.716040	0.050284	53.000000	nontarget	2.000000	na
49.766325	0.049871	53.000000	nontarget	3.000000	na
49.816195	0.050027	53.000000	nontarget	4.000000	na
49.866222	0.049407	53.000000	nontarget	5.000000	na
49.915629	0.050639	53.000000	nontarget	6.000000	na
49.966268	0.049082	53.000000	nontarget	7.000000	na
50.015351	0.050872	53.000000	nontarget	8.000000	na
50.066222	0.049994	53.000000	nontarget	9.000000	na
50.116216	0.050053	53.000000	nontarget	10.000000	na
50.166269	0.049650	53.000000	nontarget	11.000000	na
50.215919	0.050252	53.000000	nontarget	12.000000	na
50.266171	0.050073	53.000000	nontarget	13.000000	na
50.316245	0.050070	53.000000	nontarget	14.000000	50.351341
50.366314	0.050054	53.000000	nontarget	15.000000	na
50.416369	0.049990	53.000000	nontarget	16.000000	na
50.466359	0.049630	54.000000	nontarget	1.000000	50.472937
50.515989	0.049983	54.000000	nontarget	2.000000	na
50.565972	0.050429	54.000000	nontarget	3.000000	na
50.616401	0.048928	54.000000	nontarget	4.000000	na
50.665329	0.051080	54.000000	nontarget	5.000000	na
50.716409	0.049343	54.000000	nontarget	6.000000	na
50.765752	0.050621	54.000000	nontarget	7.000000	na
50.816373	0.049840	54.000000	nontarget	8.000000	na
50.866213	0.049990	54.000000	nontarget	9.000000	na
50.916203	0.050178	54.000000	nontarget	10.000000	na
50.966381	0.048984	54.000000	nontarget	11.000000	na
51.015365	0.050650	54.000000	nontarget	12.000000	na
51.066015	0.049696	54.000000	nontarget	13.000000	na
51.115711	0.050678	54.000000	nontarget	14.000000	na
51.166389	0.049833	54.000000	nontarget	15.000000	na
51.216222	0.049822	54.000000	nontarget	16.000000	na
51.266044	0.050472	55.000000	target	1.000000	na
51.316516	0.049908	55.000000	target	2.000000	na
51.366424	0.049898	55.000000	target	3.000000	na
51.416322	0.049865	55.000000	target	4.000000	na
51.466187	0.049974	55.000000	target	5.000000	na
51.516161	0.049956	55.000000	target	6.000000	na
51.566117	0.049725	55.000000	target	7.000000	na
51.615842	0.049858	55.000000	target	8.000000	na
51.665700	0.050435	55.000000	target	9.000000	na
51.716135	0.049761	55.000000	target	10.000000	na
51.765896	0.050417	55.000000	target	11.000000	na
51.816313	0.049897	55.000000	target	12.000000	na
51.866209	0.049491	55.000000	target	13.000000	na
51.915701	0.050314	55.000000	target	14.000000	na
51.966015	0.049645	55.000000	target	15.000000	na
52.015660	0.050243	55.000000	target	16.000000	na
52.065904	0.049793	56.000000	nontarget	1.000000	na
52.115697	0.050585	56.000000	nontarget	2.000000	na
52.166282	0.049415	56.000000	nontarget	3.000000	na
52.215697	0.050545	56.000000	nontarget	4.000000	na
52.266242	0.049395	56.000000	nontarget	5.000000	na
52.315637	0.050554	56.000000	nontarget	6.000000	na
52.366192	0.049827	56.000000	nontarget	7.000000	52.377440
52.416019	0.049802	56.000000	nontarget	8.000000	na
52.465821	0.049865	56.000000	nontarget	9.000000	na
52.515686	0.050009	56.000000	nontarget	10.000000	na
52.565695	0.050636	56.000000	nontarget	11.000000	na
52.616331	0.049793	56.000000	nontarget	12.000000	na
52.666124	0.050119	56.000000	nontarget	13.000000	na
52.716243	0.049976	56.000000	nontarget	14.000000	na
52.766219	0.050133	56.000000	nontarget	15.000000	na
52.816351	0.049879	56.000000	nontarget	16.000000	na
52.866230	0.049460	57.000000	nontarget	1.000000	na
52.915690	0.050317	57.000000	nontarget	2.000000	na
52.966006	0.049601	57.000000	nontarget	3.000000	na
53.015607	0.050608	57.000000	nontarget	4.000000	na
53.066215	0.049997	57.000000	nontarget	5.000000	53.082272
53.116213	0.050103	57.000000	nontarget	6.000000	na
53.166316	0.048877	57.000000	nontarget	7.000000	na
53.215193	0.051030	57.000000	nontarget	8.000000	na
53.266222	0.049621	57.000000	nontarget	9.000000	na
53.315843	0.050424	57.000000	nontarget	10.000000	na
53.366267	0.049997	57.000000	nontarget	11.000000	na
53.416264	0.050035	57.000000	nontarget	12.000000	na
53.466299	0.049917	57.000000	nontarget	13.000000	na
53.516216	0.050045	57.000000	nontarget	14.000000	na
53.566261	0.049834	57.000000	nontarget	15.000000	na
53.616096	0.050101	57.000000	nontarget	16.000000	na
53.666197	0.050083	58.000000	nontarget	1.000000	na
53.716280	0.049909	58.000000	nontarget	2.000000	na
53.766190	0.049686	58.000000	nontarget	3.000000	na
53.815876	0.050154	58.000000	nontarget	4.000000	na
53.866030	0.050228	58.000000	nontarget	5.000000	na
53.916258	0.049089	58.000000	nontarget	6.000000	na
53.965347	0.050322	58.000000	nontarget	7.000000	53.971930
54.015670	0.049998	58.000000	nontarget	8.000000	na
54.065668	0.050557	58.000000	nontarget	9.000000	na
54.116225	0.049725	58.000000	nontarget	10.000000	na
54.165950	0.050374	58.000000	nontarget	11.000000	na
54.216324	0.049885	58.000000	nontarget	12.000000	na
54.266209	0.050009	58.000000	nontarget	13.000000	na
54.316219	0.050042	58.000000	nontarget	14.000000	na
54.366260	0.049736	58.000000	nontarget	15.000000	na
54.415996	0.049691	58.000000	nontarget	16.000000	na
54.465687	0.050554	59.000000	nontarget	1.000000	na
54.516241	0.049963	59.000000	nontarget	2.000000	na
54.566204	0.050004	59.000000	nontarget	3.000000	na
54.616207	0.049902	59.000000	nontarget	4.000000	na
54.666109	0.049549	59.000000	nontarget	5.000000	na
54.715659	0.050476	59.000000	nontarget	6.000000	na
54.766135	0.050108	59.000000	nontarget	7.000000	na
54.816243	0.050081	59.000000	nontarget	8.000000	54.847472
54.866324	0.049788	59.000000	nontarget	9.000000	na
54.916112	0.050106	59.000000	nontarget	10.000000	na
54.966219	0.050167	59.000000	nontarget	11.000000	na
55.016386	0.049831	59.000000	nontarget	12.000000	na
55.066217	0.049531	59.000000	nontarget	13.000000	na
55.115748	0.050594	59.000000	nontarget	14.000000	na
55.166342	0.050032	59.000000	nontarget	15.000000	na
55.216374	0.049773	59.000000	nontarget	16.000000	na
55.266147	0.049504	60.000000	nontarget	1.000000	na
55.315651	0.050568	60.000000	nontarget	2.000000	na
55.366219	0.050023	60.000000	nontarget	3.000000	na
55.416243	0.049404	60.000000	nontarget	4.000000	na
55.465647	0.050545	60.000000	nontarget	5.000000	na
55.516192	0.050194	60.000000	nontarget	6.000000	na
55.566386	0.049362	60.000000	nontarget	7.000000	na
55.615748	0.050470	60.000000	nontarget	8.000000	na
55.666217	0.050030	60.000000	nontarget	9.000000	na
55.716247	0.050161	60.000000	nontarget	10.000000	na
55.766409	0.049600	60.000000	nontarget	11.000000	55.773127
55.816009	0.049898	60.000000	nontarget	12.000000	na
55.865907	0.050308	60.000000	nontarget	13.000000	na
55.916215	0.049391	60.000000	nontarget	14.000000	na
55.965606	0.050040	60.000000	nontarget	15.000000	na
56.015646	0.050736	60.000000	nontarget	16.000000	na
56.066382	0.049745	61.000000	nontarget	1.000000	na
56.116128	0.050114	61.000000	nontarget	2.000000	na
56.166242	0.049939	61.000000	nontarget	3.000000	na
56.216181	0.049582	61.000000	nontarget	4.000000	na
56.265763	0.050565	61.000000	nontarget	5.000000	na
56.316328	0.050159	61.000000	nontarget	6.000000	na
56.366487	0.049886	61.000000	nontarget	7.000000	na
56.416373	0.050024	61.000000	nontarget	8.000000	na
56.466397	0.049551	61.000000	nontarget	9.000000	na
56.515948	0.050386	61.000000	nontarget	10.000000	na
56.566334	0.049563	61.000000	nontarget	11.000000	na
56.615897	0.050666	61.000000	nontarget	12.000000	na
56.666564	0.049995	61.000000	nontarget	13.000000	na
56.716559	0.049506	61.000000	nontarget	14.000000	na
56.766065	0.050411	61.000000	nontarget	15.000000	na
56.816476	0.049727	61.000000	nontarget	16.000000	na
56.866203	0.050118	62.000000	nontarget	1.000000	56.872801
56.916321	0.049529	62.000000	nontarget	2.000000	na
56.965850	0.049804	62.000000	nontarget	3.000000	na
57.015654	0.050853	62.000000	nontarget	4.000000	na
57.066507	0.049869	62.000000	nontarget	5.000000	na
57.116377	0.049821	62.000000	nontarget	6.000000	na
57.166197	0.050125	62.000000	nontarget	7.000000	na
57.216323	0.049891	62.000000	nontarget	8.000000	na
57.266214	0.049859	62.000000	nontarget	9.000000	na
57.316073	0.050144	62.000000	nontarget	10.000000	na
57.366217	0.049665	62.000000	nontarget	11.000000	na
57.415882	0.050326	62.000000	nontarget	12.000000	na
57.466208	0.050114	62.000000	nontarget	13.000000	na
57.516322	0.049957	62.000000	nontarget	14.000000	na
57.566279	0.049732	62.000000	nontarget	15.000000	na
57.616011	0.050184	62.000000	nontarget	16.000000	na
57.666195	0.049538	63.000000	nontarget	1.000000	na
57.715734	0.049960	63.000000	nontarget	2.000000	na
57.765694	0.049918	63.000000	nontarget	3.000000	na
57.815612	0.050885	63.000000	nontarget	4.000000	57.822229
57.866496	0.049520	63.000000	nontarget	5.000000	na
57.916017	0.049794	63.000000	nontarget	6.000000	na
57.965811	0.050391	63.000000	nontarget	7.000000	na
58.016202	0.050046	63.000000	nontarget	8.000000	na
58.066247	0.050212	63.000000	nontarget	9.000000	na
58.116459	0.049628	63.000000	nontarget	10.000000	na
58.166088	0.049609	63.000000	nontarget	11.000000	na
58.215697	0.050621	63.000000	nontarget	12.000000	na
58.266318	0.049324	63.000000	nontarget	13.000000	na
58.315642	0.050633	63.000000	nontarget	14.000000	na
58.366275	0.049378	63.000000	nontarget	15.000000	na
58.415653	0.050155	63.000000	nontarget	16.000000	na
58.465808	0.050591	64.000000	nontarget	1.000000	na
58.516400	0.049210	64.000000	nontarget	2.000000	na
58.565610	0.050548	64.000000	nontarget	3.000000	na
58.616158	0.050045	64.000000	nontarget	4.000000	na
58.666202	0.050348	64.000000	nontarget	5.000000	na
58.716550	0.049646	64.000000	nontarget	6.000000	na
58.766197	0.049715	64.000000	nontarget	7.000000	58.788898
58.815912	0.050316	64.000000	nontarget	8.000000	na
58.866228	0.049662	64.000000	nontarget	9.000000	na
58.915890	0.049824	64.000000	nontarget	10.000000	na
58.965713	0.050526	64.000000	nontarget	11.000000	na
59.016239	0.050041	64.000000	nontarget	12.000000	na
59.066281	0.049825	64.000000	nontarget	13.000000	na
59.116106	0.050134	64.000000	nontarget	14.000000	na
59.166240	0.049973	64.000000	nontarget	15.000000	na
59.216213	0.049489	64.000000	nontarget	16.000000	na
59.265702	0.050598	65.000000	nontarget	1.000000	na
59.316300	0.049886	65.000000	nontarget	2.000000	na
59.366187	0.050015	65.000000	nontarget	3.000000	na
59.416201	0.050043	65.000000	nontarget	4.000000	na
59.466244	0.049362	65.000000	nontarget	5.000000	na
59.515606	0.050625	65.000000	nontarget	6.000000	na
59.566231	0.049413	65.000000	nontarget	7.000000	na
59.615644	0.049943	65.000000	nontarget	8.000000	na
59.665587	0.050647	65.000000	nontarget	9.000000	59.672169
59.716234	0.049382	65.000000	nontarget	10.000000	na
59.765616	0.050523	65.000000	nontarget	11.000000	na
59.816140	0.050112	65.000000	nontarget	12.000000	na
59.866252	0.049727	65.000000	nontarget	13.000000	na
59.915979	0.050503	65.000000	nontarget	14.000000	na
59.966482	0.049480	65.000000	nontarget	15.000000	na
60.015962	0.050266	65.000000	nontarget	16.000000	na
60.066229	0.049999	66.000000	nontarget	1.000000	na
60.116227	0.049995	66.000000	nontarget	2.000000	na
60.166222	0.050123	66.000000	nontarget	3.000000	na
60.216345	0.049593	66.000000	nontarget	4.000000	na
60.265938	0.050565	66.000000	nontarget	5.000000	na
60.316503	0.049860	66.000000	nontarget	6.000000	na
60.366363	0.049679	66.000000	nontarget	7.000000	60.386423
60.416042	0.050175	66.000000	nontarget	8.000000	na
60.466217	0.049682	66.000000	nontarget	9.000000	na
60.515900	0.050405	66.000000	nontarget	10.000000	na
60.566304	0.050009	66.000000	nontarget	11.000000	na
60.616313	0.049478	66.000000	nontarget	12.000000	na
60.665791	0.050533	66.000000	nontarget	13.000000	na
60.716324	0.050129	66.000000	nontarget	14.000000	na
60.766453	0.049858	66.000000	nontarget	15.000000	na
60.816311	0.049970	66.000000	nontarget	16.000000	na
60.866281	0.049411	67.000000	nontarget	1.000000	na
60.915692	0.050401	67.000000	nontarget	2.000000	na
60.966093	0.049474	67.000000	nontarget	3.000000	na
61.015567	0.050754	67.000000	nontarget	4.000000	na
61.066321	0.049961	67.000000	nontarget	5.000000	na
61.116283	0.049390	67.000000	nontarget	6.000000	na
61.165673	0.049687	67.000000	nontarget	7.000000	61.199913
61.215360	0.050891	67.000000	nontarget	8.000000	na
61.266251	0.049971	67.000000	nontarget	9.000000	na
61.316222	0.050036	67.000000	nontarget	10.000000	na
61.366258	0.049514	67.000000	nontarget	11.000000	na
61.415772	0.050477	67.000000	nontarget	12.000000	na
61.466249	0.049505	67.000000	nontarget	13.000000	na
61.515755	0.050364	67.000000	nontarget	14.000000	na
61.566118	0.049986	67.000000	nontarget	15.000000	na
61.616104	0.050160	67.000000	nontarget	16.000000	na
61.666264	0.049972	68.000000	nontarget	1.000000	na
61.716237	0.049326	68.000000	nontarget	2.000000	na
61.765563	0.050650	68.000000	nontarget	3.000000	na
61.816213	0.049849	68.000000	nontarget	4.000000	na
61.866061	0.050090	68.000000	nontarget	5.000000	na
61.916152	0.050063	68.000000	nontarget	6.000000	na
61.966215	0.049475	68.000000	nontarget	7.000000	61.991323
62.015690	0.050530	68.000000	nontarget	8.000000	na
62.066220	0.049853	68.000000	nontarget	9.000000	na
62.116073	0.049816	68.000000	nontarget	10.000000	na
62.165890	0.050255	68.000000	nontarget	11.000000	na
62.216145	0.049832	68.000000	nontarget	12.000000	na
62.265976	0.049583	68.000000	nontarget	13.000000	na
62.315559	0.050497	68.000000	nontarget	14.000000	na
62.366056	0.050161	68.000000	nontarget	15.000000	na
62.416218	0.050014	68.000000	nontarget	16.000000	na
62.466231	0.049939	69.000000	nontarget	1.000000	na
62.516170	0.050037	69.000000	nontarget	2.000000	na
62.566206	0.049988	69.000000	nontarget	3.000000	na
62.616194	0.049823	69.000000	nontarget	4.000000	na
62.666017	0.049530	69.000000	nontarget	5.000000	na
62.715547	0.050758	69.000000	nontarget	6.000000	na
62.766305	0.049673	69.000000	nontarget	7.000000	na
62.815977	0.049696	69.000000	nontarget	8.000000	62.822619
62.865674	0.050056	69.000000	nontarget	9.000000	na
62.915730	0.050327	69.000000	nontarget	10.000000	na
62.966056	0.050061	69.000000	nontarget	11.000000	na
63.016117	0.050056	69.000000	nontarget	12.000000	na
63.066173	0.050052	69.000000	nontarget	13.000000	na
63.116226	0.049843	69.000000	nontarget	14.000000	na
63.166069	0.049926	69.000000	nontarget	15.000000	na
63.215995	0.050150	69.000000	nontarget	16.000000	na
63.266145	0.050190	70.000000	nontarget	1.000000	na
63.316335	0.049756	70.000000	nontarget	2.000000	na
63.366091	0.050132	70.000000	nontarget	3.000000	na
63.416223	0.049730	70.000000	nontarget	4.000000	na
63.465953	0.050068	70.000000	nontarget	5.000000	na
63.516021	0.050188	70.000000	nontarget	6.000000	na
63.566209	0.050003	70.000000	nontarget	7.000000	na
63.616212	0.050210	70.000000	nontarget	8.000000	na
63.666422	0.049777	70.000000	nontarget	9.000000	na
63.716199	0.049841	70.000000	nontarget	10.000000	na
63.766040	0.049982	70.000000	nontarget	11.000000	na
63.816022	0.050206	70.000000	nontarget	12.000000	na
63.866228	0.048951	70.000000	nontarget	13.000000	na
63.915179	0.051124	70.000000	nontarget	14.000000	63.930223
63.966303	0.049230	70.000000	nontarget	15.000000	na
64.015533	0.050677	70.000000	nontarget	16.000000	na
64.066210	0.049788	71.000000	nontarget	1.000000	64.072749
64.115998	0.050218	71.000000	nontarget	2.000000	na
64.166216	0.049995	71.000000	nontarget	3.000000	na
64.216211	0.049752	71.000000	nontarget	4.000000	na
64.265962	0.050046	71.000000	nontarget	5.000000	na
64.316008	0.050207	71.000000	nontarget	6.000000	na
64.366215	0.049896	71.000000	nontarget	7.000000	na
64.416111	0.049469	71.000000	nontarget	8.000000	na
64.465579	0.050636	71.000000	nontarget	9.000000	na
64.516215	0.050004	71.000000	nontarget	10.000000	na
64.566220	0.050113	71.000000	nontarget	11.000000	na
64.616333	0.049886	71.000000	nontarget	12.000000	na
64.666218	0.050027	71.000000	nontarget	13.000000	na
64.716245	0.049773	71.000000	nontarget	14.000000	na
64.766018	0.050072	71.000000	nontarget	15.000000	na
64.816090	0.050075	71.000000	nontarget	16.000000	na
64.866164	0.049670	72.000000	nontarget	1.000000	64.872822
64.915835	0.050250	72.000000	nontarget	2.000000	na
64.966085	0.050160	72.000000	nontarget	3.000000	na
65.016245	0.049368	72.000000	nontarget	4.000000	na
65.065612	0.050026	72.000000	nontarget	5.000000	na
65.115638	0.050660	72.000000	nontarget	6.000000	na
65.166298	0.049904	72.000000	nontarget	7.000000	na
65.216203	0.050028	72.000000	nontarget	8.000000	na
65.266230	0.049725	72.000000	nontarget	9.000000	na
65.315955	0.049955	72.000000	nontarget	10.000000	na
65.365910	0.050312	72.000000	nontarget	11.000000	na
65.416222	0.050017	72.000000	nontarget	12.000000	na
65.466239	0.049950	72.000000	nontarget	13.000000	na
65.516190	0.050049	72.000000	nontarget	14.000000	na
65.566239	0.049269	72.000000	nontarget	15.000000	na
65.615508	0.050185	72.000000	nontarget	16.000000	na
65.665693	0.050478	73.000000	nontarget	1.000000	na
65.716171	0.050156	73.000000	nontarget	2.000000	na
65.766327	0.049900	73.000000	nontarget	3.000000	na
65.816227	0.049213	73.000000	nontarget	4.000000	65.846810
65.865440	0.050476	73.000000	nontarget	5.000000	na
65.915916	0.050283	73.000000	nontarget	6.000000	na
65.966199	0.050013	73.000000	nontarget	7.000000	na
66.016212	0.049719	73.000000	nontarget	8.000000	na
66.065931	0.050289	73.000000	nontarget	9.000000	na
66.116220	0.050000	73.000000	nontarget	10.000000	na
66.166220	0.050108	73.000000	nontarget	11.000000	na
66.216328	0.049960	73.000000	nontarget	12.000000	na
66.266287	0.050118	73.000000	nontarget	13.000000	na
66.316405	0.049837	73.000000	nontarget	14.000000	na
66.366242	0.049290	73.000000	nontarget	15.000000	na
66.415532	0.050671	73.000000	nontarget	16.000000	na
66.466203	0.049424	74.000000	target	1.000000	na
66.515627	0.050646	74.000000	target	2.000000	na
66.566272	0.049690	74.000000	target	3.000000	na
66.615962	0.050179	74.000000	target	4.000000	na
66.666141	0.050039	74.000000	target	5.000000	na
66.716180	0.049635	74.000000	target	6.000000	na
66.765815	0.050421	74.000000	target	7.000000	na
66.816236	0.049831	74.000000	target	8.000000	na
66.866067	0.049590	74.000000	target	9.000000	na
66.915657	0.050402	74.000000	target	10.000000	na
66.966059	0.049447	74.000000	target	11.000000	na
67.015506	0.050703	74.000000	target	12.000000	na
67.066209	0.050039	74.000000	target	13.000000	na
67.116248	0.049892	74.000000	target	14.000000	na
67.166140	0.049342	74.000000	target	15.000000	67.171929
67.215482	0.050558	74.000000	target	16.000000	na
67.266041	0.049454	75.000000	target	1.000000	67.272541
67.315495	0.050141	75.000000	target	2.000000	na
67.365636	0.050484	75.000000	target	3.000000	na
67.416120	0.049841	75.000000	target	4.000000	na
67.465961	0.050333	75.000000	target	5.000000	na
67.516295	0.049459	75.000000	target	6.000000	na
67.565754	0.050473	75.000000	target	7.000000	na
67.616227	0.050029	75.000000	target	8.000000	na
67.666256	0.049550	75.000000	target	9.000000	na
67.715806	0.050634	75.000000	target	10.000000	na
67.766440	0.049783	75.000000	target	11.000000	na
67.816223	0.049837	75.000000	target	12.000000	na
67.866060	0.050281	75.000000	target	13.000000	na
67.916341	0.049656	75.000000	target	14.000000	na
67.965998	0.050140	75.000000	target	15.000000	na
68.016138	0.049242	75.000000	target	16.000000	na
68.065380	0.051015	76.000000	nontarget	1.000000	na
68.116395	0.049120	76.000000	nontarget	2.000000	68.131944
68.165514	0.050692	76.000000	nontarget	3.000000	na
68.216206	0.049767	76.000000	nontarget	4.000000	na
68.265973	0.049489	76.000000	nontarget	5.000000	na
68.315462	0.050807	76.000000	nontarget	6.000000	na
68.366269	0.049954	76.000000	nontarget	7.000000	na
68.416223	0.049688	76.000000	nontarget	8.000000	na
68.465911	0.050461	76.000000	nontarget	9.000000	na
68.516371	0.049735	76.000000	nontarget	10.000000	na
68.566107	0.050140	76.000000	nontarget	11.000000	na
68.616247	0.049706	76.000000	nontarget	12.000000	na
68.665953	0.050485	76.000000	nontarget	13.000000	na
68.716438	0.049865	76.000000	nontarget	14.000000	na
68.766303	0.049933	76.000000	nontarget	15.000000	na
68.816236	0.049980	76.000000	nontarget	16.000000	na
68.866217	0.050028	77.000000	nontarget	1.000000	na
68.916244	0.049922	77.000000	nontarget	2.000000	na
68.966166	0.050155	77.000000	nontarget	3.000000	na
69.016321	0.049921	77.000000	nontarget	4.000000	na
69.066242	0.050016	77.000000	nontarget	5.000000	na
69.116258	0.049712	77.000000	nontarget	6.000000	na
69.165970	0.050428	77.000000	nontarget	7.000000	na
69.216397	0.049178	77.000000	nontarget	8.000000	na
69.265575	0.049972	77.000000	nontarget	9.000000	69.272153
69.315548	0.050727	77.000000	nontarget	10.000000	na
69.366274	0.049163	77.000000	nontarget	11.000000	na
69.415437	0.050776	77.000000	nontarget	12.000000	na
69.466213	0.049802	77.000000	nontarget	13.000000	na
69.516015	0.050311	77.000000	nontarget	14.000000	na
69.566326	0.049710	77.000000	nontarget	15.000000	na
69.616036	0.050024	77.000000	nontarget	16.000000	na
69.666061	0.049700	78.000000	nontarget	1.000000	na
69.715761	0.050574	78.000000	nontarget	2.000000	na
69.766335	0.049920	78.000000	nontarget	3.000000	na
69.816255	0.049648	78.000000	nontarget	4.000000	na
69.865903	0.050313	78.000000	nontarget	5.000000	na
69.916216	0.050019	78.000000	nontarget	6.000000	na
69.966235	0.049982	78.000000	nontarget	7.000000	na
70.016217	0.050009	78.000000	nontarget	8.000000	na
70.066227	0.049780	78.000000	nontarget	9.000000	na
70.116007	0.050342	78.000000	nontarget	10.000000	na
70.166349	0.049876	78.000000	nontarget	11.000000	na
70.216224	0.050035	78.000000	nontarget	12.000000	na
70.266260	0.049956	78.000000	nontarget	13.000000	70.272856
70.316216	0.049986	78.000000	nontarget	14.000000	na
70.366202	0.050130	78.000000	nontarget	15.000000	na
70.416332	0.049876	78.000000	nontarget	16.000000	na
70.466208	0.050133	79.000000	nontarget	1.000000	na
70.516341	0.049909	79.000000	nontarget	2.000000	na
70.566250	0.049965	79.000000	nontarget	3.000000	na
70.616215	0.049670	79.000000	nontarget	4.000000	na
70.665885	0.050370	79.000000	nontarget	5.000000	na
70.716255	0.049962	79.000000	nontarget	6.000000	na
70.766217	0.048988	79.000000	nontarget	7.000000	na
70.815205	0.051050	79.000000	nontarget	8.000000	na
70.866254	0.049176	79.000000	nontarget	9.000000	na
70.915431	0.050355	79.000000	nontarget	10.000000	na
70.965786	0.050474	79.000000	nontarget	11.000000	na
71.016260	0.050063	79.000000	nontarget	12.000000	na
71.066322	0.049991	79.000000	nontarget	13.000000	na
71.116313	0.050014	79.000000	nontarget	14.000000	na
71.166328	0.049862	79.000000	nontarget	15.000000	na
71.216190	0.050133	79.000000	nontarget	16.000000	71.222819
71.266323	0.050372	80.000000	nontarget	1.000000	71.272936
71.316695	0.049631	80.000000	nontarget	2.000000	na
71.366327	0.049299	80.000000	nontarget	3.000000	na
71.415626	0.050623	80.000000	nontarget	4.000000	na
71.466249	0.049989	80.000000	nontarget	5.000000	na
71.516238	0.050408	80.000000	nontarget	6.000000	na
71.566646	0.049630	80.000000	nontarget	7.000000	na
71.616276	0.049800	80.000000	nontarget	8.000000	na
71.666076	0.050585	80.000000	nontarget	9.000000	na
71.716661	0.049748	80.000000	nontarget	10.000000	na
71.766409	0.049907	80.000000	nontarget	11.000000	na
71.816316	0.049894	80.000000	nontarget	12.000000	na
71.866209	0.049920	80.000000	nontarget	13.000000	na
71.916129	0.050052	80.000000	nontarget	14.000000	na
71.966181	0.050046	80.000000	nontarget	15.000000	na
72.016227	0.049871	80.000000	nontarget	16.000000	na
72.066097	0.050116	81.000000	nontarget	1.000000	na
72.116213	0.050444	81.000000	nontarget	2.000000	na
72.166657	0.049618	81.000000	nontarget	3.000000	72.173269
72.216275	0.050062	81.000000	nontarget	4.000000	na
72.266337	0.049876	81.000000	nontarget	5.000000	na
72.316213	0.050473	81.000000	nontarget	6.000000	na
72.366687	0.049256	81.000000	nontarget	7.000000	na
72.415942	0.050458	81.000000	nontarget	8.000000	na
72.466400	0.049846	81.000000	nontarget	9.000000	na
72.516247	0.050035	81.000000	nontarget	10.000000	na
72.566281	0.049957	81.000000	nontarget	11.000000	na
72.616239	0.049696	81.000000	nontarget	12.000000	na
72.665935	0.049794	81.000000	nontarget	13.000000	na
72.715729	0.050559	81.000000	nontarget	14.000000	na
72.766288	0.049819	81.000000	nontarget	15.000000	na
72.816107	0.049975	81.000000	nontarget	16.000000	na
72.866082	0.050130	82.000000	target	1.000000	na
72.916212	0.049986	82.000000	target	2.000000	na
72.966199	0.049302	82.000000	target	3.000000	na
73.015500	0.050605	82.000000	target	4.000000	na
73.066105	0.050105	82.000000	target	5.000000	na
73.116210	0.050435	82.000000	target	6.000000	na
73.166645	0.049387	82.000000	target	7.000000	na
73.216032	0.049985	82.000000	target	8.000000	na
73.266017	0.050370	82.000000	target	9.000000	na
73.316387	0.050198	82.000000	target	10.000000	na
73.366585	0.049662	82.000000	target	11.000000	na
73.416247	0.049620	82.000000	target	12.000000	na
73.465868	0.050485	82.000000	target	13.000000	na
73.516352	0.048998	82.000000	target	14.000000	na
73.565351	0.050860	82.000000	target	15.000000	73.571077
73.616210	0.050380	82.000000	target	16.000000	na
73.666590	0.049840	83.000000	nontarget	1.000000	73.673076
73.716430	0.049904	83.000000	nontarget	2.000000	na
73.766334	0.049982	83.000000	nontarget	3.000000	na
73.816317	0.049720	83.000000	nontarget	4.000000	na
73.866036	0.049705	83.000000	nontarget	5.000000	na
73.915741	0.050891	83.000000	nontarget	6.000000	na
73.966632	0.049723	83.000000	nontarget	7.000000	na
74.016355	0.049247	83.000000	nontarget	8.000000	na
74.065601	0.050557	83.000000	nontarget	9.000000	na
74.116158	0.050177	83.000000	nontarget	10.000000	na
74.166335	0.049535	83.000000	nontarget	11.000000	na
74.215871	0.050454	83.000000	nontarget	12.000000	na
74.266324	0.049984	83.000000	nontarget	13.000000	na
74.316309	0.050018	83.000000	nontarget	14.000000	na
74.366327	0.049720	83.000000	nontarget	15.000000	na
74.416047	0.050201	83.000000	nontarget	16.000000	na
74.466248	0.049734	84.000000	nontarget	1.000000	na
74.515982	0.050300	84.000000	nontarget	2.000000	74.547557
74.566282	0.050363	84.000000	nontarget	3.000000	na
74.616645	0.049593	84.000000	nontarget	4.000000	na
74.666238	0.050093	84.000000	nontarget	5.000000	na
74.716330	0.050310	84.000000	nontarget	6.000000	na
74.766640	0.049356	84.000000	nontarget	7.000000	na
74.815996	0.050228	84.000000	nontarget	8.000000	na
74.866224	0.050426	84.000000	nontarget	9.000000	na
74.916650	0.049963	84.000000	nontarget	10.000000	na
74.966613	0.049418	84.000000	nontarget	11.000000	na
75.016031	0.049892	84.000000	nontarget	12.000000	na
75.065923	0.050239	84.000000	nontarget	13.000000	na
75.116162	0.049837	84.000000	nontarget	14.000000	na
75.165999	0.050312	84.000000	nontarget	15.000000	na
75.216311	0.049741	84.000000	nontarget	16.000000	na
75.266052	0.049776	85.000000	nontarget	1.000000	na
75.315828	0.050168	85.000000	nontarget	2.000000	75.347113
75.365996	0.050227	85.000000	nontarget	3.000000	na
75.416223	0.050133	85.000000	nontarget	4.000000	na
75.466357	0.049835	85.000000	nontarget	5.000000	na
75.516192	0.049411	85.000000	nontarget	6.000000	na
75.565603	0.050631	85.000000	nontarget	7.000000	na
75.616233	0.050097	85.000000	nontarget	8.000000	na
75.666331	0.049914	85.000000	nontarget	9.000000	na
75.716244	0.050310	85.000000	nontarget	10.000000	na
75.766554	0.049734	85.000000	nontarget	11.000000	na
75.816288	0.049562	85.000000	nontarget	12.000000	na
75.865850	0.050682	85.000000	nontarget	13.000000	na
75.916532	0.049719	85.000000	nontarget	14.000000	na
75.966251	0.049420	85.000000	nontarget	15.000000	na
76.015671	0.050455	85.000000	nontarget	16.000000	na
76.066126	0.049917	86.000000	target	1.000000	na
76.116043	0.050199	86.000000	target	2.000000	na
76.166242	0.049447	86.000000	target	3.000000	na
76.215688	0.050125	86.000000	target	4.000000	na
76.265813	0.050314	86.000000	target	5.000000	na
76.316127	0.049810	86.000000	target	6.000000	na
76.365937	0.050198	86.000000	target	7.000000	na
76.416135	0.049790	86.000000	target	8.000000	na
76.465926	0.050462	86.000000	target	9.000000	na
76.516388	0.049866	86.000000	target	10.000000	na
76.566254	0.049863	86.000000	target	11.000000	76.590375
76.616118	0.050136	86.000000	target	12.000000	na
76.666253	0.050260	86.000000	target	13.000000	na
76.716513	0.050035	86.000000	target	14.000000	na
76.766548	0.049830	86.000000	target	15.000000	na
76.816378	0.049883	86.000000	target	16.000000	na
76.866261	0.049953	87.000000	target	1.000000	na
76.916214	0.049739	87.000000	target	2.000000	na
76.965953	0.049401	87.000000	target	3.000000	na
77.015354	0.050875	87.000000	target	4.000000	na
77.066229	0.050037	87.000000	target	5.000000	na
77.116266	0.049883	87.000000	target	6.000000	na
77.166150	0.049548	87.000000	target	7.000000	na
77.215698	0.050798	87.000000	target	8.000000	na
77.266495	0.049687	87.000000	target	9.000000	na
77.316182	0.050037	87.000000	target	10.000000	na
77.366219	0.050012	87.000000	target	11.000000	na
77.416232	0.050326	87.000000	target	12.000000	na
77.466557	0.049708	87.000000	target	13.000000	na
77.516265	0.049197	87.000000	target	14.000000	na
77.565462	0.050649	87.000000	target	15.000000	na
77.616111	0.049949	87.000000	target	16.000000	na
77.666060	0.050159	88.000000	nontarget	1.000000	na
77.716219	0.049862	88.000000	nontarget	2.000000	na
77.766080	0.049704	88.000000	nontarget	3.000000	77.772493
77.815784	0.050435	88.000000	nontarget	4.000000	na
77.866220	0.049450	88.000000	nontarget	5.000000	na
77.915669	0.050540	88.000000	nontarget	6.000000	na
77.966209	0.050010	88.000000	nontarget	7.000000	na
78.016219	0.050152	88.000000	nontarget	8.000000	na
78.066371	0.049968	88.000000	nontarget	9.000000	na
78.116339	0.049893	88.000000	nontarget	10.000000	na
78.166232	0.050058	88.000000	nontarget	11.000000	na
78.216290	0.049782	88.000000	nontarget	12.000000	na
78.266072	0.050494	88.000000	nontarget	13.000000	na
78.316566	0.049675	88.000000	nontarget	14.000000	na
78.366241	0.049071	88.000000	nontarget	15.000000	na
78.415312	0.050918	88.000000	nontarget	16.000000	na
78.466231	0.049845	89.000000	nontarget	1.000000	na
78.516075	0.049878	89.000000	nontarget	2.000000	na
78.565954	0.049951	89.000000	nontarget	3.000000	na
78.615905	0.050433	89.000000	nontarget	4.000000	na
78.666338	0.049904	89.000000	nontarget	5.000000	na
78.716242	0.050091	89.000000	nontarget	6.000000	na
78.766333	0.049954	89.000000	nontarget	7.000000	na
78.816287	0.049944	89.000000	nontarget	8.000000	na
78.866231	0.050095	89.000000	nontarget	9.000000	na
78.916325	0.049458	89.000000	nontarget	10.000000	78.922861
78.965783	0.050312	89.000000	nontarget	11.000000	na
79.016095	0.049243	89.000000	nontarget	12.000000	na
79.065337	0.050917	89.000000	nontarget	13.000000	na
79.116255	0.049199	89.000000	nontarget	14.000000	na
79.165454	0.050779	89.000000	nontarget	15.000000	na
79.216232	0.049862	89.000000	nontarget	16.000000	na
79.266094	0.049606	90.000000	nontarget	1.000000	na
79.315700	0.050799	90.000000	nontarget	2.000000	na
79.366498	0.049756	90.000000	nontarget	3.000000	na
79.416255	0.049372	90.000000	nontarget	4.000000	na
79.465627	0.050624	90.000000	nontarget	5.000000	na
79.516251	0.050069	90.000000	nontarget	6.000000	na
79.566320	0.049937	90.000000	nontarget	7.000000	na
79.616257	0.050049	90.000000	nontarget	8.000000	na
79.666306	0.049902	90.000000	nontarget	9.000000	na
79.716208	0.050046	90.000000	nontarget	10.000000	na
79.766254	0.049950	90.000000	nontarget	11.000000	na
79.816204	0.050055	90.000000	nontarget	12.000000	na
79.866259	0.049970	90.000000	nontarget	13.000000	na
79.916228	0.049059	90.000000	nontarget	14.000000	na
79.965287	0.050960	90.000000	nontarget	15.000000	79.971756
80.016248	0.049981	90.000000	nontarget	16.000000	na
80.066229	0.049571	91.000000	nontarget	1.000000	80.072859
80.115800	0.050462	91.000000	nontarget	2.000000	na
80.166262	0.049790	91.000000	nontarget	3.000000	na
80.216053	0.049686	91.000000	nontarget	4.000000	na
80.265738	0.050518	91.000000	nontarget	5.000000	na
80.316256	0.049828	91.000000	nontarget	6.000000	na
80.366084	0.050348	91.000000	nontarget	7.000000	na
80.416432	0.049422	91.000000	nontarget	8.000000	na
80.465854	0.050365	91.000000	nontarget	9.000000	na
80.516220	0.049916	91.000000	nontarget	10.000000	na
80.566135	0.050129	91.000000	nontarget	11.000000	na
80.616264	0.049832	91.000000	nontarget	12.000000	na
80.666096	0.050096	91.000000	nontarget	13.000000	na
80.716191	0.049925	91.000000	nontarget	14.000000	na
80.766117	0.050108	91.000000	nontarget	15.000000	na
80.816225	0.050101	91.000000	nontarget	16.000000	na
80.866326	0.049933	92.000000	nontarget	1.000000	na
80.916259	0.049897	92.000000	nontarget	2.000000	80.932003
80.966155	0.050308	92.000000	nontarget	3.000000	na
81.016463	0.049786	92.000000	nontarget	4.000000	na
81.066250	0.049950	92.000000	nontarget	5.000000	na
81.116200	0.050037	92.000000	nontarget	6.000000	na
81.166236	0.049502	92.000000	nontarget	7.000000	na
81.215739	0.050578	92.000000	nontarget	8.000000	na
81.266316	0.049621	92.000000	nontarget	9.000000	na
81.315938	0.050234	92.000000	nontarget	10.000000	na
81.366172	0.050025	92.000000	nontarget	11.000000	na
81.416197	0.049793	92.000000	nontarget	12.000000	na
81.465991	0.050253	92.000000	nontarget	13.000000	na
81.516244	0.049974	92.000000	nontarget	14.000000	na
81.566218	0.050000	92.000000	nontarget	15.000000	na
81.616218	0.049997	92.000000	nontarget	16.000000	na
81.666215	0.049281	93.000000	target	1.000000	na
81.715496	0.050706	93.000000	target	2.000000	na
81.766202	0.050341	93.000000	target	3.000000	na
81.816543	0.049899	93.000000	target	4.000000	na
81.866441	0.049836	93.000000	target	5.000000	na
81.916277	0.050272	93.000000	target	6.000000	na
81.966549	0.049641	93.000000	target	7.000000	na
82.016190	0.050066	93.000000	target	8.000000	na
82.066256	0.049757	93.000000	target	9.000000	na
82.116013	0.050472	93.000000	target	10.000000	na
82.166485	0.050006	93.000000	target	11.000000	na
82.216492	0.049751	93.000000	target	12.000000	na
82.266242	0.049597	93.000000	target	13.000000	na
82.315839	0.049801	93.000000	target	14.000000	na
82.365640	0.050594	93.000000	target	15.000000	na
82.416234	0.049064	93.000000	target	16.000000	na
82.465298	0.050936	94.000000	nontarget	1.000000	82.471116
82.516233	0.050249	94.000000	nontarget	2.000000	na
82.566483	0.049668	94.000000	nontarget	3.000000	na
82.616151	0.049730	94.000000	nontarget	4.000000	na
82.665881	0.050064	94.000000	nontarget	5.000000	na
82.715946	0.050275	94.000000	nontarget	6.000000	na
82.766220	0.049653	94.000000	nontarget	7.000000	na
82.815874	0.049700	94.000000	nontarget	8.000000	na
82.865574	0.050447	94.000000	nontarget	9.000000	na
82.916021	0.050208	94.000000	nontarget	10.000000	na
82.966229	0.049726	94.000000	nontarget	11.000000	na
83.015955	0.050264	94.000000	nontarget	12.000000	na
83.066219	0.049420	94.000000	nontarget	13.000000	na
83.115639	0.050838	94.000000	nontarget	14.000000	na
83.166476	0.050012	94.000000	nontarget	15.000000	na
83.216489	0.049738	94.000000	nontarget	16.000000	na
83.266227	0.049878	95.000000	nontarget	1.000000	na
83.316105	0.049479	95.000000	nontarget	2.000000	83.335362
83.365585	0.050644	95.000000	nontarget	3.000000	na
83.416228	0.049904	95.000000	nontarget	4.000000	na
83.466132	0.050396	95.000000	nontarget	5.000000	na
83.516528	0.049778	95.000000	nontarget	6.000000	na
83.566306	0.049812	95.000000	nontarget	7.000000	na
83.616118	0.049456	95.000000	nontarget	8.000000	na
83.665574	0.050661	95.000000	nontarget	9.000000	na
83.716235	0.049984	95.000000	nontarget	10.000000	na
83.766219	0.049838	95.000000	nontarget	11.000000	na
83.816057	0.050087	95.000000	nontarget	12.000000	na
83.866144	0.049548	95.000000	nontarget	13.000000	na
83.915692	0.050508	95.000000	nontarget	14.000000	na
83.966199	0.049725	95.000000	nontarget	15.000000	na
84.015924	0.050487	95.000000	nontarget	16.000000	na
84.066411	0.049989	96.000000	nontarget	1.000000	na
84.116400	0.049884	96.000000	nontarget	2.000000	84.122142
84.166284	0.050219	96.000000	nontarget	3.000000	na
84.216503	0.049665	96.000000	nontarget	4.000000	na
84.266168	0.049812	96.000000	nontarget	5.000000	na
84.315980	0.049747	96.000000	nontarget	6.000000	na
84.365727	0.050057	96.000000	nontarget	7.000000	na
84.415785	0.050616	96.000000	nontarget	8.000000	na
84.466401	0.049849	96.000000	nontarget	9.000000	na
84.516250	0.049840	96.000000	nontarget	10.000000	na
84.566090	0.049908	96.000000	nontarget	11.000000	na
84.615998	0.050269	96.000000	nontarget	12.000000	na
84.666266	0.049444	96.000000	nontarget	13.000000	na
84.715710	0.050501	96.000000	nontarget	14.000000	na
84.766211	0.050048	96.000000	nontarget	15.000000	na
84.816259	0.049840	96.000000	nontarget	16.000000	na
84.866098	0.050130	97.000000	nontarget	1.000000	na
84.916228	0.049992	97.000000	nontarget	2.000000	na
84.966220	0.050239	97.000000	nontarget	3.000000	84.982288
85.016460	0.049774	97.000000	nontarget	4.000000	na
85.066234	0.049940	97.000000	nontarget	5.000000	na
85.116174	0.050281	97.000000	nontarget	6.000000	na
85.166455	0.049792	97.000000	nontarget	7.000000	na
85.216248	0.049767	97.000000	nontarget	8.000000	na
85.266015	0.050433	97.000000	nontarget	9.000000	na
85.316448	0.049990	97.000000	nontarget	10.000000	na
85.366439	0.049769	97.000000	nontarget	11.000000	na
85.416207	0.050218	97.000000	nontarget	12.000000	na
85.466425	0.049103	97.000000	nontarget	13.000000	na
85.515528	0.050703	97.000000	nontarget	14.000000	na
85.566231	0.050003	97.000000	nontarget	15.000000	na
85.616233	0.050198	97.000000	nontarget	16.000000	na
85.666432	0.049617	98.000000	nontarget	1.000000	na
85.716049	0.049459	98.000000	nontarget	2.000000	85.746854
85.765508	0.050728	98.000000	nontarget	3.000000	na
85.816236	0.049672	98.000000	nontarget	4.000000	na
85.865908	0.050346	98.000000	nontarget	5.000000	na
85.916255	0.049460	98.000000	nontarget	6.000000	na
85.965715	0.049861	98.000000	nontarget	7.000000	na
86.015576	0.050704	98.000000	nontarget	8.000000	na
86.066280	0.049880	98.000000	nontarget	9.000000	na
86.116160	0.049461	98.000000	nontarget	10.000000	na
86.165621	0.050817	98.000000	nontarget	11.000000	na
86.216438	0.049789	98.000000	nontarget	12.000000	na
86.266227	0.050037	98.000000	nontarget	13.000000	na
86.316264	0.049956	98.000000	nontarget	14.000000	na
86.366220	0.050004	98.000000	nontarget	15.000000	na
86.416224	0.050161	98.000000	nontarget	16.000000	na
86.466384	0.050297	99.000000	nontarget	1.000000	na
86.516682	0.049924	99.000000	nontarget	2.000000	na
86.566606	0.049780	99.000000	nontarget	3.000000	86.581820
86.616386	0.050022	99.000000	nontarget	4.000000	na
86.666408	0.049774	99.000000	nontarget	5.000000	na
86.716181	0.049827	99.000000	nontarget	6.000000	na
86.766008	0.050240	99.000000	nontarget	7.000000	na
86.816249	0.049983	99.000000	nontarget	8.000000	na
86.866232	0.049914	99.000000	nontarget	9.000000	na
86.916146	0.049890	99.000000	nontarget	10.000000	na
86.966035	0.050054	99.000000	nontarget	11.000000	na
87.016089	0.050340	99.000000	nontarget	12.000000	na
87.066429	0.049451	99.000000	nontarget	13.000000	na
87.115880	0.050342	99.000000	nontarget	14.000000	na
87.166222	0.050027	99.000000	nontarget	15.000000	na
87.216249	0.049973	99.000000	nontarget	16.000000	na
87.266222	0.050357	100.000000	target	1.000000	na
87.316579	0.049600	100.000000	target	2.000000	na
87.366179	0.049745	100.000000	target	3.000000	na
87.415923	0.050489	100.000000	target	4.000000	na
87.466412	0.050184	100.000000	target	5.000000	na
87.516596	0.049778	100.000000	target	6.000000	na
87.566374	0.049790	100.000000	target	7.000000	na
87.616164	0.050165	100.000000	target	8.000000	na
87.666329	0.049891	100.000000	target	9.000000	na
87.716220	0.050428	100.000000	target	10.000000	na
87.766648	0.049804	100.000000	target	11.000000	na
87.816452	0.049494	100.000000	target	12.000000	na
87.865946	0.050403	100.000000	target	13.000000	na
87.916349	0.050091	100.000000	target	14.000000	na
87.966440	0.050062	100.000000	target	15.000000	na
88.016502	0.050008	100.000000	target	16.000000	na
88.066510	0.050174	101.000000	nontarget	1.000000	na
88.116684	0.049340	101.000000	nontarget	2.000000	88.123354
88.166024	0.050361	101.000000	nontarget	3.000000	na
88.216385	0.050353	101.000000	nontarget	4.000000	na
88.266738	0.049830	101.000000	nontarget	5.000000	na
88.316568	0.049633	101.000000	nontarget	6.000000	na
88.366200	0.049894	101.000000	nontarget	7.000000	na
88.416095	0.050314	101.000000	nontarget	8.000000	na
88.466409	0.049455	101.000000	nontarget	9.000000	na
88.515863	0.050657	101.000000	nontarget	10.000000	na
88.566521	0.049541	101.000000	nontarget	11.000000	na
88.616062	0.049909	101.000000	nontarget	12.000000	na
88.665971	0.050645	101.000000	nontarget	13.000000	na
88.716616	0.049784	101.000000	nontarget	14.000000	na
88.766400	0.050054	101.000000	nontarget	15.000000	na
88.816454	0.049693	101.000000	nontarget	16.000000	na
88.866147	0.050240	102.000000	nontarget	1.000000	88.892855
88.916387	0.050324	102.000000	nontarget	2.000000	na
88.966711	0.049635	102.000000	nontarget	3.000000	na
89.016346	0.049285	102.000000	nontarget	4.000000	na
89.065631	0.050984	102.000000	nontarget	5.000000	na
89.116615	0.049612	102.000000	nontarget	6.000000	na
89.166227	0.049895	102.000000	nontarget	7.000000	na
89.216122	0.049170	102.000000	nontarget	8.000000	na
89.265291	0.050433	102.000000	nontarget	9.000000	na
89.315724	0.050397	102.000000	nontarget	10.000000	na
89.366121	0.049904	102.000000	nontarget	11.000000	na
89.416025	0.050242	102.000000	nontarget	12.000000	na
89.466267	0.049967	102.000000	nontarget	13.000000	na
89.516234	0.050155	102.000000	nontarget	14.000000	na
89.566389	0.049734	102.000000	nontarget	15.000000	na
89.616123	0.049721	102.000000	nontarget	16.000000	na
89.665844	0.050702	103.000000	nontarget	1.000000	na
89.716546	0.049866	103.000000	nontarget	2.000000	na
89.766412	0.049436	103.000000	nontarget	3.000000	89.789636
89.815848	0.050744	103.000000	nontarget	4.000000	na
89.866592	0.049822	103.000000	nontarget	5.000000	na
89.916414	0.049772	103.000000	nontarget	6.000000	na
89.966186	0.049773	103.000000	nontarget	7.000000	na
90.015959	0.050068	103.000000	nontarget	8.000000	na
90.066027	0.049895	103.000000	nontarget	9.000000	na
90.115922	0.049719	103.000000	nontarget	10.000000	na
90.165641	0.050699	103.000000	nontarget	11.000000	na
90.216340	0.050006	103.000000	nontarget	12.000000	na
90.266345	0.050092	103.000000	nontarget	13.000000	na
90.316438	0.049973	103.000000	nontarget	14.000000	na
90.366410	0.050064	103.000000	nontarget	15.000000	na
90.416475	0.049654	103.000000	nontarget	16.000000	na
90.466129	0.049571	104.000000	nontarget	1.000000	na
90.515700	0.050634	104.000000	nontarget	2.000000	na
90.566333	0.050159	104.000000	nontarget	3.000000	na
90.616493	0.050038	104.000000	nontarget	4.000000	na
90.666531	0.049634	104.000000	nontarget	5.000000	na
90.716165	0.050223	104.000000	nontarget	6.000000	90.732104
90.766388	0.049183	104.000000	nontarget	7.000000	na
90.815571	0.050097	104.000000	nontarget	8.000000	na
90.865668	0.050079	104.000000	nontarget	9.000000	na
90.915747	0.050534	104.000000	nontarget	10.000000	na
90.966281	0.050284	104.000000	nontarget	11.000000	na
91.016565	0.049074	104.000000	nontarget	12.000000	na
91.065640	0.050711	104.000000	nontarget	13.000000	na
91.116351	0.048924	104.000000	nontarget	14.000000	na
91.165275	0.051072	104.000000	nontarget	15.000000	na
91.216347	0.049517	104.000000	nontarget	16.000000	na
91.265864	0.050482	105.000000	nontarget	1.000000	na
91.316346	0.049985	105.000000	nontarget	2.000000	na
91.366331	0.050060	105.000000	nontarget	3.000000	na
91.416392	0.049786	105.000000	nontarget	4.000000	na
91.466177	0.049777	105.000000	nontarget	5.000000	na
91.515955	0.049617	105.000000	nontarget	6.000000	na
91.565572	0.050774	105.000000	nontarget	7.000000	na
91.616346	0.049686	105.000000	nontarget	8.000000	na
91.666031	0.050311	105.000000	nontarget	9.000000	na
91.716343	0.050002	105.000000	nontarget	10.000000	na
91.766345	0.049628	105.000000	nontarget	11.000000	na
91.815973	0.050414	105.000000	nontarget	12.000000	91.824522
91.866387	0.049556	105.000000	nontarget	13.000000	na
91.915944	0.050393	105.000000	nontarget	14.000000	na
91.966336	0.049841	105.000000	nontarget	15.000000	na
92.016177	0.049834	105.000000	nontarget	16.000000	na
92.066011	0.049800	106.000000	nontarget	1.000000	na
92.115811	0.049879	106.000000	nontarget	2.000000	na
92.165689	0.050650	106.000000	nontarget	3.000000	na
92.216339	0.050019	106.000000	nontarget	4.000000	na
92.266358	0.049995	106.000000	nontarget	5.000000	na
92.316353	0.049995	106.000000	nontarget	6.000000	na
92.366348	0.049730	106.000000	nontarget	7.000000	na
92.416079	0.050277	106.000000	nontarget	8.000000	na
92.466356	0.049989	106.000000	nontarget	9.000000	na
92.516345	0.049978	106.000000	nontarget	10.000000	na
92.566323	0.050028	106.000000	nontarget	11.000000	na
92.616351	0.049993	106.000000	nontarget	12.000000	na
92.666344	0.049998	106.000000	nontarget	13.000000	na
92.716342	0.049166	106.000000	nontarget	14.000000	na
92.765507	0.050508	106.000000	nontarget	15.000000	92.771631
92.816015	0.050103	106.000000	nontarget	16.000000	na
92.866118	0.050231	107.000000	nontarget	1.000000	92.872783
92.916350	0.049997	107.000000	nontarget	2.000000	na
92.966346	0.049267	107.000000	nontarget	3.000000	na
93.015614	0.050737	107.000000	nontarget	4.000000	na
93.066351	0.049925	107.000000	nontarget	5.000000	na
93.116275	0.049460	107.000000	nontarget	6.000000	na
93.165736	0.050214	107.000000	nontarget	7.000000	na
93.215949	0.050375	107.000000	nontarget	8.000000	na
93.266325	0.049566	107.000000	nontarget	9.000000	na
93.315890	0.049431	107.000000	nontarget	10.000000	na
93.365321	0.051020	107.000000	nontarget	11.000000	na
93.416341	0.049763	107.000000	nontarget	12.000000	na
93.466104	0.049745	107.000000	nontarget	13.000000	na
93.515848	0.050498	107.000000	nontarget	14.000000	na
93.566347	0.050001	107.000000	nontarget	15.000000	na
93.616348	0.049671	107.000000	nontarget	16.000000	na
93.666019	0.050045	108.000000	nontarget	1.000000	na
93.716064	0.049782	108.000000	nontarget	2.000000	na
93.765846	0.049954	108.000000	nontarget	3.000000	na
93.815800	0.049931	108.000000	nontarget	4.000000	93.847923
93.865731	0.050613	108.000000	nontarget	5.000000	na
93.916344	0.050019	108.000000	nontarget	6.000000	na
93.966363	0.049979	108.000000	nontarget	7.000000	na
94.016342	0.049310	108.000000	nontarget	8.000000	na
94.065652	0.050231	108.000000	nontarget	9.000000	na
94.115883	0.050471	108.000000	nontarget	10.000000	na
94.166354	0.049994	108.000000	nontarget	11.000000	na
94.216347	0.049792	108.000000	nontarget	12.000000	na
94.266139	0.050209	108.000000	nontarget	13.000000	na
94.316348	0.049999	108.000000	nontarget	14.000000	na
94.366347	0.050005	108.000000	nontarget	15.000000	na
94.416352	0.049994	108.000000	nontarget	16.000000	na
94.466345	0.049564	109.000000	nontarget	1.000000	na
94.515910	0.050435	109.000000	nontarget	2.000000	na
94.566345	0.049996	109.000000	nontarget	3.000000	na
94.616341	0.050066	109.000000	nontarget	4.000000	na
94.666406	0.049942	109.000000	nontarget	5.000000	94.673278
94.716349	0.049911	109.000000	nontarget	6.000000	na
94.766260	0.050088	109.000000	nontarget	7.000000	na
94.816348	0.049025	109.000000	nontarget	8.000000	na
94.865374	0.050976	109.000000	nontarget	9.000000	na
94.916350	0.049998	109.000000	nontarget	10.000000	na
94.966348	0.049047	109.000000	nontarget	11.000000	na
95.015394	0.050497	109.000000	nontarget	12.000000	na
95.065891	0.050456	109.000000	nontarget	13.000000	na
95.116347	0.049997	109.000000	nontarget	14.000000	na
95.166345	0.050004	109.000000	nontarget	15.000000	na
95.216348	0.049964	109.000000	nontarget	16.000000	na
95.266313	0.049343	110.000000	nontarget	1.000000	na
95.315655	0.050450	110.000000	nontarget	2.000000	na
95.366105	0.050227	110.000000	nontarget	3.000000	na
95.416332	0.050015	110.000000	nontarget	4.000000	na
95.466347	0.049989	110.000000	nontarget	5.000000	na
95.516336	0.049996	110.000000	nontarget	6.000000	95.539864
95.566332	0.049193	110.000000	nontarget	7.000000	na
95.615525	0.050803	110.000000	nontarget	8.000000	na
95.666328	0.049237	110.000000	nontarget	9.000000	na
95.715565	0.050782	110.000000	nontarget	10.000000	na
95.766347	0.049984	110.000000	nontarget	11.000000	na
95.816331	0.049996	110.000000	nontarget	12.000000	na
95.866327	0.050020	110.000000	nontarget	13.000000	na
95.916347	0.049727	110.000000	nontarget	14.000000	na
95.966074	0.049455	110.000000	nontarget	15.000000	na
96.015528	0.050211	110.000000	nontarget	16.000000	na
96.065739	0.050490	111.000000	nontarget	1.000000	na
96.116229	0.050121	111.000000	nontarget	2.000000	na
96.166350	0.050031	111.000000	nontarget	3.000000	na
96.216381	0.049991	111.000000	nontarget	4.000000	na
96.266372	0.049664	111.000000	nontarget	5.000000	na
96.316036	0.050012	111.000000	nontarget	6.000000	na
96.366048	0.049582	111.000000	nontarget	7.000000	na
96.415631	0.050218	111.000000	nontarget	8.000000	96.434628
96.465849	0.050428	111.000000	nontarget	9.000000	na
96.516276	0.050045	111.000000	nontarget	10.000000	na
96.566322	0.049290	111.000000	nontarget	11.000000	na
96.615611	0.050377	111.000000	nontarget	12.000000	na
96.665988	0.050256	111.000000	nontarget	13.000000	na
96.716244	0.050075	111.000000	nontarget	14.000000	na
96.766318	0.049802	111.000000	nontarget	15.000000	na
96.816121	0.050196	111.000000	nontarget	16.000000	na
96.866317	0.049717	112.000000	nontarget	1.000000	na
96.916034	0.050258	112.000000	nontarget	2.000000	na
96.966292	0.048890	112.000000	nontarget	3.000000	na
97.015182	0.051133	112.000000	nontarget	4.000000	na
97.066315	0.049951	112.000000	nontarget	5.000000	na
97.116266	0.050043	112.000000	nontarget	6.000000	na
97.166309	0.050042	112.000000	nontarget	7.000000	na
97.216352	0.049963	112.000000	nontarget	8.000000	na
97.266314	0.049052	112.000000	nontarget	9.000000	na
97.315366	0.050942	112.000000	nontarget	10.000000	97.321968
97.366308	0.050054	112.000000	nontarget	11.000000	na
97.416362	0.050026	112.000000	nontarget	12.000000	na
97.466388	0.049948	112.000000	nontarget	13.000000	na
97.516337	0.049662	112.000000	nontarget	14.000000	na
97.565999	0.050083	112.000000	nontarget	15.000000	na
97.616082	0.049666	112.000000	nontarget	16.000000	na
97.665748	0.049416	113.000000	nontarget	1.000000	na
97.715164	0.050605	113.000000	nontarget	2.000000	na
97.765769	0.050528	113.000000	nontarget	3.000000	na
97.816297	0.050029	113.000000	nontarget	4.000000	na
97.866327	0.050512	113.000000	nontarget	5.000000	na
97.916839	0.049080	113.000000	nontarget	6.000000	na
97.965919	0.049654	113.000000	nontarget	7.000000	na
98.015573	0.049786	113.000000	nontarget	8.000000	na
98.065359	0.050882	113.000000	nontarget	9.000000	na
98.116241	0.049441	113.000000	nontarget	10.000000	na
98.165683	0.050638	113.000000	nontarget	11.000000	na
98.216321	0.050092	113.000000	nontarget	12.000000	na
98.266412	0.049908	113.000000	nontarget	13.000000	na
98.316320	0.049573	113.000000	nontarget	14.000000	na
98.365894	0.049642	113.000000	nontarget	15.000000	98.381344
98.415536	0.050115	113.000000	nontarget	16.000000	na
98.465651	0.050583	114.000000	nontarget	1.000000	98.472244
98.516234	0.049753	114.000000	nontarget	2.000000	na
98.565987	0.050329	114.000000	nontarget	3.000000	na
98.616316	0.048862	114.000000	nontarget	4.000000	na
98.665178	0.050386	114.000000	nontarget	5.000000	na
98.715564	0.050747	114.000000	nontarget	6.000000	na
98.766311	0.050052	114.000000	nontarget	7.000000	na
98.816363	0.049728	114.000000	nontarget	8.000000	na
98.866092	0.050223	114.000000	nontarget	9.000000	na
98.916315	0.048955	114.000000	nontarget	10.000000	na
98.965270	0.050237	114.000000	nontarget	11.000000	na
99.015506	0.050801	114.000000	nontarget	12.000000	na
99.066307	0.049678	114.000000	nontarget	13.000000	na
99.115985	0.050411	114.000000	nontarget	14.000000	na
99.166397	0.049438	114.000000	nontarget	15.000000	na
99.215834	0.050438	114.000000	nontarget	16.000000	na
99.266272	0.050001	115.000000	nontarget	1.000000	na
99.316274	0.049685	115.000000	nontarget	2.000000	99.342625
99.365958	0.050449	115.000000	nontarget	3.000000	na
99.416407	0.049921	115.000000	nontarget	4.000000	na
99.466328	0.049982	115.000000	nontarget	5.000000	na
99.516310	0.050048	115.000000	nontarget	6.000000	na
99.566358	0.048971	115.000000	nontarget	7.000000	na
99.615329	0.050952	115.000000	nontarget	8.000000	na
99.666281	0.049988	115.000000	nontarget	9.000000	na
99.716269	0.050004	115.000000	nontarget	10.000000	na
99.766273	0.050026	115.000000	nontarget	11.000000	na
99.816299	0.049969	115.000000	nontarget	12.000000	na
99.866267	0.050002	115.000000	nontarget	13.000000	na
99.916269	0.050023	115.000000	nontarget	14.000000	na
99.966292	0.050060	115.000000	nontarget	15.000000	na
100.016352	0.048941	115.000000	nontarget	16.000000	na
100.065293	0.050999	116.000000	nontarget	1.000000	na
100.116292	0.049979	116.000000	nontarget	2.000000	na
100.166271	0.050095	116.000000	nontarget	3.000000	100.193949
100.216367	0.049998	116.000000	nontarget	4.000000	na
100.266364	0.048786	116.000000	nontarget	5.000000	na
100.315150	0.051156	116.000000	nontarget	6.000000	na
100.366306	0.050061	116.000000	nontarget	7.000000	na
100.416367	0.049178	116.000000	nontarget	8.000000	na
100.465545	0.050511	116.000000	nontarget	9.000000	na
100.516056	0.050235	116.000000	nontarget	10.000000	na
100.566291	0.050082	116.000000	nontarget	11.000000	na
100.616373	0.049995	116.000000	nontarget	12.000000	na
100.666368	0.049483	116.000000	nontarget	13.000000	na
100.715851	0.049669	116.000000	nontarget	14.000000	na
100.765519	0.050738	116.000000	nontarget	15.000000	na
100.816257	0.049983	116.000000	nontarget	16.000000	na
100.866240	0.049691	117.000000	nontarget	1.000000	na
100.915931	0.050390	117.000000	nontarget	2.000000	na
100.966320	0.050027	117.000000	nontarget	3.000000	100.972905
101.016347	0.049913	117.000000	nontarget	4.000000	na
101.066260	0.048957	117.000000	nontarget	5.000000	na
101.115217	0.051071	117.000000	nontarget	6.000000	na
101.166287	0.049970	117.000000	nontarget	7.000000	na
101.216257	0.049962	117.000000	nontarget	8.000000	na
101.266219	0.050079	117.000000	nontarget	9.000000	na
101.316298	0.050303	117.000000	nontarget	10.000000	na
101.366601	0.049649	117.000000	nontarget	11.000000	na
101.416251	0.050044	117.000000	nontarget	12.000000	na
101.466295	0.049963	117.000000	nontarget	13.000000	na
101.516257	0.049979	117.000000	nontarget	14.000000	na
101.566237	0.050114	117.000000	nontarget	15.000000	na
101.616351	0.049890	117.000000	nontarget	16.000000	na
101.666241	0.050006	118.000000	nontarget	1.000000	101.677580
101.716247	0.050039	118.000000	nontarget	2.000000	na
101.766286	0.050094	118.000000	nontarget	3.000000	na
101.816380	0.049864	118.000000	nontarget	4.000000	na
101.866244	0.050044	118.000000	nontarget	5.000000	na
101.916288	0.049445	118.000000	nontarget	6.000000	na
101.965734	0.050497	118.000000	nontarget	7.000000	na
102.016231	0.050121	118.000000	nontarget	8.000000	na
102.066352	0.050080	118.000000	nontarget	9.000000	na
102.116433	0.049349	118.000000	nontarget	10.000000	na
102.165782	0.050592	118.000000	nontarget	11.000000	na
102.216374	0.049940	118.000000	nontarget	12.000000	na
102.266314	0.050288	118.000000	nontarget	13.000000	na
102.316602	0.049657	118.000000	nontarget	14.000000	na
102.366259	0.050076	118.000000	nontarget	15.000000	na
102.416335	0.050018	118.000000	nontarget	16.000000	na
102.466352	0.049862	119.000000	target	1.000000	na
102.516214	0.050272	119.000000	target	2.000000	na
102.566486	0.049761	119.000000	target	3.000000	na
102.616248	0.049965	119.000000	target	4.000000	na
102.666213	0.050127	119.000000	target	5.000000	na
102.716340	0.049975	119.000000	target	6.000000	na
102.766315	0.049307	119.000000	target	7.000000	na
102.815622	0.050801	119.000000	target	8.000000	na
102.866423	0.049380	119.000000	target	9.000000	na
102.915804	0.050771	119.000000	target	10.000000	na
102.966575	0.049677	119.000000	target	11.000000	na
103.016252	0.049969	119.000000	target	12.000000	na
103.066221	0.050050	119.000000	target	13.000000	na
103.116272	0.049314	119.000000	target	14.000000	na
103.165585	0.050768	119.000000	target	15.000000	na
103.216353	0.050084	119.000000	target	16.000000	na
103.266437	0.049250	120.000000	target	1.000000	na
103.315687	0.049976	120.000000	target	2.000000	na
103.365663	0.050511	120.000000	target	3.000000	na
103.416174	0.050049	120.000000	target	4.000000	na
103.466223	0.050054	120.000000	target	5.000000	na
103.516277	0.049629	120.000000	target	6.000000	na
103.565906	0.049780	120.000000	target	7.000000	na
103.615686	0.050512	120.000000	target	8.000000	na
103.666198	0.050367	120.000000	target	9.000000	na
103.716565	0.049681	120.000000	target	10.000000	na
103.766246	0.050233	120.000000	target	11.000000	na
103.816479	0.049796	120.000000	target	12.000000	na
103.866275	0.049981	120.000000	target	13.000000	na
103.916256	0.050011	120.000000	target	14.000000	na
103.966267	0.050393	120.000000	target	15.000000	na
104.016661	0.049709	120.000000	target	16.000000	na
104.066369	0.050131	121.000000	nontarget	1.000000	na
104.116500	0.049739	121.000000	nontarget	2.000000	104.123104
104.166239	0.050016	121.000000	nontarget	3.000000	na
104.216255	0.049935	121.000000	nontarget	4.000000	na
104.266190	0.050163	121.000000	nontarget	5.000000	na
104.316353	0.049285	121.000000	nontarget	6.000000	na
104.365638	0.050556	121.000000	nontarget	7.000000	na
104.416194	0.050114	121.000000	nontarget	8.000000	na
104.466309	0.050279	121.000000	nontarget	9.000000	na
104.516587	0.049675	121.000000	nontarget	10.000000	na
104.566263	0.049324	121.000000	nontarget	11.000000	na
104.615587	0.050060	121.000000	nontarget	12.000000	na
104.665647	0.050205	121.000000	nontarget	13.000000	na
104.715852	0.050409	121.000000	nontarget	14.000000	na
104.766261	0.049963	121.000000	nontarget	15.000000	na
