onset	duration	trial_number	trial_type	frame_number	time_of_response
8.067339	0.049989	1.000000	nontarget	1.000000	na
8.117329	0.050364	1.000000	nontarget	2.000000	na
8.167693	0.050069	1.000000	nontarget	3.000000	na
8.217762	0.049616	1.000000	nontarget	4.000000	na
8.267377	0.049862	1.000000	nontarget	5.000000	na
8.317240	0.050276	1.000000	nontarget	6.000000	na
8.367516	0.049881	1.000000	nontarget	7.000000	na
8.417397	0.049643	1.000000	nontarget	8.000000	na
8.467040	0.050051	1.000000	nontarget	9.000000	na
8.517091	0.050024	1.000000	nontarget	10.000000	8.548331
8.567115	0.050634	1.000000	nontarget	11.000000	na
8.617750	0.049262	1.000000	nontarget	12.000000	na
8.667012	0.050348	1.000000	nontarget	13.000000	na
8.717360	0.050155	1.000000	nontarget	14.000000	na
8.767515	0.049971	1.000000	nontarget	15.000000	na
8.817486	0.049731	1.000000	nontarget	16.000000	na
8.867216	0.050275	2.000000	nontarget	1.000000	na
8.917491	0.049898	2.000000	nontarget	2.000000	na
8.967389	0.049733	2.000000	nontarget	3.000000	na
9.017121	0.050366	2.000000	nontarget	4.000000	na
9.067487	0.049401	2.000000	nontarget	5.000000	na
9.116888	0.050165	2.000000	nontarget	6.000000	na
9.167052	0.050309	2.000000	nontarget	7.000000	na
9.217361	0.049630	2.000000	nontarget	8.000000	9.224034
9.266992	0.050475	2.000000	nontarget	9.000000	na
9.317467	0.050419	2.000000	nontarget	10.000000	na
9.367885	0.049648	2.000000	nontarget	11.000000	na
9.417533	0.049960	2.000000	nontarget	12.000000	na
9.467493	0.049991	2.000000	nontarget	13.000000	na
9.517484	0.050004	2.000000	nontarget	14.000000	na
9.567488	0.050274	2.000000	nontarget	15.000000	na
9.617762	0.050037	2.000000	nontarget	16.000000	na
9.667799	0.049882	3.000000	nontarget	1.000000	na
9.717682	0.049797	3.000000	nontarget	2.000000	na
9.767479	0.049386	3.000000	nontarget	3.000000	na
9.816865	0.050668	3.000000	nontarget	4.000000	na
9.867532	0.049982	3.000000	nontarget	5.000000	na
9.917514	0.050010	3.000000	nontarget	6.000000	na
9.967524	0.049986	3.000000	nontarget	7.000000	na
10.017510	0.050247	3.000000	nontarget	8.000000	na
10.067757	0.049675	3.000000	nontarget	9.000000	na
10.117432	0.049846	3.000000	nontarget	10.000000	10.123927
10.167278	0.050572	3.000000	nontarget	11.000000	na
10.217851	0.049997	3.000000	nontarget	12.000000	na
10.267848	0.049393	3.000000	nontarget	13.000000	na
10.317241	0.050539	3.000000	nontarget	14.000000	na
10.367780	0.049351	3.000000	nontarget	15.000000	na
10.417131	0.050314	3.000000	nontarget	16.000000	na
10.467445	0.049794	4.000000	nontarget	1.000000	na
10.517239	0.050417	4.000000	nontarget	2.000000	na
10.567656	0.049828	4.000000	nontarget	3.000000	na
10.617483	0.050265	4.000000	nontarget	4.000000	na
10.667748	0.049993	4.000000	nontarget	5.000000	na
10.717741	0.049711	4.000000	nontarget	6.000000	na
10.767452	0.049579	4.000000	nontarget	7.000000	na
10.817030	0.049963	4.000000	nontarget	8.000000	na
10.866994	0.050739	4.000000	nontarget	9.000000	na
10.917733	0.049936	4.000000	nontarget	10.000000	na
10.967669	0.049819	4.000000	nontarget	11.000000	na
11.017488	0.049690	4.000000	nontarget	12.000000	11.033413
11.067177	0.050574	4.000000	nontarget	13.000000	na
11.117752	0.049744	4.000000	nontarget	14.000000	na
11.167495	0.049275	4.000000	nontarget	15.000000	na
11.216770	0.050732	4.000000	nontarget	16.000000	na
11.267502	0.049923	5.000000	nontarget	1.000000	na
11.317425	0.049645	5.000000	nontarget	2.000000	na
11.367070	0.050081	5.000000	nontarget	3.000000	na
11.417151	0.050610	5.000000	nontarget	4.000000	na
11.467761	0.049743	5.000000	nontarget	5.000000	na
11.517504	0.049987	5.000000	nontarget	6.000000	na
11.567491	0.050235	5.000000	nontarget	7.000000	na
11.617726	0.049261	5.000000	nontarget	8.000000	na
11.666988	0.050545	5.000000	nontarget	9.000000	na
11.717533	0.049549	5.000000	nontarget	10.000000	na
11.767082	0.049791	5.000000	nontarget	11.000000	na
11.816873	0.050617	5.000000	nontarget	12.000000	na
11.867490	0.050248	5.000000	nontarget	13.000000	11.882835
11.917738	0.049607	5.000000	nontarget	14.000000	na
11.967345	0.049795	5.000000	nontarget	15.000000	na
12.017139	0.050168	5.000000	nontarget	16.000000	na
12.067307	0.050416	6.000000	nontarget	1.000000	na
12.117723	0.049721	6.000000	nontarget	2.000000	na
12.167445	0.050022	6.000000	nontarget	3.000000	na
12.217467	0.050034	6.000000	nontarget	4.000000	na
12.267501	0.049475	6.000000	nontarget	5.000000	na
12.316976	0.050195	6.000000	nontarget	6.000000	na
12.367171	0.050264	6.000000	nontarget	7.000000	na
12.417435	0.050190	6.000000	nontarget	8.000000	na
12.467625	0.049840	6.000000	nontarget	9.000000	na
12.517465	0.050005	6.000000	nontarget	10.000000	na
12.567469	0.050167	6.000000	nontarget	11.000000	na
12.617637	0.049876	6.000000	nontarget	12.000000	na
12.667513	0.049950	6.000000	nontarget	13.000000	na
12.717463	0.050253	6.000000	nontarget	14.000000	12.741336
12.767716	0.049800	6.000000	nontarget	15.000000	na
12.817516	0.050198	6.000000	nontarget	16.000000	na
12.867714	0.049952	7.000000	nontarget	1.000000	12.874459
12.917667	0.049819	7.000000	nontarget	2.000000	na
12.967486	0.049577	7.000000	nontarget	3.000000	na
13.017063	0.050415	7.000000	nontarget	4.000000	na
13.067478	0.049995	7.000000	nontarget	5.000000	na
13.117473	0.050355	7.000000	nontarget	6.000000	na
13.167828	0.050007	7.000000	nontarget	7.000000	na
13.217835	0.049110	7.000000	nontarget	8.000000	na
13.266945	0.050687	7.000000	nontarget	9.000000	na
13.317632	0.049813	7.000000	nontarget	10.000000	na
13.367445	0.050039	7.000000	nontarget	11.000000	na
13.417484	0.050125	7.000000	nontarget	12.000000	na
13.467609	0.049821	7.000000	nontarget	13.000000	na
13.517430	0.049572	7.000000	nontarget	14.000000	na
13.567002	0.050816	7.000000	nontarget	15.000000	na
13.617817	0.049885	7.000000	nontarget	16.000000	13.629439
13.667702	0.049886	8.000000	nontarget	1.000000	13.674346
13.717588	0.049274	8.000000	nontarget	2.000000	na
13.766863	0.050753	8.000000	nontarget	3.000000	na
13.817616	0.049901	8.000000	nontarget	4.000000	na
13.867517	0.050179	8.000000	nontarget	5.000000	na
13.917696	0.049446	8.000000	nontarget	6.000000	na
13.967142	0.050381	8.000000	nontarget	7.000000	na
14.017523	0.050180	8.000000	nontarget	8.000000	na
14.067703	0.049995	8.000000	nontarget	9.000000	na
14.117698	0.050003	8.000000	nontarget	10.000000	na
14.167701	0.049780	8.000000	nontarget	11.000000	na
14.217481	0.049466	8.000000	nontarget	12.000000	na
14.266946	0.050250	8.000000	nontarget	13.000000	na
14.317196	0.050185	8.000000	nontarget	14.000000	na
14.367382	0.050109	8.000000	nontarget	15.000000	na
14.417491	0.049898	8.000000	nontarget	16.000000	na
14.467389	0.050236	9.000000	nontarget	1.000000	na
14.517625	0.049976	9.000000	nontarget	2.000000	na
14.567601	0.049686	9.000000	nontarget	3.000000	na
14.617286	0.050304	9.000000	nontarget	4.000000	na
14.667591	0.049817	9.000000	nontarget	5.000000	14.690830
14.717408	0.050186	9.000000	nontarget	6.000000	na
14.767594	0.049899	9.000000	nontarget	7.000000	na
14.817493	0.050223	9.000000	nontarget	8.000000	na
14.867716	0.049276	9.000000	nontarget	9.000000	na
14.916992	0.050800	9.000000	nontarget	10.000000	na
14.967792	0.049389	9.000000	nontarget	11.000000	na
15.017182	0.050501	9.000000	nontarget	12.000000	na
15.067683	0.049904	9.000000	nontarget	13.000000	na
15.117586	0.049984	9.000000	nontarget	14.000000	na
15.167570	0.049607	9.000000	nontarget	15.000000	na
15.217177	0.050313	9.000000	nontarget	16.000000	15.223778
15.267489	0.050107	10.000000	nontarget	1.000000	15.274069
15.317596	0.049524	10.000000	nontarget	2.000000	na
15.367120	0.050782	10.000000	nontarget	3.000000	na
15.417903	0.048794	10.000000	nontarget	4.000000	na
15.466696	0.050636	10.000000	nontarget	5.000000	na
15.517332	0.049540	10.000000	nontarget	6.000000	na
15.566872	0.050386	10.000000	nontarget	7.000000	na
15.617258	0.049902	10.000000	nontarget	8.000000	na
15.667161	0.050198	10.000000	nontarget	9.000000	na
15.717359	0.049898	10.000000	nontarget	10.000000	na
15.767257	0.050416	10.000000	nontarget	11.000000	na
15.817672	0.050054	10.000000	nontarget	12.000000	na
15.867726	0.049196	10.000000	nontarget	13.000000	na
15.916922	0.050777	10.000000	nontarget	14.000000	15.923609
15.967699	0.049689	10.000000	nontarget	15.000000	na
16.017388	0.049730	10.000000	nontarget	16.000000	na
16.067118	0.050467	11.000000	nontarget	1.000000	na
16.117586	0.050187	11.000000	nontarget	2.000000	na
16.167772	0.049994	11.000000	nontarget	3.000000	na
16.217766	0.049840	11.000000	nontarget	4.000000	na
16.267606	0.049967	11.000000	nontarget	5.000000	na
16.317573	0.049544	11.000000	nontarget	6.000000	na
16.367117	0.050466	11.000000	nontarget	7.000000	na
16.417582	0.050073	11.000000	nontarget	8.000000	na
16.467655	0.049586	11.000000	nontarget	9.000000	na
16.517242	0.050344	11.000000	nontarget	10.000000	na
16.567586	0.050288	11.000000	nontarget	11.000000	16.578857
16.617874	0.049325	11.000000	nontarget	12.000000	na
16.667199	0.050323	11.000000	nontarget	13.000000	na
16.717522	0.050105	11.000000	nontarget	14.000000	na
16.767627	0.049831	11.000000	nontarget	15.000000	na
16.817458	0.049629	11.000000	nontarget	16.000000	na
16.867087	0.049739	12.000000	target	1.000000	na
16.916826	0.050327	12.000000	target	2.000000	na
16.967153	0.050070	12.000000	target	3.000000	na
17.017223	0.050375	12.000000	target	4.000000	na
17.067599	0.049980	12.000000	target	5.000000	na
17.117578	0.049487	12.000000	target	6.000000	na
17.167065	0.050591	12.000000	target	7.000000	na
17.217656	0.049999	12.000000	target	8.000000	na
17.267655	0.049751	12.000000	target	9.000000	na
17.317407	0.049590	12.000000	target	10.000000	na
17.366997	0.049624	12.000000	target	11.000000	na
17.416621	0.050625	12.000000	target	12.000000	na
17.467246	0.049802	12.000000	target	13.000000	17.473927
17.517048	0.050549	12.000000	target	14.000000	na
17.567597	0.049967	12.000000	target	15.000000	na
17.617564	0.049978	12.000000	target	16.000000	na
17.667542	0.049969	13.000000	nontarget	1.000000	na
17.717511	0.049222	13.000000	nontarget	2.000000	na
17.766733	0.050634	13.000000	nontarget	3.000000	na
17.817367	0.050207	13.000000	nontarget	4.000000	na
17.867573	0.049811	13.000000	nontarget	5.000000	na
17.917384	0.050151	13.000000	nontarget	6.000000	na
17.967535	0.049595	13.000000	nontarget	7.000000	na
18.017130	0.050099	13.000000	nontarget	8.000000	na
18.067228	0.050306	13.000000	nontarget	9.000000	na
18.117534	0.049995	13.000000	nontarget	10.000000	na
18.167529	0.049502	13.000000	nontarget	11.000000	na
18.217031	0.050091	13.000000	nontarget	12.000000	18.223770
18.267121	0.050452	13.000000	nontarget	13.000000	na
18.317573	0.049572	13.000000	nontarget	14.000000	na
18.367145	0.050072	13.000000	nontarget	15.000000	na
18.417217	0.050336	13.000000	nontarget	16.000000	na
18.467553	0.050012	14.000000	nontarget	1.000000	na
18.517566	0.050016	14.000000	nontarget	2.000000	na
18.567581	0.049028	14.000000	nontarget	3.000000	na
18.616609	0.050325	14.000000	nontarget	4.000000	na
18.666934	0.050611	14.000000	nontarget	5.000000	na
18.717545	0.049492	14.000000	nontarget	6.000000	na
18.767037	0.050084	14.000000	nontarget	7.000000	na
18.817122	0.050462	14.000000	nontarget	8.000000	na
18.867583	0.049941	14.000000	nontarget	9.000000	na
18.917524	0.050089	14.000000	nontarget	10.000000	na
18.967613	0.049484	14.000000	nontarget	11.000000	na
19.017097	0.050395	14.000000	nontarget	12.000000	na
19.067492	0.049596	14.000000	nontarget	13.000000	19.074150
19.117088	0.050547	14.000000	nontarget	14.000000	na
19.167635	0.049793	14.000000	nontarget	15.000000	na
19.217429	0.049332	14.000000	nontarget	16.000000	na
19.266760	0.050087	15.000000	nontarget	1.000000	na
19.316847	0.050492	15.000000	nontarget	2.000000	na
19.367339	0.049776	15.000000	nontarget	3.000000	na
19.417115	0.050441	15.000000	nontarget	4.000000	na
19.467556	0.049363	15.000000	nontarget	5.000000	na
19.516918	0.050222	15.000000	nontarget	6.000000	na
19.567141	0.049475	15.000000	nontarget	7.000000	na
19.616616	0.050939	15.000000	nontarget	8.000000	na
19.667554	0.049975	15.000000	nontarget	9.000000	na
19.717529	0.049380	15.000000	nontarget	10.000000	na
19.766909	0.050206	15.000000	nontarget	11.000000	na
19.817116	0.050432	15.000000	nontarget	12.000000	na
19.867548	0.049803	15.000000	nontarget	13.000000	na
19.917350	0.050191	15.000000	nontarget	14.000000	na
19.967541	0.049269	15.000000	nontarget	15.000000	na
20.016811	0.050772	15.000000	nontarget	16.000000	20.023431
20.067583	0.049717	16.000000	nontarget	1.000000	20.074180
20.117300	0.050007	16.000000	nontarget	2.000000	na
20.167306	0.049726	16.000000	nontarget	3.000000	na
20.217032	0.049912	16.000000	nontarget	4.000000	na
20.266945	0.050669	16.000000	nontarget	5.000000	na
20.317613	0.049598	16.000000	nontarget	6.000000	na
20.367211	0.049607	16.000000	nontarget	7.000000	na
20.416818	0.050814	16.000000	nontarget	8.000000	na
20.467632	0.049393	16.000000	nontarget	9.000000	na
20.517026	0.050555	16.000000	nontarget	10.000000	na
20.567581	0.049013	16.000000	nontarget	11.000000	na
20.616594	0.050922	16.000000	nontarget	12.000000	na
20.667516	0.050112	16.000000	nontarget	13.000000	na
20.717627	0.049976	16.000000	nontarget	14.000000	na
20.767603	0.049089	16.000000	nontarget	15.000000	na
20.816692	0.051007	16.000000	nontarget	16.000000	na
20.867698	0.049763	17.000000	nontarget	1.000000	na
20.917462	0.049467	17.000000	nontarget	2.000000	20.936743
20.966929	0.050310	17.000000	nontarget	3.000000	na
21.017239	0.049646	17.000000	nontarget	4.000000	na
21.066886	0.050618	17.000000	nontarget	5.000000	na
21.117503	0.050070	17.000000	nontarget	6.000000	na
21.167574	0.050017	17.000000	nontarget	7.000000	na
21.217591	0.049234	17.000000	nontarget	8.000000	na
21.266825	0.050756	17.000000	nontarget	9.000000	na
21.317580	0.049912	17.000000	nontarget	10.000000	na
21.367492	0.050077	17.000000	nontarget	11.000000	na
21.417570	0.050031	17.000000	nontarget	12.000000	na
21.467600	0.049924	17.000000	nontarget	13.000000	na
21.517524	0.050050	17.000000	nontarget	14.000000	na
21.567574	0.049486	17.000000	nontarget	15.000000	na
21.617060	0.050507	17.000000	nontarget	16.000000	na
21.667567	0.049851	18.000000	nontarget	1.000000	na
21.717418	0.049394	18.000000	nontarget	2.000000	21.723210
21.766812	0.049713	18.000000	nontarget	3.000000	na
21.816525	0.050950	18.000000	nontarget	4.000000	na
21.867476	0.049948	18.000000	nontarget	5.000000	na
21.917424	0.050190	18.000000	nontarget	6.000000	na
21.967614	0.049538	18.000000	nontarget	7.000000	na
22.017152	0.049570	18.000000	nontarget	8.000000	na
22.066722	0.050860	18.000000	nontarget	9.000000	na
22.117581	0.049592	18.000000	nontarget	10.000000	na
22.167173	0.050070	18.000000	nontarget	11.000000	na
22.217244	0.050340	18.000000	nontarget	12.000000	na
22.267584	0.049994	18.000000	nontarget	13.000000	na
22.317578	0.049922	18.000000	nontarget	14.000000	na
22.367500	0.049994	18.000000	nontarget	15.000000	na
22.417494	0.050028	18.000000	nontarget	16.000000	na
22.467522	0.049748	19.000000	nontarget	1.000000	22.474253
22.517270	0.049343	19.000000	nontarget	2.000000	na
22.566613	0.050972	19.000000	nontarget	3.000000	na
22.617585	0.049967	19.000000	nontarget	4.000000	na
22.667552	0.049583	19.000000	nontarget	5.000000	na
22.717135	0.050439	19.000000	nontarget	6.000000	na
22.767574	0.050004	19.000000	nontarget	7.000000	na
22.817578	0.049537	19.000000	nontarget	8.000000	na
22.867115	0.050363	19.000000	nontarget	9.000000	na
22.917478	0.049873	19.000000	nontarget	10.000000	na
22.967351	0.049866	19.000000	nontarget	11.000000	na
23.017218	0.050337	19.000000	nontarget	12.000000	na
23.067554	0.049179	19.000000	nontarget	13.000000	na
23.116734	0.050837	19.000000	nontarget	14.000000	na
23.167571	0.049994	19.000000	nontarget	15.000000	23.190608
23.217565	0.049725	19.000000	nontarget	16.000000	na
23.267290	0.050278	20.000000	nontarget	1.000000	23.273903
23.317568	0.049595	20.000000	nontarget	2.000000	na
23.367163	0.050405	20.000000	nontarget	3.000000	na
23.417568	0.049996	20.000000	nontarget	4.000000	na
23.467564	0.049221	20.000000	nontarget	5.000000	na
23.516785	0.050309	20.000000	nontarget	6.000000	na
23.567095	0.050470	20.000000	nontarget	7.000000	na
23.617565	0.049989	20.000000	nontarget	8.000000	na
23.667554	0.049276	20.000000	nontarget	9.000000	na
23.716830	0.050683	20.000000	nontarget	10.000000	na
23.767513	0.049053	20.000000	nontarget	11.000000	na
23.816565	0.051000	20.000000	nontarget	12.000000	na
23.867565	0.049828	20.000000	nontarget	13.000000	na
23.917393	0.050128	20.000000	nontarget	14.000000	na
23.967521	0.049112	20.000000	nontarget	15.000000	na
24.016632	0.050931	20.000000	nontarget	16.000000	24.023245
24.067563	0.049212	21.000000	nontarget	1.000000	24.074150
24.116776	0.050825	21.000000	nontarget	2.000000	na
24.167600	0.049702	21.000000	nontarget	3.000000	na
24.217303	0.049902	21.000000	nontarget	4.000000	na
24.267205	0.049579	21.000000	nontarget	5.000000	na
24.316784	0.050773	21.000000	nontarget	6.000000	na
24.367557	0.049996	21.000000	nontarget	7.000000	na
24.417553	0.050000	21.000000	nontarget	8.000000	na
24.467553	0.050001	21.000000	nontarget	9.000000	na
24.517553	0.049245	21.000000	nontarget	10.000000	na
24.566798	0.050754	21.000000	nontarget	11.000000	na
24.617552	0.050001	21.000000	nontarget	12.000000	na
24.667554	0.049995	21.000000	nontarget	13.000000	na
24.717548	0.049999	21.000000	nontarget	14.000000	na
24.767547	0.049627	21.000000	nontarget	15.000000	na
24.817175	0.050380	21.000000	nontarget	16.000000	24.848399
24.867554	0.050044	22.000000	nontarget	1.000000	24.874137
24.917599	0.049277	22.000000	nontarget	2.000000	na
24.966876	0.050593	22.000000	nontarget	3.000000	na
25.017469	0.050083	22.000000	nontarget	4.000000	na
25.067552	0.049672	22.000000	nontarget	5.000000	na
25.117225	0.050322	22.000000	nontarget	6.000000	na
25.167547	0.049999	22.000000	nontarget	7.000000	na
25.217546	0.049460	22.000000	nontarget	8.000000	na
25.267006	0.050535	22.000000	nontarget	9.000000	na
25.317541	0.049505	22.000000	nontarget	10.000000	na
25.367046	0.050027	22.000000	nontarget	11.000000	na
25.417073	0.050468	22.000000	nontarget	12.000000	na
25.467541	0.049996	22.000000	nontarget	13.000000	na
25.517537	0.049953	22.000000	nontarget	14.000000	na
25.567490	0.050048	22.000000	nontarget	15.000000	na
25.617538	0.049997	22.000000	nontarget	16.000000	25.626293
25.667535	0.050001	23.000000	nontarget	1.000000	25.674186
25.717536	0.049249	23.000000	nontarget	2.000000	na
25.766785	0.050031	23.000000	nontarget	3.000000	na
25.816817	0.050717	23.000000	nontarget	4.000000	na
25.867533	0.049231	23.000000	nontarget	5.000000	na
25.916765	0.050288	23.000000	nontarget	6.000000	na
25.967053	0.050482	23.000000	nontarget	7.000000	na
26.017535	0.050004	23.000000	nontarget	8.000000	na
26.067539	0.050024	23.000000	nontarget	9.000000	na
26.117563	0.049517	23.000000	nontarget	10.000000	na
26.167080	0.050449	23.000000	nontarget	11.000000	na
26.217528	0.049347	23.000000	nontarget	12.000000	na
26.266876	0.050791	23.000000	nontarget	13.000000	na
26.317667	0.049858	23.000000	nontarget	14.000000	na
26.367525	0.049315	23.000000	nontarget	15.000000	na
26.416840	0.050682	23.000000	nontarget	16.000000	na
26.467522	0.050005	24.000000	nontarget	1.000000	na
26.517528	0.049240	24.000000	nontarget	2.000000	na
26.566768	0.050499	24.000000	nontarget	3.000000	26.573215
26.617267	0.050254	24.000000	nontarget	4.000000	na
26.667521	0.049682	24.000000	nontarget	5.000000	na
26.717202	0.049858	24.000000	nontarget	6.000000	na
26.767061	0.050772	24.000000	nontarget	7.000000	na
26.817833	0.049691	24.000000	nontarget	8.000000	na
26.867524	0.049995	24.000000	nontarget	9.000000	na
26.917519	0.050009	24.000000	nontarget	10.000000	na
26.967528	0.049643	24.000000	nontarget	11.000000	na
27.017171	0.050348	24.000000	nontarget	12.000000	na
27.067519	0.049430	24.000000	nontarget	13.000000	na
27.116949	0.050508	24.000000	nontarget	14.000000	na
27.167457	0.050400	24.000000	nontarget	15.000000	na
27.217857	0.049643	24.000000	nontarget	16.000000	na
27.267500	0.049924	25.000000	nontarget	1.000000	na
27.317425	0.050083	25.000000	nontarget	2.000000	na
27.367508	0.050100	25.000000	nontarget	3.000000	na
27.417608	0.049457	25.000000	nontarget	4.000000	na
27.467065	0.049968	25.000000	nontarget	5.000000	na
27.517033	0.050478	25.000000	nontarget	6.000000	na
27.567511	0.049980	25.000000	nontarget	7.000000	27.578922
27.617491	0.050015	25.000000	nontarget	8.000000	na
27.667506	0.049289	25.000000	nontarget	9.000000	na
27.716795	0.050895	25.000000	nontarget	10.000000	na
27.767691	0.050168	25.000000	nontarget	11.000000	na
27.817858	0.049646	25.000000	nontarget	12.000000	na
27.867504	0.050001	25.000000	nontarget	13.000000	na
27.917506	0.049998	25.000000	nontarget	14.000000	na
27.967503	0.050361	25.000000	nontarget	15.000000	na
28.017865	0.049651	25.000000	nontarget	16.000000	na
28.067515	0.050183	26.000000	nontarget	1.000000	na
28.117698	0.050114	26.000000	nontarget	2.000000	28.133435
28.167812	0.050109	26.000000	nontarget	3.000000	na
28.217921	0.049839	26.000000	nontarget	4.000000	na
28.267760	0.049265	26.000000	nontarget	5.000000	na
28.317025	0.050827	26.000000	nontarget	6.000000	na
28.367852	0.049610	26.000000	nontarget	7.000000	na
28.417462	0.050165	26.000000	nontarget	8.000000	na
28.467627	0.049867	26.000000	nontarget	9.000000	na
28.517494	0.050329	26.000000	nontarget	10.000000	na
28.567823	0.049673	26.000000	nontarget	11.000000	na
28.617496	0.049999	26.000000	nontarget	12.000000	na
28.667495	0.049398	26.000000	nontarget	13.000000	na
28.716893	0.050221	26.000000	nontarget	14.000000	na
28.767114	0.049831	26.000000	nontarget	15.000000	na
28.816945	0.050545	26.000000	nontarget	16.000000	na
28.867490	0.049397	27.000000	nontarget	1.000000	na
28.916886	0.050112	27.000000	nontarget	2.000000	28.936488
28.966998	0.050181	27.000000	nontarget	3.000000	na
29.017179	0.050017	27.000000	nontarget	4.000000	na
29.067197	0.049704	27.000000	nontarget	5.000000	na
29.116900	0.050249	27.000000	nontarget	6.000000	na
29.167149	0.050763	27.000000	nontarget	7.000000	na
29.217911	0.049577	27.000000	nontarget	8.000000	na
29.267489	0.050148	27.000000	nontarget	9.000000	na
29.317637	0.049797	27.000000	nontarget	10.000000	na
29.367434	0.050056	27.000000	nontarget	11.000000	na
29.417490	0.050328	27.000000	nontarget	12.000000	na
29.467818	0.049658	27.000000	nontarget	13.000000	na
29.517476	0.050010	27.000000	nontarget	14.000000	na
29.567486	0.050101	27.000000	nontarget	15.000000	na
29.617586	0.049530	27.000000	nontarget	16.000000	na
29.667116	0.050485	28.000000	nontarget	1.000000	29.673734
29.717601	0.049413	28.000000	nontarget	2.000000	na
29.767015	0.050786	28.000000	nontarget	3.000000	na
29.817801	0.049280	28.000000	nontarget	4.000000	na
29.867080	0.050107	28.000000	nontarget	5.000000	na
29.917188	0.050272	28.000000	nontarget	6.000000	na
29.967459	0.050020	28.000000	nontarget	7.000000	na
30.017480	0.050025	28.000000	nontarget	8.000000	na
30.067505	0.049968	28.000000	nontarget	9.000000	na
30.117473	0.050436	28.000000	nontarget	10.000000	na
30.167910	0.049108	28.000000	nontarget	11.000000	na
30.217017	0.050452	28.000000	nontarget	12.000000	na
30.267469	0.050362	28.000000	nontarget	13.000000	na
30.317832	0.049649	28.000000	nontarget	14.000000	na
30.367481	0.049994	28.000000	nontarget	15.000000	na
30.417475	0.050028	28.000000	nontarget	16.000000	na
30.467502	0.049941	29.000000	target	1.000000	na
30.517443	0.049967	29.000000	target	2.000000	na
30.567411	0.050164	29.000000	target	3.000000	na
30.617575	0.049248	29.000000	target	4.000000	na
30.666823	0.050651	29.000000	target	5.000000	na
30.717474	0.049507	29.000000	target	6.000000	na
30.766981	0.050492	29.000000	target	7.000000	na
30.817473	0.049973	29.000000	target	8.000000	na
30.867446	0.050189	29.000000	target	9.000000	na
30.917635	0.049838	29.000000	target	10.000000	na
30.967473	0.049647	29.000000	target	11.000000	na
31.017120	0.050127	29.000000	target	12.000000	na
31.067247	0.049916	29.000000	target	13.000000	na
31.117163	0.050302	29.000000	target	14.000000	na
31.167466	0.050467	29.000000	target	15.000000	31.187128
31.217933	0.049534	29.000000	target	16.000000	na
31.267467	0.049918	30.000000	nontarget	1.000000	31.274096
31.317385	0.050081	30.000000	nontarget	2.000000	na
31.367466	0.050423	30.000000	nontarget	3.000000	na
31.417889	0.049838	30.000000	nontarget	4.000000	na
31.467727	0.049735	30.000000	nontarget	5.000000	na
31.517462	0.050004	30.000000	nontarget	6.000000	na
31.567465	0.050109	30.000000	nontarget	7.000000	na
31.617575	0.050245	30.000000	nontarget	8.000000	na
31.667820	0.049647	30.000000	nontarget	9.000000	na
31.717467	0.049949	30.000000	nontarget	10.000000	na
31.767416	0.050041	30.000000	nontarget	11.000000	na
31.817457	0.049337	30.000000	nontarget	12.000000	na
31.866794	0.050663	30.000000	nontarget	13.000000	na
31.917457	0.049995	30.000000	nontarget	14.000000	na
31.967452	0.049626	30.000000	nontarget	15.000000	na
32.017079	0.050351	30.000000	nontarget	16.000000	na
32.067430	0.050239	31.000000	nontarget	1.000000	32.078740
32.117669	0.049741	31.000000	nontarget	2.000000	na
32.167410	0.049184	31.000000	nontarget	3.000000	na
32.216594	0.050860	31.000000	nontarget	4.000000	na
32.267453	0.050088	31.000000	nontarget	5.000000	na
32.317541	0.049894	31.000000	nontarget	6.000000	na
32.367435	0.049101	31.000000	nontarget	7.000000	na
32.416536	0.050843	31.000000	nontarget	8.000000	na
32.467379	0.050115	31.000000	nontarget	9.000000	na
32.517494	0.049019	31.000000	nontarget	10.000000	na
32.566513	0.050634	31.000000	nontarget	11.000000	na
32.617147	0.049768	31.000000	nontarget	12.000000	na
32.666915	0.050531	31.000000	nontarget	13.000000	na
32.717446	0.050099	31.000000	nontarget	14.000000	na
32.767545	0.049873	31.000000	nontarget	15.000000	na
32.817419	0.049667	31.000000	nontarget	16.000000	na
32.867085	0.050052	32.000000	nontarget	1.000000	na
32.917137	0.050296	32.000000	nontarget	2.000000	32.936320
32.967433	0.049753	32.000000	nontarget	3.000000	na
33.017186	0.050070	32.000000	nontarget	4.000000	na
33.067256	0.050202	32.000000	nontarget	5.000000	na
33.117459	0.049972	32.000000	nontarget	6.000000	na
33.167431	0.050008	32.000000	nontarget	7.000000	na
33.217439	0.049400	32.000000	nontarget	8.000000	na
33.266838	0.050589	32.000000	nontarget	9.000000	na
33.317427	0.050307	32.000000	nontarget	10.000000	na
33.367734	0.048882	32.000000	nontarget	11.000000	na
33.416616	0.050313	32.000000	nontarget	12.000000	na
33.466929	0.050415	32.000000	nontarget	13.000000	na
33.517344	0.050022	32.000000	nontarget	14.000000	na
33.567366	0.050061	32.000000	nontarget	15.000000	na
33.617428	0.050008	32.000000	nontarget	16.000000	na
33.667435	0.050065	33.000000	nontarget	1.000000	na
33.717500	0.049950	33.000000	nontarget	2.000000	na
33.767451	0.050068	33.000000	nontarget	3.000000	na
33.817519	0.050022	33.000000	nontarget	4.000000	na
33.867541	0.049788	33.000000	nontarget	5.000000	na
33.917330	0.050036	33.000000	nontarget	6.000000	33.948332
33.967366	0.049935	33.000000	nontarget	7.000000	na
34.017301	0.050127	33.000000	nontarget	8.000000	na
34.067427	0.050027	33.000000	nontarget	9.000000	na
34.117455	0.049991	33.000000	nontarget	10.000000	na
34.167445	0.049383	33.000000	nontarget	11.000000	na
34.216829	0.050832	33.000000	nontarget	12.000000	na
34.267661	0.049672	33.000000	nontarget	13.000000	na
34.317333	0.049724	33.000000	nontarget	14.000000	na
34.367057	0.049556	33.000000	nontarget	15.000000	na
34.416612	0.050816	33.000000	nontarget	16.000000	na
34.467429	0.050209	34.000000	nontarget	1.000000	na
34.517637	0.049811	34.000000	nontarget	2.000000	na
34.567449	0.049070	34.000000	nontarget	3.000000	na
34.616518	0.050778	34.000000	nontarget	4.000000	na
34.667297	0.050165	34.000000	nontarget	5.000000	na
34.717461	0.049969	34.000000	nontarget	6.000000	na
34.767431	0.049445	34.000000	nontarget	7.000000	na
34.816876	0.050627	34.000000	nontarget	8.000000	na
34.867503	0.050247	34.000000	nontarget	9.000000	na
34.917750	0.049298	34.000000	nontarget	10.000000	34.953129
34.967047	0.050136	34.000000	nontarget	11.000000	na
35.017183	0.050244	34.000000	nontarget	12.000000	na
35.067426	0.049255	34.000000	nontarget	13.000000	na
35.116681	0.050223	34.000000	nontarget	14.000000	na
35.166904	0.050746	34.000000	nontarget	15.000000	na
35.217650	0.050022	34.000000	nontarget	16.000000	na
35.267672	0.049913	35.000000	nontarget	1.000000	na
35.317585	0.049827	35.000000	nontarget	2.000000	na
35.367412	0.050029	35.000000	nontarget	3.000000	na
35.417441	0.049997	35.000000	nontarget	4.000000	na
35.467438	0.050000	35.000000	nontarget	5.000000	na
35.517438	0.049965	35.000000	nontarget	6.000000	na
35.567403	0.050082	35.000000	nontarget	7.000000	na
35.617486	0.050009	35.000000	nontarget	8.000000	na
35.667495	0.050151	35.000000	nontarget	9.000000	na
35.717645	0.049786	35.000000	nontarget	10.000000	na
35.767431	0.050000	35.000000	nontarget	11.000000	na
35.817431	0.049962	35.000000	nontarget	12.000000	na
35.867393	0.050104	35.000000	nontarget	13.000000	na
35.917498	0.049812	35.000000	nontarget	14.000000	na
35.967310	0.050123	35.000000	nontarget	15.000000	35.978551
36.017433	0.050056	35.000000	nontarget	16.000000	na
36.067489	0.049901	36.000000	nontarget	1.000000	36.074092
36.117390	0.050203	36.000000	nontarget	2.000000	na
36.167593	0.049982	36.000000	nontarget	3.000000	na
36.217575	0.049605	36.000000	nontarget	4.000000	na
36.267180	0.050245	36.000000	nontarget	5.000000	na
36.317425	0.049961	36.000000	nontarget	6.000000	na
36.367386	0.050131	36.000000	nontarget	7.000000	na
36.417517	0.049839	36.000000	nontarget	8.000000	na
36.467356	0.049259	36.000000	nontarget	9.000000	na
36.516615	0.050869	36.000000	nontarget	10.000000	na
36.567484	0.049141	36.000000	nontarget	11.000000	na
36.616625	0.050855	36.000000	nontarget	12.000000	na
36.667480	0.049950	36.000000	nontarget	13.000000	na
36.717430	0.050043	36.000000	nontarget	14.000000	na
36.767473	0.050023	36.000000	nontarget	15.000000	na
36.817496	0.050012	36.000000	nontarget	16.000000	na
36.867508	0.049371	37.000000	nontarget	1.000000	na
36.916880	0.050725	37.000000	nontarget	2.000000	36.943954
36.967605	0.049888	37.000000	nontarget	3.000000	na
37.017493	0.050023	37.000000	nontarget	4.000000	na
37.067516	0.049877	37.000000	nontarget	5.000000	na
37.117393	0.050306	37.000000	nontarget	6.000000	na
37.167699	0.049808	37.000000	nontarget	7.000000	na
37.217507	0.049301	37.000000	nontarget	8.000000	na
37.266809	0.050062	37.000000	nontarget	9.000000	na
37.316871	0.050279	37.000000	nontarget	10.000000	na
37.367150	0.050365	37.000000	nontarget	11.000000	na
37.417515	0.049966	37.000000	nontarget	12.000000	na
37.467482	0.050197	37.000000	nontarget	13.000000	na
37.517679	0.049718	37.000000	nontarget	14.000000	na
37.567397	0.050070	37.000000	nontarget	15.000000	na
37.617468	0.049903	37.000000	nontarget	16.000000	37.623976
37.667371	0.049975	38.000000	nontarget	1.000000	37.673993
37.717346	0.049900	38.000000	nontarget	2.000000	na
37.767247	0.049363	38.000000	nontarget	3.000000	na
37.816610	0.050168	38.000000	nontarget	4.000000	na
37.866778	0.050870	38.000000	nontarget	5.000000	na
37.917647	0.049817	38.000000	nontarget	6.000000	na
37.967464	0.049814	38.000000	nontarget	7.000000	na
38.017278	0.050188	38.000000	nontarget	8.000000	na
38.067466	0.050019	38.000000	nontarget	9.000000	na
38.117485	0.049878	38.000000	nontarget	10.000000	na
38.167364	0.050091	38.000000	nontarget	11.000000	na
38.217455	0.050010	38.000000	nontarget	12.000000	na
38.267465	0.049577	38.000000	nontarget	13.000000	na
38.317042	0.050044	38.000000	nontarget	14.000000	na
38.367086	0.050196	38.000000	nontarget	15.000000	38.394421
38.417282	0.050282	38.000000	nontarget	16.000000	na
38.467564	0.049337	39.000000	nontarget	1.000000	38.474214
38.516901	0.050556	39.000000	nontarget	2.000000	na
38.567457	0.048974	39.000000	nontarget	3.000000	na
38.616431	0.051193	39.000000	nontarget	4.000000	na
38.667624	0.049813	39.000000	nontarget	5.000000	na
38.717437	0.050257	39.000000	nontarget	6.000000	na
38.767694	0.048970	39.000000	nontarget	7.000000	na
38.816665	0.050899	39.000000	nontarget	8.000000	na
38.867564	0.049883	39.000000	nontarget	9.000000	na
38.917447	0.049334	39.000000	nontarget	10.000000	na
38.966781	0.050435	39.000000	nontarget	11.000000	na
39.017216	0.050050	39.000000	nontarget	12.000000	na
39.067266	0.050439	39.000000	nontarget	13.000000	na
39.117705	0.049742	39.000000	nontarget	14.000000	na
39.167447	0.049887	39.000000	nontarget	15.000000	na
39.217334	0.049677	39.000000	nontarget	16.000000	na
39.267012	0.050425	40.000000	nontarget	1.000000	na
39.317436	0.050003	40.000000	nontarget	2.000000	39.328677
39.367439	0.049997	40.000000	nontarget	3.000000	na
39.417436	0.050137	40.000000	nontarget	4.000000	na
39.467573	0.049216	40.000000	nontarget	5.000000	na
39.516789	0.050527	40.000000	nontarget	6.000000	na
39.567316	0.050214	40.000000	nontarget	7.000000	na
39.617530	0.049795	40.000000	nontarget	8.000000	na
39.667324	0.050110	40.000000	nontarget	9.000000	na
39.717435	0.050071	40.000000	nontarget	10.000000	na
39.767506	0.049021	40.000000	nontarget	11.000000	na
39.816526	0.050908	40.000000	nontarget	12.000000	na
39.867434	0.049339	40.000000	nontarget	13.000000	na
39.916773	0.050743	40.000000	nontarget	14.000000	na
39.967516	0.049702	40.000000	nontarget	15.000000	na
40.017218	0.050422	40.000000	nontarget	16.000000	na
40.067640	0.049651	41.000000	nontarget	1.000000	40.102248
40.117291	0.050379	41.000000	nontarget	2.000000	na
40.167669	0.049828	41.000000	nontarget	3.000000	na
40.217498	0.050042	41.000000	nontarget	4.000000	na
40.267540	0.049958	41.000000	nontarget	5.000000	na
40.317498	0.050046	41.000000	nontarget	6.000000	na
40.367544	0.049232	41.000000	nontarget	7.000000	na
40.416776	0.050760	41.000000	nontarget	8.000000	na
40.467536	0.050090	41.000000	nontarget	9.000000	na
40.517626	0.049783	41.000000	nontarget	10.000000	na
40.567409	0.049107	41.000000	nontarget	11.000000	na
40.616516	0.051145	41.000000	nontarget	12.000000	na
40.667661	0.049146	41.000000	nontarget	13.000000	na
40.716806	0.050581	41.000000	nontarget	14.000000	na
40.767387	0.050051	41.000000	nontarget	15.000000	na
40.817438	0.050004	41.000000	nontarget	16.000000	na
40.867442	0.050183	42.000000	nontarget	1.000000	na
40.917625	0.049209	42.000000	nontarget	2.000000	40.949194
40.966835	0.050449	42.000000	nontarget	3.000000	na
41.017284	0.050400	42.000000	nontarget	4.000000	na
41.067684	0.049678	42.000000	nontarget	5.000000	na
41.117362	0.049681	42.000000	nontarget	6.000000	na
41.167043	0.050466	42.000000	nontarget	7.000000	na
41.217509	0.049146	42.000000	nontarget	8.000000	na
41.266656	0.050999	42.000000	nontarget	9.000000	na
41.317655	0.049852	42.000000	nontarget	10.000000	na
41.367507	0.049790	42.000000	nontarget	11.000000	na
41.417298	0.050152	42.000000	nontarget	12.000000	na
41.467449	0.050102	42.000000	nontarget	13.000000	na
41.517552	0.049952	42.000000	nontarget	14.000000	na
41.567503	0.049285	42.000000	nontarget	15.000000	na
41.616788	0.050707	42.000000	nontarget	16.000000	na
41.667496	0.049946	43.000000	nontarget	1.000000	na
41.717441	0.049621	43.000000	nontarget	2.000000	na
41.767062	0.049454	43.000000	nontarget	3.000000	na
41.816516	0.050494	43.000000	nontarget	4.000000	41.838312
41.867010	0.050358	43.000000	nontarget	5.000000	na
41.917369	0.050142	43.000000	nontarget	6.000000	na
41.967510	0.049713	43.000000	nontarget	7.000000	na
42.017223	0.050260	43.000000	nontarget	8.000000	na
42.067483	0.049962	43.000000	nontarget	9.000000	na
42.117445	0.050051	43.000000	nontarget	10.000000	na
42.167495	0.050006	43.000000	nontarget	11.000000	na
42.217501	0.050285	43.000000	nontarget	12.000000	na
42.267787	0.049704	43.000000	nontarget	13.000000	na
42.317491	0.049996	43.000000	nontarget	14.000000	na
42.367486	0.049752	43.000000	nontarget	15.000000	na
42.417238	0.050254	43.000000	nontarget	16.000000	na
42.467492	0.049936	44.000000	nontarget	1.000000	na
42.517428	0.049470	44.000000	nontarget	2.000000	na
42.566898	0.050603	44.000000	nontarget	3.000000	na
42.617501	0.049582	44.000000	nontarget	4.000000	na
42.667083	0.050320	44.000000	nontarget	5.000000	na
42.717403	0.049492	44.000000	nontarget	6.000000	na
42.766896	0.050375	44.000000	nontarget	7.000000	na
42.817271	0.050486	44.000000	nontarget	8.000000	42.823897
42.867757	0.049774	44.000000	nontarget	9.000000	na
42.917531	0.049848	44.000000	nontarget	10.000000	na
42.967379	0.049886	44.000000	nontarget	11.000000	na
43.017265	0.050001	44.000000	nontarget	12.000000	na
43.067266	0.050437	44.000000	nontarget	13.000000	na
43.117703	0.049752	44.000000	nontarget	14.000000	na
43.167455	0.049915	44.000000	nontarget	15.000000	na
43.217371	0.050155	44.000000	nontarget	16.000000	na
43.267525	0.049949	45.000000	nontarget	1.000000	na
43.317475	0.049729	45.000000	nontarget	2.000000	na
43.367204	0.050259	45.000000	nontarget	3.000000	na
43.417462	0.049960	45.000000	nontarget	4.000000	na
43.467422	0.050345	45.000000	nontarget	5.000000	na
43.517768	0.049238	45.000000	nontarget	6.000000	na
43.567006	0.050514	45.000000	nontarget	7.000000	na
43.617520	0.049982	45.000000	nontarget	8.000000	43.624210
43.667502	0.049874	45.000000	nontarget	9.000000	na
43.717376	0.050095	45.000000	nontarget	10.000000	na
43.767472	0.050042	45.000000	nontarget	11.000000	na
43.817514	0.049371	45.000000	nontarget	12.000000	na
43.866885	0.050620	45.000000	nontarget	13.000000	na
43.917505	0.049974	45.000000	nontarget	14.000000	na
43.967480	0.050438	45.000000	nontarget	15.000000	na
44.017917	0.049579	45.000000	nontarget	16.000000	na
44.067497	0.050100	46.000000	nontarget	1.000000	na
44.117597	0.049799	46.000000	nontarget	2.000000	na
44.167396	0.050069	46.000000	nontarget	3.000000	na
44.217465	0.050059	46.000000	nontarget	4.000000	na
44.267524	0.049450	46.000000	nontarget	5.000000	na
44.316974	0.050352	46.000000	nontarget	6.000000	na
44.367326	0.050185	46.000000	nontarget	7.000000	na
44.417511	0.049756	46.000000	nontarget	8.000000	na
44.467267	0.049950	46.000000	nontarget	9.000000	na
44.517217	0.049985	46.000000	nontarget	10.000000	44.523186
44.567202	0.050308	46.000000	nontarget	11.000000	na
44.617509	0.049684	46.000000	nontarget	12.000000	na
44.667194	0.049982	46.000000	nontarget	13.000000	na
44.717175	0.050026	46.000000	nontarget	14.000000	na
44.767202	0.049777	46.000000	nontarget	15.000000	na
44.816979	0.050457	46.000000	nontarget	16.000000	na
44.867436	0.050061	47.000000	nontarget	1.000000	na
44.917497	0.049970	47.000000	nontarget	2.000000	na
44.967467	0.049772	47.000000	nontarget	3.000000	na
45.017240	0.050266	47.000000	nontarget	4.000000	na
45.067506	0.050190	47.000000	nontarget	5.000000	na
45.117696	0.049650	47.000000	nontarget	6.000000	na
45.167346	0.050162	47.000000	nontarget	7.000000	na
45.217508	0.050204	47.000000	nontarget	8.000000	na
45.267712	0.049159	47.000000	nontarget	9.000000	na
45.316870	0.050251	47.000000	nontarget	10.000000	na
45.367122	0.050114	47.000000	nontarget	11.000000	45.373828
45.417236	0.049905	47.000000	nontarget	12.000000	na
45.467141	0.050087	47.000000	nontarget	13.000000	na
45.517228	0.050030	47.000000	nontarget	14.000000	na
45.567259	0.050107	47.000000	nontarget	15.000000	na
45.617365	0.049988	47.000000	nontarget	16.000000	na
45.667353	0.050144	48.000000	target	1.000000	na
45.717498	0.049994	48.000000	target	2.000000	na
45.767492	0.050025	48.000000	target	3.000000	na
45.817517	0.049970	48.000000	target	4.000000	na
45.867487	0.049942	48.000000	target	5.000000	na
45.917428	0.050208	48.000000	target	6.000000	na
45.967637	0.050064	48.000000	target	7.000000	na
46.017700	0.049743	48.000000	target	8.000000	na
46.067443	0.050115	48.000000	target	9.000000	na
46.117558	0.049973	48.000000	target	10.000000	na
46.167532	0.050372	48.000000	target	11.000000	na
46.217904	0.049099	48.000000	target	12.000000	na
46.267004	0.050553	48.000000	target	13.000000	46.282433
46.317557	0.049435	48.000000	target	14.000000	na
46.366992	0.049936	48.000000	target	15.000000	na
46.416928	0.050560	48.000000	target	16.000000	na
46.467487	0.049996	49.000000	nontarget	1.000000	na
46.517483	0.049714	49.000000	nontarget	2.000000	na
46.567197	0.050319	49.000000	nontarget	3.000000	na
46.617516	0.049701	49.000000	nontarget	4.000000	na
46.667218	0.050265	49.000000	nontarget	5.000000	na
46.717483	0.049969	49.000000	nontarget	6.000000	na
46.767452	0.050256	49.000000	nontarget	7.000000	na
46.817708	0.049706	49.000000	nontarget	8.000000	na
46.867414	0.050060	49.000000	nontarget	9.000000	na
46.917474	0.049949	49.000000	nontarget	10.000000	na
46.967423	0.050067	49.000000	nontarget	11.000000	na
47.017490	0.049440	49.000000	nontarget	12.000000	na
47.066930	0.050262	49.000000	nontarget	13.000000	na
47.117191	0.050490	49.000000	nontarget	14.000000	na
47.167681	0.049528	49.000000	nontarget	15.000000	na
47.217209	0.050116	49.000000	nontarget	16.000000	47.223823
47.267325	0.049661	50.000000	nontarget	1.000000	47.273903
47.316986	0.050268	50.000000	nontarget	2.000000	na
47.367254	0.050230	50.000000	nontarget	3.000000	na
47.417484	0.050235	50.000000	nontarget	4.000000	na
47.467719	0.049779	50.000000	nontarget	5.000000	na
47.517498	0.049690	50.000000	nontarget	6.000000	na
47.567188	0.049807	50.000000	nontarget	7.000000	na
47.616995	0.050254	50.000000	nontarget	8.000000	na
47.667250	0.049867	50.000000	nontarget	9.000000	na
47.717116	0.049712	50.000000	nontarget	10.000000	na
47.766829	0.050373	50.000000	nontarget	11.000000	na
47.817201	0.050006	50.000000	nontarget	12.000000	na
47.867207	0.050267	50.000000	nontarget	13.000000	47.898090
47.917474	0.050123	50.000000	nontarget	14.000000	na
47.967598	0.049367	50.000000	nontarget	15.000000	na
48.016965	0.049707	50.000000	nontarget	16.000000	na
48.066672	0.050305	51.000000	nontarget	1.000000	na
48.116977	0.050532	51.000000	nontarget	2.000000	na
48.167509	0.048967	51.000000	nontarget	3.000000	na
48.216476	0.051165	51.000000	nontarget	4.000000	na
48.267641	0.049861	51.000000	nontarget	5.000000	na
48.317502	0.049971	51.000000	nontarget	6.000000	na
48.367473	0.049400	51.000000	nontarget	7.000000	na
48.416873	0.050307	51.000000	nontarget	8.000000	na
48.467180	0.050387	51.000000	nontarget	9.000000	na
48.517567	0.049210	51.000000	nontarget	10.000000	na
48.566778	0.050175	51.000000	nontarget	11.000000	na
48.616953	0.050233	51.000000	nontarget	12.000000	na
48.667186	0.050270	51.000000	nontarget	13.000000	na
48.717456	0.050035	51.000000	nontarget	14.000000	na
48.767491	0.050004	51.000000	nontarget	15.000000	na
48.817495	0.050003	51.000000	nontarget	16.000000	na
48.867498	0.049985	52.000000	nontarget	1.000000	na
48.917483	0.049982	52.000000	nontarget	2.000000	na
48.967464	0.049721	52.000000	nontarget	3.000000	48.991721
49.017185	0.050391	52.000000	nontarget	4.000000	na
49.067576	0.050130	52.000000	nontarget	5.000000	na
49.117706	0.049593	52.000000	nontarget	6.000000	na
49.167299	0.049316	52.000000	nontarget	7.000000	na
49.216615	0.050688	52.000000	nontarget	8.000000	na
49.267304	0.049815	52.000000	nontarget	9.000000	na
49.317118	0.050377	52.000000	nontarget	10.000000	na
49.367496	0.049971	52.000000	nontarget	11.000000	na
49.417467	0.049932	52.000000	nontarget	12.000000	na
49.467399	0.050267	52.000000	nontarget	13.000000	na
49.517665	0.049823	52.000000	nontarget	14.000000	na
49.567488	0.049280	52.000000	nontarget	15.000000	na
49.616768	0.050900	52.000000	nontarget	16.000000	na
49.667668	0.049823	53.000000	nontarget	1.000000	na
49.717491	0.049991	53.000000	nontarget	2.000000	na
49.767482	0.050239	53.000000	nontarget	3.000000	na
49.817722	0.049834	53.000000	nontarget	4.000000	na
49.867556	0.049939	53.000000	nontarget	5.000000	na
49.917494	0.049994	53.000000	nontarget	6.000000	na
49.967489	0.049748	53.000000	nontarget	7.000000	na
50.017237	0.050265	53.000000	nontarget	8.000000	50.024149
50.067502	0.049992	53.000000	nontarget	9.000000	na
50.117494	0.049500	53.000000	nontarget	10.000000	na
50.166993	0.050492	53.000000	nontarget	11.000000	na
50.217486	0.049993	53.000000	nontarget	12.000000	na
50.267479	0.050004	53.000000	nontarget	13.000000	na
50.317483	0.050000	53.000000	nontarget	14.000000	na
50.367482	0.049998	53.000000	nontarget	15.000000	na
50.417481	0.049997	53.000000	nontarget	16.000000	na
50.467478	0.049941	54.000000	nontarget	1.000000	na
50.517418	0.049734	54.000000	nontarget	2.000000	na
50.567153	0.050534	54.000000	nontarget	3.000000	na
50.617687	0.049838	54.000000	nontarget	4.000000	na
50.667525	0.049580	54.000000	nontarget	5.000000	na
50.717105	0.050054	54.000000	nontarget	6.000000	na
50.767159	0.050202	54.000000	nontarget	7.000000	na
50.817362	0.050041	54.000000	nontarget	8.000000	na
50.867402	0.050077	54.000000	nontarget	9.000000	50.891366
50.917479	0.049226	54.000000	nontarget	10.000000	na
50.966706	0.050466	54.000000	nontarget	11.000000	na
51.017171	0.050020	54.000000	nontarget	12.000000	na
51.067191	0.050315	54.000000	nontarget	13.000000	na
51.117506	0.049633	54.000000	nontarget	14.000000	na
51.167139	0.050526	54.000000	nontarget	15.000000	na
51.217665	0.049835	54.000000	nontarget	16.000000	na
51.267500	0.049273	55.000000	nontarget	1.000000	na
51.316772	0.050695	55.000000	nontarget	2.000000	na
51.367468	0.050022	55.000000	nontarget	3.000000	na
51.417489	0.049978	55.000000	nontarget	4.000000	na
51.467468	0.049426	55.000000	nontarget	5.000000	na
51.516894	0.050042	55.000000	nontarget	6.000000	na
51.566936	0.050569	55.000000	nontarget	7.000000	na
51.617505	0.050073	55.000000	nontarget	8.000000	na
51.667578	0.049888	55.000000	nontarget	9.000000	na
51.717466	0.050045	55.000000	nontarget	10.000000	na
51.767510	0.049540	55.000000	nontarget	11.000000	na
51.817050	0.050092	55.000000	nontarget	12.000000	51.823673
51.867142	0.050269	55.000000	nontarget	13.000000	na
51.917411	0.049549	55.000000	nontarget	14.000000	na
51.966960	0.050185	55.000000	nontarget	15.000000	na
52.017145	0.049997	55.000000	nontarget	16.000000	na
52.067142	0.050364	56.000000	nontarget	1.000000	na
52.117506	0.049738	56.000000	nontarget	2.000000	na
52.167243	0.050270	56.000000	nontarget	3.000000	na
52.217514	0.049352	56.000000	nontarget	4.000000	na
52.266866	0.050775	56.000000	nontarget	5.000000	na
52.317640	0.049866	56.000000	nontarget	6.000000	na
52.367506	0.049131	56.000000	nontarget	7.000000	na
52.416637	0.050887	56.000000	nontarget	8.000000	na
52.467524	0.050005	56.000000	nontarget	9.000000	na
52.517529	0.050021	56.000000	nontarget	10.000000	na
52.567550	0.049963	56.000000	nontarget	11.000000	na
52.617512	0.049874	56.000000	nontarget	12.000000	na
52.667386	0.050113	56.000000	nontarget	13.000000	na
52.717499	0.049407	56.000000	nontarget	14.000000	na
52.766906	0.050716	56.000000	nontarget	15.000000	na
52.817623	0.049889	56.000000	nontarget	16.000000	na
52.867512	0.049931	57.000000	nontarget	1.000000	na
52.917443	0.049800	57.000000	nontarget	2.000000	52.933071
52.967243	0.049935	57.000000	nontarget	3.000000	na
53.017178	0.050335	57.000000	nontarget	4.000000	na
53.067513	0.049614	57.000000	nontarget	5.000000	na
53.117127	0.050375	57.000000	nontarget	6.000000	na
53.167502	0.050008	57.000000	nontarget	7.000000	na
53.217509	0.050067	57.000000	nontarget	8.000000	na
53.267576	0.049911	57.000000	nontarget	9.000000	na
53.317487	0.050001	57.000000	nontarget	10.000000	na
53.367488	0.049952	57.000000	nontarget	11.000000	na
53.417440	0.050141	57.000000	nontarget	12.000000	na
53.467581	0.049739	57.000000	nontarget	13.000000	na
53.517320	0.049564	57.000000	nontarget	14.000000	na
53.566884	0.050608	57.000000	nontarget	15.000000	na
53.617491	0.050259	57.000000	nontarget	16.000000	na
53.667750	0.049643	58.000000	target	1.000000	na
53.717393	0.049823	58.000000	target	2.000000	na
53.767216	0.050183	58.000000	target	3.000000	na
53.817398	0.050103	58.000000	target	4.000000	na
53.867501	0.049334	58.000000	target	5.000000	na
53.916836	0.050916	58.000000	target	6.000000	na
53.967752	0.049368	58.000000	target	7.000000	na
54.017120	0.050114	58.000000	target	8.000000	na
54.067234	0.050354	58.000000	target	9.000000	na
54.117588	0.050114	58.000000	target	10.000000	na
54.167703	0.049792	58.000000	target	11.000000	na
54.217495	0.049801	58.000000	target	12.000000	na
54.267296	0.050205	58.000000	target	13.000000	na
54.317501	0.049620	58.000000	target	14.000000	na
54.367121	0.050569	58.000000	target	15.000000	54.373777
54.417689	0.049161	58.000000	target	16.000000	na
54.466850	0.050357	59.000000	nontarget	1.000000	54.473523
54.517208	0.050294	59.000000	nontarget	2.000000	na
54.567501	0.049978	59.000000	nontarget	3.000000	na
54.617480	0.049996	59.000000	nontarget	4.000000	na
54.667476	0.049963	59.000000	nontarget	5.000000	na
54.717438	0.049586	59.000000	nontarget	6.000000	na
54.767025	0.050289	59.000000	nontarget	7.000000	na
54.817314	0.050184	59.000000	nontarget	8.000000	na
54.867498	0.049958	59.000000	nontarget	9.000000	na
54.917456	0.049965	59.000000	nontarget	10.000000	na
54.967421	0.050082	59.000000	nontarget	11.000000	na
55.017503	0.050218	59.000000	nontarget	12.000000	na
55.067720	0.049989	59.000000	nontarget	13.000000	na
55.117709	0.049778	59.000000	nontarget	14.000000	na
55.167487	0.049436	59.000000	nontarget	15.000000	na
55.216924	0.050566	59.000000	nontarget	16.000000	55.223355
55.267489	0.049334	60.000000	nontarget	1.000000	55.274113
55.316823	0.050283	60.000000	nontarget	2.000000	na
55.367107	0.050025	60.000000	nontarget	3.000000	na
55.417132	0.050360	60.000000	nontarget	4.000000	na
55.467492	0.050162	60.000000	nontarget	5.000000	na
55.517654	0.049435	60.000000	nontarget	6.000000	na
55.567089	0.050405	60.000000	nontarget	7.000000	na
55.617494	0.049419	60.000000	nontarget	8.000000	na
55.666913	0.050413	60.000000	nontarget	9.000000	na
55.717326	0.050152	60.000000	nontarget	10.000000	na
55.767478	0.049146	60.000000	nontarget	11.000000	na
55.816624	0.050685	60.000000	nontarget	12.000000	na
55.867310	0.050143	60.000000	nontarget	13.000000	na
55.917452	0.050033	60.000000	nontarget	14.000000	na
55.967485	0.049637	60.000000	nontarget	15.000000	na
56.017121	0.050406	60.000000	nontarget	16.000000	na
56.067527	0.049984	61.000000	nontarget	1.000000	56.083173
56.117511	0.049980	61.000000	nontarget	2.000000	na
56.167491	0.050105	61.000000	nontarget	3.000000	na
56.217595	0.050039	61.000000	nontarget	4.000000	na
56.267635	0.049919	61.000000	nontarget	5.000000	na
56.317553	0.049746	61.000000	nontarget	6.000000	na
56.367299	0.050369	61.000000	nontarget	7.000000	na
56.417668	0.050044	61.000000	nontarget	8.000000	na
56.467712	0.049622	61.000000	nontarget	9.000000	na
56.517334	0.050205	61.000000	nontarget	10.000000	na
56.567539	0.049944	61.000000	nontarget	11.000000	na
56.617483	0.050010	61.000000	nontarget	12.000000	na
56.667493	0.050004	61.000000	nontarget	13.000000	na
56.717497	0.050085	61.000000	nontarget	14.000000	na
56.767582	0.049083	61.000000	nontarget	15.000000	na
56.816665	0.050114	61.000000	nontarget	16.000000	na
56.866779	0.050525	62.000000	nontarget	1.000000	na
56.917305	0.050404	62.000000	nontarget	2.000000	56.923928
56.967708	0.049348	62.000000	nontarget	3.000000	na
57.017056	0.050865	62.000000	nontarget	4.000000	na
57.067921	0.049840	62.000000	nontarget	5.000000	na
57.117761	0.049971	62.000000	nontarget	6.000000	na
57.167732	0.049918	62.000000	nontarget	7.000000	na
57.217650	0.050097	62.000000	nontarget	8.000000	na
57.267747	0.049353	62.000000	nontarget	9.000000	na
57.317100	0.050347	62.000000	nontarget	10.000000	na
57.367447	0.049838	62.000000	nontarget	11.000000	na
57.417285	0.050210	62.000000	nontarget	12.000000	na
57.467495	0.050283	62.000000	nontarget	13.000000	na
57.517779	0.049658	62.000000	nontarget	14.000000	na
57.567436	0.049876	62.000000	nontarget	15.000000	na
57.617312	0.049948	62.000000	nontarget	16.000000	na
57.667261	0.049805	63.000000	nontarget	1.000000	na
57.717066	0.050513	63.000000	nontarget	2.000000	na
57.767578	0.050329	63.000000	nontarget	3.000000	na
57.817907	0.049611	63.000000	nontarget	4.000000	na
57.867518	0.050412	63.000000	nontarget	5.000000	na
57.917930	0.049553	63.000000	nontarget	6.000000	na
57.967483	0.049687	63.000000	nontarget	7.000000	na
58.017170	0.050442	63.000000	nontarget	8.000000	58.045533
58.067612	0.049664	63.000000	nontarget	9.000000	na
58.117276	0.050408	63.000000	nontarget	10.000000	na
58.167685	0.049158	63.000000	nontarget	11.000000	na
58.216843	0.050895	63.000000	nontarget	12.000000	na
58.267738	0.050013	63.000000	nontarget	13.000000	na
58.317751	0.049301	63.000000	nontarget	14.000000	na
58.367052	0.050396	63.000000	nontarget	15.000000	na
58.417448	0.050050	63.000000	nontarget	16.000000	na
58.467499	0.050361	64.000000	target	1.000000	na
58.517859	0.049643	64.000000	target	2.000000	na
58.567502	0.050012	64.000000	target	3.000000	na
58.617515	0.049973	64.000000	target	4.000000	na
58.667488	0.050139	64.000000	target	5.000000	na
58.717627	0.049891	64.000000	target	6.000000	na
58.767518	0.050352	64.000000	target	7.000000	na
58.817871	0.049779	64.000000	target	8.000000	na
58.867649	0.050182	64.000000	target	9.000000	na
58.917831	0.049673	64.000000	target	10.000000	na
58.967504	0.049992	64.000000	target	11.000000	na
59.017496	0.050130	64.000000	target	12.000000	na
59.067625	0.049849	64.000000	target	13.000000	na
59.117474	0.050040	64.000000	target	14.000000	na
59.167514	0.049997	64.000000	target	15.000000	na
59.217511	0.050316	64.000000	target	16.000000	59.249099
59.267827	0.049214	65.000000	nontarget	1.000000	59.274400
59.317041	0.050134	65.000000	nontarget	2.000000	na
59.367175	0.050233	65.000000	nontarget	3.000000	na
59.417409	0.049647	65.000000	nontarget	4.000000	na
59.467056	0.050744	65.000000	nontarget	5.000000	na
59.517800	0.049725	65.000000	nontarget	6.000000	na
59.567525	0.049972	65.000000	nontarget	7.000000	na
59.617497	0.049996	65.000000	nontarget	8.000000	na
59.667493	0.049803	65.000000	nontarget	9.000000	na
59.717296	0.050000	65.000000	nontarget	10.000000	na
59.767297	0.050608	65.000000	nontarget	11.000000	na
59.817905	0.049239	65.000000	nontarget	12.000000	na
59.867144	0.050211	65.000000	nontarget	13.000000	na
59.917355	0.050133	65.000000	nontarget	14.000000	na
59.967489	0.050016	65.000000	nontarget	15.000000	na
60.017505	0.049970	65.000000	nontarget	16.000000	na
60.067475	0.049833	66.000000	nontarget	1.000000	na
60.117309	0.050224	66.000000	nontarget	2.000000	na
60.167533	0.049975	66.000000	nontarget	3.000000	60.174208
60.217508	0.050183	66.000000	nontarget	4.000000	na
60.267691	0.050061	66.000000	nontarget	5.000000	na
60.317752	0.049701	66.000000	nontarget	6.000000	na
60.367453	0.050065	66.000000	nontarget	7.000000	na
60.417518	0.050102	66.000000	nontarget	8.000000	na
60.467620	0.049933	66.000000	nontarget	9.000000	na
60.517553	0.049744	66.000000	nontarget	10.000000	na
60.567298	0.050570	66.000000	nontarget	11.000000	na
60.617867	0.049651	66.000000	nontarget	12.000000	na
60.667518	0.050234	66.000000	nontarget	13.000000	na
60.717751	0.049909	66.000000	nontarget	14.000000	na
60.767660	0.050224	66.000000	nontarget	15.000000	na
60.817884	0.049143	66.000000	nontarget	16.000000	na
60.867026	0.050358	67.000000	nontarget	1.000000	na
60.917384	0.050308	67.000000	nontarget	2.000000	na
60.967692	0.049326	67.000000	nontarget	3.000000	na
61.017018	0.049981	67.000000	nontarget	4.000000	na
61.066999	0.050112	67.000000	nontarget	5.000000	61.086394
61.117110	0.050544	67.000000	nontarget	6.000000	na
61.167654	0.049826	67.000000	nontarget	7.000000	na
61.217480	0.049903	67.000000	nontarget	8.000000	na
61.267383	0.050060	67.000000	nontarget	9.000000	na
61.317443	0.050060	67.000000	nontarget	10.000000	na
61.367504	0.049487	67.000000	nontarget	11.000000	na
61.416990	0.050536	67.000000	nontarget	12.000000	na
61.467526	0.050336	67.000000	nontarget	13.000000	na
61.517862	0.049442	67.000000	nontarget	14.000000	na
61.567304	0.050247	67.000000	nontarget	15.000000	na
61.617551	0.049837	67.000000	nontarget	16.000000	na
61.667389	0.050027	68.000000	nontarget	1.000000	na
61.717415	0.049866	68.000000	nontarget	2.000000	na
61.767281	0.050475	68.000000	nontarget	3.000000	na
61.817756	0.049757	68.000000	nontarget	4.000000	na
61.867513	0.049695	68.000000	nontarget	5.000000	na
61.917208	0.050309	68.000000	nontarget	6.000000	61.941022
61.967517	0.049970	68.000000	nontarget	7.000000	na
62.017487	0.049989	68.000000	nontarget	8.000000	na
62.067477	0.050037	68.000000	nontarget	9.000000	na
62.117514	0.050108	68.000000	nontarget	10.000000	na
62.167621	0.050051	68.000000	nontarget	11.000000	na
62.217673	0.049746	68.000000	nontarget	12.000000	na
62.267418	0.050118	68.000000	nontarget	13.000000	na
62.317536	0.049978	68.000000	nontarget	14.000000	na
62.367514	0.049537	68.000000	nontarget	15.000000	na
62.417051	0.050475	68.000000	nontarget	16.000000	na
62.467525	0.050016	69.000000	nontarget	1.000000	na
62.517542	0.050082	69.000000	nontarget	2.000000	na
62.567624	0.049899	69.000000	nontarget	3.000000	na
62.617523	0.050023	69.000000	nontarget	4.000000	na
62.667546	0.049449	69.000000	nontarget	5.000000	na
62.716994	0.050652	69.000000	nontarget	6.000000	na
62.767646	0.049941	69.000000	nontarget	7.000000	na
62.817587	0.049965	69.000000	nontarget	8.000000	62.849561
62.867552	0.049540	69.000000	nontarget	9.000000	na
62.917093	0.050417	69.000000	nontarget	10.000000	na
62.967510	0.049991	69.000000	nontarget	11.000000	na
63.017501	0.050068	69.000000	nontarget	12.000000	na
63.067569	0.050006	69.000000	nontarget	13.000000	na
63.117575	0.049932	69.000000	nontarget	14.000000	na
63.167507	0.049428	69.000000	nontarget	15.000000	na
63.216936	0.050569	69.000000	nontarget	16.000000	na
63.267504	0.050032	70.000000	nontarget	1.000000	na
63.317536	0.049393	70.000000	nontarget	2.000000	na
63.366930	0.050692	70.000000	nontarget	3.000000	na
63.417622	0.049659	70.000000	nontarget	4.000000	na
63.467281	0.050228	70.000000	nontarget	5.000000	na
63.517509	0.049274	70.000000	nontarget	6.000000	na
63.566783	0.050193	70.000000	nontarget	7.000000	na
63.616976	0.050204	70.000000	nontarget	8.000000	na
63.667180	0.050317	70.000000	nontarget	9.000000	na
63.717497	0.050154	70.000000	nontarget	10.000000	na
63.767651	0.049838	70.000000	nontarget	11.000000	na
63.817489	0.049615	70.000000	nontarget	12.000000	na
63.867104	0.050394	70.000000	nontarget	13.000000	63.873561
63.917499	0.050096	70.000000	nontarget	14.000000	na
63.967594	0.049381	70.000000	nontarget	15.000000	na
64.016975	0.050552	70.000000	nontarget	16.000000	na
64.067527	0.049665	71.000000	nontarget	1.000000	na
64.117193	0.049744	71.000000	nontarget	2.000000	na
64.166936	0.049703	71.000000	nontarget	3.000000	na
64.216639	0.050909	71.000000	nontarget	4.000000	na
64.267548	0.049246	71.000000	nontarget	5.000000	na
64.316794	0.050276	71.000000	nontarget	6.000000	na
64.367070	0.050581	71.000000	nontarget	7.000000	na
64.417651	0.049314	71.000000	nontarget	8.000000	na
64.466966	0.050557	71.000000	nontarget	9.000000	na
64.517523	0.049711	71.000000	nontarget	10.000000	na
64.567234	0.050481	71.000000	nontarget	11.000000	na
64.617715	0.048922	71.000000	nontarget	12.000000	na
64.666637	0.050748	71.000000	nontarget	13.000000	na
64.717385	0.050127	71.000000	nontarget	14.000000	na
64.767512	0.049843	71.000000	nontarget	15.000000	na
64.817354	0.050024	71.000000	nontarget	16.000000	na
64.867378	0.050051	72.000000	nontarget	1.000000	na
64.917429	0.049220	72.000000	nontarget	2.000000	64.923278
64.966649	0.050860	72.000000	nontarget	3.000000	na
65.017509	0.049458	72.000000	nontarget	4.000000	na
65.066967	0.050690	72.000000	nontarget	5.000000	na
65.117656	0.049859	72.000000	nontarget	6.000000	na
65.167515	0.049152	72.000000	nontarget	7.000000	na
65.216667	0.050298	72.000000	nontarget	8.000000	na
65.266965	0.050536	72.000000	nontarget	9.000000	na
65.317501	0.050035	72.000000	nontarget	10.000000	na
65.367537	0.049989	72.000000	nontarget	11.000000	na
65.417525	0.049398	72.000000	nontarget	12.000000	na
65.466923	0.050544	72.000000	nontarget	13.000000	na
65.517467	0.049498	72.000000	nontarget	14.000000	na
65.566966	0.050529	72.000000	nontarget	15.000000	na
65.617495	0.049832	72.000000	nontarget	16.000000	na
65.667327	0.050359	73.000000	nontarget	1.000000	na
65.717686	0.049956	73.000000	nontarget	2.000000	na
65.767642	0.049330	73.000000	nontarget	3.000000	na
65.816972	0.049970	73.000000	nontarget	4.000000	65.823628
65.866942	0.050006	73.000000	nontarget	5.000000	na
65.916948	0.050704	73.000000	nontarget	6.000000	na
65.967652	0.049834	73.000000	nontarget	7.000000	na
66.017486	0.049738	73.000000	nontarget	8.000000	na
66.067224	0.050335	73.000000	nontarget	9.000000	na
66.117559	0.049439	73.000000	nontarget	10.000000	na
66.166998	0.049942	73.000000	nontarget	11.000000	na
66.216940	0.050203	73.000000	nontarget	12.000000	na
66.267143	0.050395	73.000000	nontarget	13.000000	na
66.317538	0.049602	73.000000	nontarget	14.000000	na
66.367140	0.049807	73.000000	nontarget	15.000000	na
66.416946	0.050030	73.000000	nontarget	16.000000	na
66.466977	0.050240	74.000000	nontarget	1.000000	na
66.517217	0.049834	74.000000	nontarget	2.000000	na
66.567051	0.050468	74.000000	nontarget	3.000000	na
66.617519	0.049984	74.000000	nontarget	4.000000	na
66.667504	0.049430	74.000000	nontarget	5.000000	na
66.716934	0.050596	74.000000	nontarget	6.000000	66.744095
66.767530	0.050217	74.000000	nontarget	7.000000	na
66.817747	0.050009	74.000000	nontarget	8.000000	na
66.867755	0.049658	74.000000	nontarget	9.000000	na
66.917413	0.050101	74.000000	nontarget	10.000000	na
66.967515	0.049985	74.000000	nontarget	11.000000	na
67.017500	0.050104	74.000000	nontarget	12.000000	na
67.067604	0.049330	74.000000	nontarget	13.000000	na
67.116934	0.050575	74.000000	nontarget	14.000000	na
67.167509	0.050062	74.000000	nontarget	15.000000	na
67.217571	0.050068	74.000000	nontarget	16.000000	na
67.267639	0.049712	75.000000	nontarget	1.000000	na
67.317351	0.050139	75.000000	nontarget	2.000000	na
67.367490	0.050035	75.000000	nontarget	3.000000	na
67.417525	0.049390	75.000000	nontarget	4.000000	na
67.466915	0.050553	75.000000	nontarget	5.000000	na
67.517468	0.049460	75.000000	nontarget	6.000000	na
67.566928	0.050574	75.000000	nontarget	7.000000	na
67.617502	0.050002	75.000000	nontarget	8.000000	na
67.667504	0.049887	75.000000	nontarget	9.000000	67.680659
67.717391	0.050113	75.000000	nontarget	10.000000	na
67.767504	0.049362	75.000000	nontarget	11.000000	na
67.816866	0.050069	75.000000	nontarget	12.000000	na
67.866935	0.050483	75.000000	nontarget	13.000000	na
67.917418	0.050035	75.000000	nontarget	14.000000	na
67.967453	0.049702	75.000000	nontarget	15.000000	na
68.017155	0.050269	75.000000	nontarget	16.000000	na
68.067423	0.050089	76.000000	nontarget	1.000000	na
68.117512	0.049995	76.000000	nontarget	2.000000	na
68.167507	0.049990	76.000000	nontarget	3.000000	na
68.217498	0.050058	76.000000	nontarget	4.000000	na
68.267556	0.049823	76.000000	nontarget	5.000000	na
68.317379	0.050124	76.000000	nontarget	6.000000	na
68.367502	0.049061	76.000000	nontarget	7.000000	na
68.416563	0.050794	76.000000	nontarget	8.000000	na
68.467358	0.049893	76.000000	nontarget	9.000000	na
68.517251	0.049929	76.000000	nontarget	10.000000	na
68.567180	0.050284	76.000000	nontarget	11.000000	na
68.617464	0.050082	76.000000	nontarget	12.000000	na
68.667546	0.049959	76.000000	nontarget	13.000000	68.678832
68.717505	0.050011	76.000000	nontarget	14.000000	na
68.767516	0.049522	76.000000	nontarget	15.000000	na
68.817038	0.050472	76.000000	nontarget	16.000000	na
68.867510	0.049432	77.000000	nontarget	1.000000	na
68.916942	0.050081	77.000000	nontarget	2.000000	na
68.967022	0.050159	77.000000	nontarget	3.000000	na
69.017182	0.050344	77.000000	nontarget	4.000000	na
69.067525	0.049319	77.000000	nontarget	5.000000	na
69.116844	0.050666	77.000000	nontarget	6.000000	na
69.167510	0.050162	77.000000	nontarget	7.000000	na
69.217672	0.049181	77.000000	nontarget	8.000000	na
69.266854	0.050261	77.000000	nontarget	9.000000	na
69.317114	0.049704	77.000000	nontarget	10.000000	na
69.366818	0.050007	77.000000	nontarget	11.000000	na
69.416825	0.050307	77.000000	nontarget	12.000000	na
69.467132	0.050583	77.000000	nontarget	13.000000	na
69.517716	0.049338	77.000000	nontarget	14.000000	na
69.567054	0.050134	77.000000	nontarget	15.000000	na
69.617188	0.050304	77.000000	nontarget	16.000000	na
69.667492	0.049999	78.000000	nontarget	1.000000	na
69.717492	0.050024	78.000000	nontarget	2.000000	69.724146
69.767515	0.049999	78.000000	nontarget	3.000000	na
69.817514	0.049773	78.000000	nontarget	4.000000	na
69.867287	0.050201	78.000000	nontarget	5.000000	na
69.917488	0.050193	78.000000	nontarget	6.000000	na
69.967681	0.049429	78.000000	nontarget	7.000000	na
70.017109	0.050376	78.000000	nontarget	8.000000	na
70.067485	0.049813	78.000000	nontarget	9.000000	na
70.117298	0.050196	78.000000	nontarget	10.000000	na
70.167494	0.050029	78.000000	nontarget	11.000000	na
70.217523	0.049947	78.000000	nontarget	12.000000	na
70.267470	0.049790	78.000000	nontarget	13.000000	na
70.317259	0.049699	78.000000	nontarget	14.000000	na
70.366959	0.050540	78.000000	nontarget	15.000000	na
70.417499	0.049180	78.000000	nontarget	16.000000	na
70.466679	0.050792	79.000000	nontarget	1.000000	na
70.517472	0.050061	79.000000	nontarget	2.000000	na
70.567532	0.049359	79.000000	nontarget	3.000000	na
70.616891	0.050623	79.000000	nontarget	4.000000	70.640065
70.667514	0.049931	79.000000	nontarget	5.000000	na
70.717445	0.049956	79.000000	nontarget	6.000000	na
70.767401	0.050331	79.000000	nontarget	7.000000	na
70.817732	0.049767	79.000000	nontarget	8.000000	na
70.867499	0.050007	79.000000	nontarget	9.000000	na
70.917506	0.050151	79.000000	nontarget	10.000000	na
70.967657	0.049865	79.000000	nontarget	11.000000	na
71.017521	0.049419	79.000000	nontarget	12.000000	na
71.066940	0.050767	79.000000	nontarget	13.000000	na
71.117708	0.049810	79.000000	nontarget	14.000000	na
71.167518	0.049820	79.000000	nontarget	15.000000	na
71.217337	0.049751	79.000000	nontarget	16.000000	na
71.267088	0.050238	80.000000	target	1.000000	na
71.317326	0.050330	80.000000	target	2.000000	na
71.367656	0.049860	80.000000	target	3.000000	na
71.417516	0.049698	80.000000	target	4.000000	na
71.467213	0.050309	80.000000	target	5.000000	na
71.517523	0.049992	80.000000	target	6.000000	na
71.567515	0.050121	80.000000	target	7.000000	na
71.617636	0.049261	80.000000	target	8.000000	na
71.666897	0.050102	80.000000	target	9.000000	na
71.716999	0.050021	80.000000	target	10.000000	na
71.767019	0.050268	80.000000	target	11.000000	na
71.817287	0.050220	80.000000	target	12.000000	na
71.867507	0.049434	80.000000	target	13.000000	na
71.916941	0.050617	80.000000	target	14.000000	na
71.967558	0.049971	80.000000	target	15.000000	na
72.017530	0.049971	80.000000	target	16.000000	72.052388
72.067500	0.049488	81.000000	nontarget	1.000000	72.074118
72.116988	0.050763	81.000000	nontarget	2.000000	na
72.167751	0.050085	81.000000	nontarget	3.000000	na
72.217836	0.049557	81.000000	nontarget	4.000000	na
72.267393	0.050331	81.000000	nontarget	5.000000	na
72.317724	0.049165	81.000000	nontarget	6.000000	na
72.366889	0.050677	81.000000	nontarget	7.000000	na
72.417565	0.049941	81.000000	nontarget	8.000000	na
72.467506	0.050222	81.000000	nontarget	9.000000	na
72.517728	0.049777	81.000000	nontarget	10.000000	na
72.567505	0.050388	81.000000	nontarget	11.000000	na
72.617894	0.049894	81.000000	nontarget	12.000000	na
72.667788	0.049325	81.000000	nontarget	13.000000	na
72.717113	0.050054	81.000000	nontarget	14.000000	na
72.767167	0.049719	81.000000	nontarget	15.000000	na
72.816886	0.050204	81.000000	nontarget	16.000000	na
72.867091	0.050148	82.000000	nontarget	1.000000	na
72.917239	0.050276	82.000000	nontarget	2.000000	na
72.967514	0.050001	82.000000	nontarget	3.000000	na
73.017515	0.049751	82.000000	nontarget	4.000000	73.028920
73.067266	0.050530	82.000000	nontarget	5.000000	na
73.117796	0.049667	82.000000	nontarget	6.000000	na
73.167463	0.050485	82.000000	nontarget	7.000000	na
73.217947	0.049809	82.000000	nontarget	8.000000	na
73.267756	0.049636	82.000000	nontarget	9.000000	na
73.317392	0.050351	82.000000	nontarget	10.000000	na
73.367743	0.049392	82.000000	nontarget	11.000000	na
73.417135	0.050583	82.000000	nontarget	12.000000	na
73.467718	0.050092	82.000000	nontarget	13.000000	na
73.517810	0.049715	82.000000	nontarget	14.000000	na
73.567525	0.050343	82.000000	nontarget	15.000000	na
73.617868	0.049298	82.000000	nontarget	16.000000	na
73.667165	0.050302	83.000000	nontarget	1.000000	na
73.717467	0.049397	83.000000	nontarget	2.000000	na
73.766865	0.050979	83.000000	nontarget	3.000000	na
73.817844	0.049660	83.000000	nontarget	4.000000	na
73.867503	0.050178	83.000000	nontarget	5.000000	na
73.917682	0.049948	83.000000	nontarget	6.000000	na
73.967630	0.049358	83.000000	nontarget	7.000000	na
74.016987	0.050608	83.000000	nontarget	8.000000	na
74.067595	0.049957	83.000000	nontarget	9.000000	74.087291
74.117552	0.049965	83.000000	nontarget	10.000000	na
74.167517	0.049992	83.000000	nontarget	11.000000	na
74.217509	0.049992	83.000000	nontarget	12.000000	na
74.267501	0.050006	83.000000	nontarget	13.000000	na
74.317507	0.050138	83.000000	nontarget	14.000000	na
74.367644	0.049902	83.000000	nontarget	15.000000	na
74.417547	0.050103	83.000000	nontarget	16.000000	na
74.467650	0.049795	84.000000	nontarget	1.000000	na
74.517445	0.050243	84.000000	nontarget	2.000000	na
74.567688	0.050215	84.000000	nontarget	3.000000	na
74.617904	0.049613	84.000000	nontarget	4.000000	na
74.667517	0.050106	84.000000	nontarget	5.000000	na
74.717623	0.050274	84.000000	nontarget	6.000000	na
74.767897	0.049616	84.000000	nontarget	7.000000	na
74.817513	0.050120	84.000000	nontarget	8.000000	na
74.867633	0.049814	84.000000	nontarget	9.000000	na
74.917446	0.049623	84.000000	nontarget	10.000000	na
74.967069	0.050149	84.000000	nontarget	11.000000	na
75.017218	0.050203	84.000000	nontarget	12.000000	na
75.067421	0.049666	84.000000	nontarget	13.000000	75.078711
75.117087	0.050422	84.000000	nontarget	14.000000	na
75.167508	0.050339	84.000000	nontarget	15.000000	na
75.217847	0.049786	84.000000	nontarget	16.000000	na
75.267633	0.049742	85.000000	nontarget	1.000000	na
75.317374	0.050068	85.000000	nontarget	2.000000	na
75.367442	0.050036	85.000000	nontarget	3.000000	na
75.417478	0.050011	85.000000	nontarget	4.000000	na
75.467490	0.049787	85.000000	nontarget	5.000000	na
75.517277	0.050226	85.000000	nontarget	6.000000	na
75.567503	0.049797	85.000000	nontarget	7.000000	na
75.617300	0.049746	85.000000	nontarget	8.000000	na
75.667047	0.050099	85.000000	nontarget	9.000000	na
75.717145	0.050369	85.000000	nontarget	10.000000	na
75.767515	0.050342	85.000000	nontarget	11.000000	na
75.817856	0.049712	85.000000	nontarget	12.000000	na
75.867569	0.049899	85.000000	nontarget	13.000000	na
75.917468	0.050381	85.000000	nontarget	14.000000	na
75.967849	0.049193	85.000000	nontarget	15.000000	75.974801
76.017042	0.050308	85.000000	nontarget	16.000000	na
76.067350	0.050464	86.000000	nontarget	1.000000	76.073960
76.117814	0.049610	86.000000	nontarget	2.000000	na
76.167423	0.049842	86.000000	nontarget	3.000000	na
76.217265	0.050136	86.000000	nontarget	4.000000	na
76.267401	0.050248	86.000000	nontarget	5.000000	na
76.317650	0.049866	86.000000	nontarget	6.000000	na
76.367516	0.050357	86.000000	nontarget	7.000000	na
76.417873	0.049288	86.000000	nontarget	8.000000	na
76.467161	0.050357	86.000000	nontarget	9.000000	na
76.517518	0.049994	86.000000	nontarget	10.000000	na
76.567512	0.049885	86.000000	nontarget	11.000000	na
76.617397	0.050094	86.000000	nontarget	12.000000	na
76.667491	0.050159	86.000000	nontarget	13.000000	na
76.717651	0.049867	86.000000	nontarget	14.000000	na
76.767518	0.050337	86.000000	nontarget	15.000000	na
76.817855	0.049656	86.000000	nontarget	16.000000	na
76.867511	0.050112	87.000000	nontarget	1.000000	na
76.917623	0.049829	87.000000	nontarget	2.000000	na
76.967453	0.049747	87.000000	nontarget	3.000000	na
77.017200	0.050220	87.000000	nontarget	4.000000	na
77.067420	0.049672	87.000000	nontarget	5.000000	77.073197
77.117092	0.050033	87.000000	nontarget	6.000000	na
77.167125	0.050015	87.000000	nontarget	7.000000	na
77.217140	0.050373	87.000000	nontarget	8.000000	na
77.267513	0.049997	87.000000	nontarget	9.000000	na
77.317510	0.050013	87.000000	nontarget	10.000000	na
77.367523	0.050094	87.000000	nontarget	11.000000	na
77.417617	0.049739	87.000000	nontarget	12.000000	na
77.467356	0.049173	87.000000	nontarget	13.000000	na
77.516529	0.050500	87.000000	nontarget	14.000000	na
77.567029	0.050558	87.000000	nontarget	15.000000	na
77.617587	0.050037	87.000000	nontarget	16.000000	na
77.667624	0.049188	88.000000	nontarget	1.000000	na
77.716812	0.050685	88.000000	nontarget	2.000000	na
77.767497	0.049052	88.000000	nontarget	3.000000	na
77.816549	0.050940	88.000000	nontarget	4.000000	na
77.867489	0.049879	88.000000	nontarget	5.000000	na
77.917368	0.049975	88.000000	nontarget	6.000000	77.923999
77.967344	0.049795	88.000000	nontarget	7.000000	na
78.017138	0.050066	88.000000	nontarget	8.000000	na
78.067204	0.050106	88.000000	nontarget	9.000000	na
78.117309	0.050198	88.000000	nontarget	10.000000	na
78.167508	0.050011	88.000000	nontarget	11.000000	na
78.217518	0.049987	88.000000	nontarget	12.000000	na
78.267505	0.049294	88.000000	nontarget	13.000000	na
78.316799	0.050547	88.000000	nontarget	14.000000	na
78.367346	0.050271	88.000000	nontarget	15.000000	na
78.417617	0.049883	88.000000	nontarget	16.000000	na
78.467499	0.050061	89.000000	nontarget	1.000000	na
78.517561	0.049739	89.000000	nontarget	2.000000	na
78.567300	0.049826	89.000000	nontarget	3.000000	na
78.617125	0.050382	89.000000	nontarget	4.000000	na
78.667507	0.050012	89.000000	nontarget	5.000000	na
78.717520	0.049644	89.000000	nontarget	6.000000	na
78.767164	0.050128	89.000000	nontarget	7.000000	na
78.817292	0.049946	89.000000	nontarget	8.000000	na
78.867237	0.050275	89.000000	nontarget	9.000000	78.873922
78.917512	0.049886	89.000000	nontarget	10.000000	na
78.967398	0.049108	89.000000	nontarget	11.000000	na
79.016506	0.051041	89.000000	nontarget	12.000000	na
79.067548	0.049843	89.000000	nontarget	13.000000	na
79.117390	0.050121	89.000000	nontarget	14.000000	na
79.167512	0.049421	89.000000	nontarget	15.000000	na
79.216933	0.050406	89.000000	nontarget	16.000000	na
79.267339	0.050174	90.000000	nontarget	1.000000	na
79.317513	0.049992	90.000000	nontarget	2.000000	na
79.367506	0.050122	90.000000	nontarget	3.000000	na
79.417628	0.049886	90.000000	nontarget	4.000000	na
79.467514	0.049997	90.000000	nontarget	5.000000	na
79.517511	0.049989	90.000000	nontarget	6.000000	na
79.567500	0.050020	90.000000	nontarget	7.000000	na
79.617521	0.049528	90.000000	nontarget	8.000000	na
79.667049	0.050467	90.000000	nontarget	9.000000	na
79.717516	0.049620	90.000000	nontarget	10.000000	na
79.767136	0.050401	90.000000	nontarget	11.000000	na
79.817537	0.049823	90.000000	nontarget	12.000000	na
79.867360	0.050157	90.000000	nontarget	13.000000	na
79.917517	0.050112	90.000000	nontarget	14.000000	na
79.967629	0.049569	90.000000	nontarget	15.000000	79.983301
80.017197	0.049577	90.000000	nontarget	16.000000	na
80.066774	0.050697	91.000000	nontarget	1.000000	80.073457
80.117471	0.049731	91.000000	nontarget	2.000000	na
80.167202	0.049874	91.000000	nontarget	3.000000	na
80.217075	0.049962	91.000000	nontarget	4.000000	na
80.267038	0.050275	91.000000	nontarget	5.000000	na
80.317313	0.050194	91.000000	nontarget	6.000000	na
80.367507	0.049859	91.000000	nontarget	7.000000	na
80.417366	0.050137	91.000000	nontarget	8.000000	na
80.467503	0.050002	91.000000	nontarget	9.000000	na
80.517505	0.049351	91.000000	nontarget	10.000000	na
80.566857	0.050201	91.000000	nontarget	11.000000	na
80.617058	0.050456	91.000000	nontarget	12.000000	na
80.667514	0.049994	91.000000	nontarget	13.000000	na
80.717508	0.049993	91.000000	nontarget	14.000000	na
80.767501	0.050045	91.000000	nontarget	15.000000	na
80.817546	0.049932	91.000000	nontarget	16.000000	na
80.867478	0.049657	92.000000	target	1.000000	na
80.917136	0.050379	92.000000	target	2.000000	na
80.967515	0.049144	92.000000	target	3.000000	na
81.016659	0.050846	92.000000	target	4.000000	na
81.067505	0.050143	92.000000	target	5.000000	na
81.117648	0.049123	92.000000	target	6.000000	na
81.166770	0.049934	92.000000	target	7.000000	na
81.216704	0.050954	92.000000	target	8.000000	na
81.267659	0.049584	92.000000	target	9.000000	na
81.317243	0.049526	92.000000	target	10.000000	na
81.366768	0.050735	92.000000	target	11.000000	na
81.417503	0.050001	92.000000	target	12.000000	na
81.467505	0.050004	92.000000	target	13.000000	na
81.517509	0.049262	92.000000	target	14.000000	na
81.566772	0.050301	92.000000	target	15.000000	na
81.617073	0.050181	92.000000	target	16.000000	81.645388
81.667254	0.050315	93.000000	nontarget	1.000000	81.673899
81.717569	0.049885	93.000000	nontarget	2.000000	na
81.767454	0.049932	93.000000	nontarget	3.000000	na
81.817386	0.050079	93.000000	nontarget	4.000000	na
81.867464	0.050054	93.000000	nontarget	5.000000	na
81.917518	0.049948	93.000000	nontarget	6.000000	na
81.967466	0.049233	93.000000	nontarget	7.000000	na
82.016699	0.050796	93.000000	nontarget	8.000000	na
82.067495	0.049819	93.000000	nontarget	9.000000	na
82.117314	0.050204	93.000000	nontarget	10.000000	na
82.167518	0.049143	93.000000	nontarget	11.000000	na
82.216661	0.050851	93.000000	nontarget	12.000000	na
82.267511	0.049806	93.000000	nontarget	13.000000	na
82.317317	0.050337	93.000000	nontarget	14.000000	na
82.367654	0.049846	93.000000	nontarget	15.000000	na
82.417500	0.049995	93.000000	nontarget	16.000000	na
82.467495	0.050014	94.000000	nontarget	1.000000	na
82.517509	0.049987	94.000000	nontarget	2.000000	82.528713
82.567496	0.050168	94.000000	nontarget	3.000000	na
82.617665	0.049828	94.000000	nontarget	4.000000	na
82.667493	0.049976	94.000000	nontarget	5.000000	na
82.717469	0.050004	94.000000	nontarget	6.000000	na
82.767473	0.050134	94.000000	nontarget	7.000000	na
82.817607	0.049788	94.000000	nontarget	8.000000	na
82.867395	0.049647	94.000000	nontarget	9.000000	na
82.917042	0.050516	94.000000	nontarget	10.000000	na
82.967557	0.048995	94.000000	nontarget	11.000000	na
83.016553	0.050951	94.000000	nontarget	12.000000	na
83.067504	0.050014	94.000000	nontarget	13.000000	na
83.117518	0.049942	94.000000	nontarget	14.000000	na
83.167460	0.050043	94.000000	nontarget	15.000000	na
83.217503	0.050003	94.000000	nontarget	16.000000	na
83.267506	0.049943	95.000000	nontarget	1.000000	na
83.317449	0.049758	95.000000	nontarget	2.000000	na
83.367207	0.050314	95.000000	nontarget	3.000000	na
83.417520	0.049992	95.000000	nontarget	4.000000	na
83.467513	0.049997	95.000000	nontarget	5.000000	na
83.517509	0.049736	95.000000	nontarget	6.000000	na
83.567246	0.050267	95.000000	nontarget	7.000000	na
83.617512	0.050159	95.000000	nontarget	8.000000	na
83.667671	0.049839	95.000000	nontarget	9.000000	83.695217
83.717510	0.050001	95.000000	nontarget	10.000000	na
83.767511	0.049216	95.000000	nontarget	11.000000	na
83.816727	0.050951	95.000000	nontarget	12.000000	na
83.867678	0.049825	95.000000	nontarget	13.000000	na
83.917503	0.049992	95.000000	nontarget	14.000000	na
83.967495	0.049708	95.000000	nontarget	15.000000	na
84.017204	0.050289	95.000000	nontarget	16.000000	na
84.067492	0.050025	96.000000	target	1.000000	na
84.117517	0.049914	96.000000	target	2.000000	na
84.167431	0.049606	96.000000	target	3.000000	na
84.217038	0.050477	96.000000	target	4.000000	na
84.267514	0.050166	96.000000	target	5.000000	na
84.317681	0.049717	96.000000	target	6.000000	na
84.367398	0.050123	96.000000	target	7.000000	na
84.417521	0.050133	96.000000	target	8.000000	na
84.467654	0.049119	96.000000	target	9.000000	na
84.516773	0.050905	96.000000	target	10.000000	na
84.567678	0.049592	96.000000	target	11.000000	na
84.617270	0.050080	96.000000	target	12.000000	na
84.667351	0.050159	96.000000	target	13.000000	na
84.717510	0.050002	96.000000	target	14.000000	na
84.767512	0.049311	96.000000	target	15.000000	na
84.816823	0.050576	96.000000	target	16.000000	na
84.867400	0.050105	97.000000	nontarget	1.000000	na
84.917505	0.049896	97.000000	nontarget	2.000000	na
84.967401	0.050115	97.000000	nontarget	3.000000	na
85.017517	0.049988	97.000000	nontarget	4.000000	na
85.067504	0.049986	97.000000	nontarget	5.000000	85.095019
85.117490	0.050122	97.000000	nontarget	6.000000	na
85.167612	0.049430	97.000000	nontarget	7.000000	na
85.217042	0.050649	97.000000	nontarget	8.000000	na
85.267692	0.049050	97.000000	nontarget	9.000000	na
85.316741	0.050418	97.000000	nontarget	10.000000	na
85.367160	0.049448	97.000000	nontarget	11.000000	na
85.416608	0.050435	97.000000	nontarget	12.000000	na
85.467043	0.050169	97.000000	nontarget	13.000000	na
85.517212	0.050302	97.000000	nontarget	14.000000	na
85.567514	0.050001	97.000000	nontarget	15.000000	na
85.617515	0.049283	97.000000	nontarget	16.000000	na
85.666799	0.050281	98.000000	nontarget	1.000000	na
85.717080	0.050327	98.000000	nontarget	2.000000	na
85.767407	0.050316	98.000000	nontarget	3.000000	na
85.817723	0.049791	98.000000	nontarget	4.000000	na
85.867514	0.049720	98.000000	nontarget	5.000000	na
85.917234	0.050268	98.000000	nontarget	6.000000	na
85.967502	0.049620	98.000000	nontarget	7.000000	na
86.017122	0.049568	98.000000	nontarget	8.000000	na
86.066690	0.050978	98.000000	nontarget	9.000000	86.073165
86.117668	0.049334	98.000000	nontarget	10.000000	na
86.167002	0.050874	98.000000	nontarget	11.000000	na
86.217875	0.049640	98.000000	nontarget	12.000000	na
86.267515	0.049999	98.000000	nontarget	13.000000	na
86.317514	0.049624	98.000000	nontarget	14.000000	na
86.367137	0.050378	98.000000	nontarget	15.000000	na
86.417515	0.049745	98.000000	nontarget	16.000000	na
86.467260	0.050194	99.000000	nontarget	1.000000	na
86.517454	0.049371	99.000000	nontarget	2.000000	na
86.566825	0.050757	99.000000	nontarget	3.000000	na
86.617583	0.049832	99.000000	nontarget	4.000000	na
86.667415	0.050180	99.000000	nontarget	5.000000	na
86.717595	0.049678	99.000000	nontarget	6.000000	na
86.767273	0.049129	99.000000	nontarget	7.000000	na
86.816402	0.051125	99.000000	nontarget	8.000000	na
86.867527	0.049347	99.000000	nontarget	9.000000	na
86.916874	0.050130	99.000000	nontarget	10.000000	na
86.967005	0.050516	99.000000	nontarget	11.000000	na
87.017520	0.049544	99.000000	nontarget	12.000000	na
87.067064	0.050328	99.000000	nontarget	13.000000	na
87.117392	0.050129	99.000000	nontarget	14.000000	na
87.167521	0.049946	99.000000	nontarget	15.000000	na
87.217467	0.049910	99.000000	nontarget	16.000000	na
87.267377	0.050135	100.000000	target	1.000000	na
87.317512	0.049562	100.000000	target	2.000000	na
87.367075	0.050847	100.000000	target	3.000000	na
87.417922	0.049741	100.000000	target	4.000000	na
87.467663	0.049966	100.000000	target	5.000000	na
87.517628	0.049608	100.000000	target	6.000000	na
87.567236	0.050288	100.000000	target	7.000000	na
87.617524	0.050000	100.000000	target	8.000000	na
87.667524	0.049533	100.000000	target	9.000000	na
87.717057	0.050464	100.000000	target	10.000000	na
87.767521	0.049905	100.000000	target	11.000000	na
87.817426	0.050135	100.000000	target	12.000000	na
87.867561	0.050094	100.000000	target	13.000000	na
87.917654	0.049859	100.000000	target	14.000000	na
87.967514	0.049993	100.000000	target	15.000000	87.978810
88.017507	0.050232	100.000000	target	16.000000	na
88.067739	0.049665	101.000000	nontarget	1.000000	88.074351
88.117404	0.050146	101.000000	nontarget	2.000000	na
88.167549	0.049914	101.000000	nontarget	3.000000	na
88.217463	0.050075	101.000000	nontarget	4.000000	na
88.267538	0.049813	101.000000	nontarget	5.000000	na
88.317351	0.050167	101.000000	nontarget	6.000000	na
88.367518	0.050207	101.000000	nontarget	7.000000	na
88.417725	0.049797	101.000000	nontarget	8.000000	na
88.467522	0.049940	101.000000	nontarget	9.000000	na
88.517462	0.049741	101.000000	nontarget	10.000000	na
88.567203	0.049978	101.000000	nontarget	11.000000	na
88.617181	0.050346	101.000000	nontarget	12.000000	na
88.667527	0.049966	101.000000	nontarget	13.000000	na
88.717494	0.050135	101.000000	nontarget	14.000000	na
88.767629	0.049838	101.000000	nontarget	15.000000	na
88.817467	0.049566	101.000000	nontarget	16.000000	88.828714
88.867033	0.050653	102.000000	nontarget	1.000000	88.873688
88.917686	0.049645	102.000000	nontarget	2.000000	na
88.967331	0.049737	102.000000	nontarget	3.000000	na
89.017068	0.050603	102.000000	nontarget	4.000000	na
89.067672	0.050071	102.000000	nontarget	5.000000	na
89.117742	0.049882	102.000000	nontarget	6.000000	na
89.167624	0.049792	102.000000	nontarget	7.000000	na
89.217415	0.050131	102.000000	nontarget	8.000000	na
89.267546	0.049974	102.000000	nontarget	9.000000	na
89.317521	0.049989	102.000000	nontarget	10.000000	na
89.367509	0.050342	102.000000	nontarget	11.000000	na
89.417851	0.049808	102.000000	nontarget	12.000000	na
89.467659	0.050171	102.000000	nontarget	13.000000	na
89.517830	0.050004	102.000000	nontarget	14.000000	na
89.567834	0.050030	102.000000	nontarget	15.000000	na
89.617865	0.049211	102.000000	nontarget	16.000000	na
89.667075	0.050240	103.000000	target	1.000000	na
89.717316	0.050191	103.000000	target	2.000000	na
89.767507	0.050088	103.000000	target	3.000000	na
89.817595	0.049950	103.000000	target	4.000000	na
89.867545	0.049964	103.000000	target	5.000000	na
89.917510	0.050154	103.000000	target	6.000000	na
89.967664	0.049533	103.000000	target	7.000000	na
90.017196	0.049811	103.000000	target	8.000000	na
90.067008	0.050508	103.000000	target	9.000000	na
90.117515	0.050196	103.000000	target	10.000000	na
90.167711	0.049877	103.000000	target	11.000000	na
90.217588	0.049930	103.000000	target	12.000000	na
90.267518	0.049993	103.000000	target	13.000000	na
90.317511	0.050006	103.000000	target	14.000000	na
90.367517	0.050002	103.000000	target	15.000000	na
90.417519	0.049981	103.000000	target	16.000000	na
90.467500	0.050011	104.000000	nontarget	1.000000	90.491728
90.517511	0.049825	104.000000	nontarget	2.000000	na
90.567336	0.050544	104.000000	nontarget	3.000000	na
90.617880	0.049128	104.000000	nontarget	4.000000	na
90.667008	0.049950	104.000000	nontarget	5.000000	na
90.716958	0.050125	104.000000	nontarget	6.000000	na
90.767083	0.049836	104.000000	nontarget	7.000000	na
90.816918	0.050606	104.000000	nontarget	8.000000	na
90.867524	0.050015	104.000000	nontarget	9.000000	na
90.917539	0.050296	104.000000	nontarget	10.000000	na
90.967835	0.049333	104.000000	nontarget	11.000000	na
91.017168	0.050345	104.000000	nontarget	12.000000	na
91.067513	0.050392	104.000000	nontarget	13.000000	na
91.117905	0.049597	104.000000	nontarget	14.000000	na
91.167502	0.050023	104.000000	nontarget	15.000000	na
91.217525	0.050185	104.000000	nontarget	16.000000	na
91.267710	0.049806	105.000000	nontarget	1.000000	91.273508
91.317516	0.049989	105.000000	nontarget	2.000000	na
91.367506	0.050014	105.000000	nontarget	3.000000	na
91.417519	0.049963	105.000000	nontarget	4.000000	na
91.467482	0.049457	105.000000	nontarget	5.000000	na
91.516939	0.050665	105.000000	nontarget	6.000000	na
91.567605	0.049903	105.000000	nontarget	7.000000	na
91.617508	0.050029	105.000000	nontarget	8.000000	na
91.667536	0.049976	105.000000	nontarget	9.000000	na
91.717512	0.050304	105.000000	nontarget	10.000000	na
91.767817	0.049826	105.000000	nontarget	11.000000	na
91.817643	0.049872	105.000000	nontarget	12.000000	na
91.867515	0.050264	105.000000	nontarget	13.000000	na
91.917780	0.049580	105.000000	nontarget	14.000000	na
91.967360	0.049826	105.000000	nontarget	15.000000	na
92.017186	0.050363	105.000000	nontarget	16.000000	na
92.067549	0.050269	106.000000	nontarget	1.000000	92.095112
92.117818	0.049714	106.000000	nontarget	2.000000	na
92.167531	0.049990	106.000000	nontarget	3.000000	na
92.217521	0.049677	106.000000	nontarget	4.000000	na
92.267198	0.050333	106.000000	nontarget	5.000000	na
92.317531	0.050301	106.000000	nontarget	6.000000	na
92.367832	0.049705	106.000000	nontarget	7.000000	na
92.417537	0.050230	106.000000	nontarget	8.000000	na
92.467767	0.049131	106.000000	nontarget	9.000000	na
92.516898	0.050481	106.000000	nontarget	10.000000	na
92.567379	0.049232	106.000000	nontarget	11.000000	na
92.616611	0.050897	106.000000	nontarget	12.000000	na
92.667509	0.049931	106.000000	nontarget	13.000000	na
92.717440	0.050084	106.000000	nontarget	14.000000	na
92.767523	0.049971	106.000000	nontarget	15.000000	na
92.817495	0.050011	106.000000	nontarget	16.000000	na
92.867506	0.049198	107.000000	nontarget	1.000000	na
92.916703	0.050577	107.000000	nontarget	2.000000	na
92.967281	0.050317	107.000000	nontarget	3.000000	na
93.017598	0.049810	107.000000	nontarget	4.000000	93.023605
93.067408	0.049682	107.000000	nontarget	5.000000	na
93.117090	0.050426	107.000000	nontarget	6.000000	na
93.167515	0.049945	107.000000	nontarget	7.000000	na
93.217461	0.049710	107.000000	nontarget	8.000000	na
93.267171	0.050366	107.000000	nontarget	9.000000	na
93.317538	0.049979	107.000000	nontarget	10.000000	na
93.367517	0.049994	107.000000	nontarget	11.000000	na
93.417511	0.049895	107.000000	nontarget	12.000000	na
93.467406	0.050102	107.000000	nontarget	13.000000	na
93.517508	0.049839	107.000000	nontarget	14.000000	na
93.567347	0.049648	107.000000	nontarget	15.000000	na
93.616995	0.049922	107.000000	nontarget	16.000000	na
93.666917	0.050054	108.000000	nontarget	1.000000	na
93.716970	0.050768	108.000000	nontarget	2.000000	na
93.767739	0.048847	108.000000	nontarget	3.000000	na
93.816586	0.050949	108.000000	nontarget	4.000000	na
93.867535	0.049830	108.000000	nontarget	5.000000	na
93.917365	0.049976	108.000000	nontarget	6.000000	na
93.967341	0.050192	108.000000	nontarget	7.000000	93.973994
94.017532	0.050108	108.000000	nontarget	8.000000	na
94.067640	0.049894	108.000000	nontarget	9.000000	na
94.117535	0.050251	108.000000	nontarget	10.000000	na
94.167786	0.049684	108.000000	nontarget	11.000000	na
94.217470	0.050058	108.000000	nontarget	12.000000	na
94.267528	0.049413	108.000000	nontarget	13.000000	na
94.316940	0.049905	108.000000	nontarget	14.000000	na
94.366846	0.050129	108.000000	nontarget	15.000000	na
94.416974	0.050656	108.000000	nontarget	16.000000	na
94.467631	0.049925	109.000000	nontarget	1.000000	na
94.517555	0.050013	109.000000	nontarget	2.000000	na
94.567568	0.049953	109.000000	nontarget	3.000000	na
94.617521	0.049979	109.000000	nontarget	4.000000	na
94.667500	0.049810	109.000000	nontarget	5.000000	na
94.717310	0.050486	109.000000	nontarget	6.000000	na
94.767796	0.048806	109.000000	nontarget	7.000000	na
94.816602	0.050909	109.000000	nontarget	8.000000	94.823180
94.867512	0.049289	109.000000	nontarget	9.000000	na
94.916801	0.050717	109.000000	nontarget	10.000000	na
94.967518	0.049656	109.000000	nontarget	11.000000	na
95.017174	0.049798	109.000000	nontarget	12.000000	na
95.066972	0.050369	109.000000	nontarget	13.000000	na
95.117341	0.049968	109.000000	nontarget	14.000000	na
95.167308	0.050193	109.000000	nontarget	15.000000	na
95.217501	0.049946	109.000000	nontarget	16.000000	na
95.267447	0.050030	110.000000	nontarget	1.000000	na
95.317477	0.050289	110.000000	nontarget	2.000000	na
95.367766	0.049144	110.000000	nontarget	3.000000	na
95.416910	0.049867	110.000000	nontarget	4.000000	na
95.466777	0.050671	110.000000	nontarget	5.000000	na
95.517447	0.050113	110.000000	nontarget	6.000000	na
95.567560	0.049969	110.000000	nontarget	7.000000	na
95.617529	0.049965	110.000000	nontarget	8.000000	na
95.667494	0.050147	110.000000	nontarget	9.000000	na
95.717640	0.049343	110.000000	nontarget	10.000000	na
95.766984	0.049574	110.000000	nontarget	11.000000	na
95.816558	0.050958	110.000000	nontarget	12.000000	na
95.867516	0.049759	110.000000	nontarget	13.000000	na
95.917275	0.049475	110.000000	nontarget	14.000000	95.928451
95.966749	0.050403	110.000000	nontarget	15.000000	na
96.017152	0.049932	110.000000	nontarget	16.000000	na
96.067084	0.050664	111.000000	nontarget	1.000000	na
96.117748	0.049774	111.000000	nontarget	2.000000	na
96.167521	0.050000	111.000000	nontarget	3.000000	na
96.217522	0.050226	111.000000	nontarget	4.000000	na
96.267747	0.049197	111.000000	nontarget	5.000000	na
96.316944	0.050142	111.000000	nontarget	6.000000	na
96.367086	0.049959	111.000000	nontarget	7.000000	na
96.417045	0.050539	111.000000	nontarget	8.000000	na
96.467584	0.049929	111.000000	nontarget	9.000000	na
96.517513	0.050010	111.000000	nontarget	10.000000	na
96.567523	0.050074	111.000000	nontarget	11.000000	na
96.617597	0.050172	111.000000	nontarget	12.000000	na
96.667769	0.049562	111.000000	nontarget	13.000000	na
96.717331	0.050202	111.000000	nontarget	14.000000	na
96.767534	0.049979	111.000000	nontarget	15.000000	na
96.817512	0.049376	111.000000	nontarget	16.000000	na
96.866888	0.050329	112.000000	nontarget	1.000000	na
96.917217	0.050562	112.000000	nontarget	2.000000	na
96.967779	0.049258	112.000000	nontarget	3.000000	na
97.017037	0.050378	112.000000	nontarget	4.000000	na
97.067416	0.049493	112.000000	nontarget	5.000000	97.074136
97.116909	0.050189	112.000000	nontarget	6.000000	na
97.167098	0.050167	112.000000	nontarget	7.000000	na
97.217265	0.050271	112.000000	nontarget	8.000000	na
97.267535	0.050030	112.000000	nontarget	9.000000	na
97.317565	0.049123	112.000000	nontarget	10.000000	na
97.366688	0.051052	112.000000	nontarget	11.000000	na
97.417741	0.049966	112.000000	nontarget	12.000000	na
97.467707	0.049801	112.000000	nontarget	13.000000	na
97.517508	0.050209	112.000000	nontarget	14.000000	na
97.567717	0.050017	112.000000	nontarget	15.000000	na
97.617734	0.049101	112.000000	nontarget	16.000000	na
97.666835	0.050684	113.000000	nontarget	1.000000	na
97.717519	0.050274	113.000000	nontarget	2.000000	na
97.767793	0.049727	113.000000	nontarget	3.000000	na
97.817520	0.050203	113.000000	nontarget	4.000000	na
97.867723	0.049552	113.000000	nontarget	5.000000	na
97.917275	0.050538	113.000000	nontarget	6.000000	na
97.967813	0.049703	113.000000	nontarget	7.000000	98.004044
98.017516	0.050009	113.000000	nontarget	8.000000	na
98.067525	0.050173	113.000000	nontarget	9.000000	na
98.117698	0.049808	113.000000	nontarget	10.000000	na
98.167505	0.050005	113.000000	nontarget	11.000000	na
98.217510	0.050004	113.000000	nontarget	12.000000	na
98.267514	0.049998	113.000000	nontarget	13.000000	na
98.317512	0.050214	113.000000	nontarget	14.000000	na
98.367726	0.049118	113.000000	nontarget	15.000000	na
98.416843	0.050675	113.000000	nontarget	16.000000	na
98.467518	0.050260	114.000000	nontarget	1.000000	na
98.517778	0.049761	114.000000	nontarget	2.000000	na
98.567539	0.049991	114.000000	nontarget	3.000000	na
98.617529	0.050204	114.000000	nontarget	4.000000	na
98.667734	0.049582	114.000000	nontarget	5.000000	na
98.717315	0.049623	114.000000	nontarget	6.000000	na
98.766938	0.050628	114.000000	nontarget	7.000000	na
98.817567	0.050131	114.000000	nontarget	8.000000	na
98.867697	0.050111	114.000000	nontarget	9.000000	na
98.917809	0.049748	114.000000	nontarget	10.000000	98.929068
98.967557	0.049448	114.000000	nontarget	11.000000	na
99.017006	0.050251	114.000000	nontarget	12.000000	na
99.067256	0.049979	114.000000	nontarget	13.000000	na
99.117235	0.049811	114.000000	nontarget	14.000000	na
99.167046	0.050732	114.000000	nontarget	15.000000	na
99.217778	0.049758	114.000000	nontarget	16.000000	na
99.267536	0.049938	115.000000	nontarget	1.000000	na
99.317474	0.049965	115.000000	nontarget	2.000000	na
99.367439	0.049975	115.000000	nontarget	3.000000	na
99.417415	0.050414	115.000000	nontarget	4.000000	na
99.467829	0.049690	115.000000	nontarget	5.000000	na
99.517519	0.049419	115.000000	nontarget	6.000000	na
99.566938	0.050586	115.000000	nontarget	7.000000	na
99.617524	0.050216	115.000000	nontarget	8.000000	na
99.667740	0.049707	115.000000	nontarget	9.000000	na
99.717447	0.050108	115.000000	nontarget	10.000000	na
99.767555	0.049923	115.000000	nontarget	11.000000	na
99.817479	0.050034	115.000000	nontarget	12.000000	na
99.867513	0.049491	115.000000	nontarget	13.000000	na
99.917004	0.049667	115.000000	nontarget	14.000000	na
99.966671	0.050486	115.000000	nontarget	15.000000	99.973244
100.017157	0.050507	115.000000	nontarget	16.000000	na
100.067664	0.048954	116.000000	nontarget	1.000000	100.074385
100.116618	0.050853	116.000000	nontarget	2.000000	na
100.167470	0.049241	116.000000	nontarget	3.000000	na
100.216711	0.050887	116.000000	nontarget	4.000000	na
100.267599	0.049859	116.000000	nontarget	5.000000	na
100.317458	0.049981	116.000000	nontarget	6.000000	na
100.367439	0.050261	116.000000	nontarget	7.000000	na
100.417700	0.049495	116.000000	nontarget	8.000000	na
100.467195	0.050145	116.000000	nontarget	9.000000	na
100.517340	0.050326	116.000000	nontarget	10.000000	na
100.567666	0.049894	116.000000	nontarget	11.000000	na
100.617560	0.049293	116.000000	nontarget	12.000000	na
100.666853	0.050812	116.000000	nontarget	13.000000	na
100.717665	0.049866	116.000000	nontarget	14.000000	na
100.767531	0.049963	116.000000	nontarget	15.000000	na
100.817494	0.049515	116.000000	nontarget	16.000000	na
100.867009	0.050143	117.000000	nontarget	1.000000	100.893695
100.917152	0.050522	117.000000	nontarget	2.000000	na
100.967675	0.048850	117.000000	nontarget	3.000000	na
101.016525	0.050981	117.000000	nontarget	4.000000	na
101.067506	0.049630	117.000000	nontarget	5.000000	na
101.117136	0.049987	117.000000	nontarget	6.000000	na
101.167123	0.050335	117.000000	nontarget	7.000000	na
101.217459	0.049963	117.000000	nontarget	8.000000	na
101.267421	0.050057	117.000000	nontarget	9.000000	na
101.317479	0.050085	117.000000	nontarget	10.000000	na
101.367563	0.049887	117.000000	nontarget	11.000000	na
101.417450	0.049497	117.000000	nontarget	12.000000	na
101.466947	0.050573	117.000000	nontarget	13.000000	na
101.517520	0.050133	117.000000	nontarget	14.000000	na
101.567653	0.049836	117.000000	nontarget	15.000000	na
101.617489	0.050025	117.000000	nontarget	16.000000	na
101.667514	0.049998	118.000000	nontarget	1.000000	na
101.717512	0.049951	118.000000	nontarget	2.000000	na
101.767463	0.050365	118.000000	nontarget	3.000000	na
101.817827	0.049859	118.000000	nontarget	4.000000	101.845612
101.867687	0.049763	118.000000	nontarget	5.000000	na
101.917449	0.049555	118.000000	nontarget	6.000000	na
101.967004	0.050266	118.000000	nontarget	7.000000	na
102.017270	0.050404	118.000000	nontarget	8.000000	na
102.067675	0.049879	118.000000	nontarget	9.000000	na
102.117553	0.049967	118.000000	nontarget	10.000000	na
102.167520	0.050385	118.000000	nontarget	11.000000	na
102.217906	0.049624	118.000000	nontarget	12.000000	na
102.267529	0.049913	118.000000	nontarget	13.000000	na
102.317442	0.050020	118.000000	nontarget	14.000000	na
102.367462	0.050530	118.000000	nontarget	15.000000	na
102.417992	0.049396	118.000000	nontarget	16.000000	na
102.467388	0.050301	119.000000	nontarget	1.000000	na
102.517690	0.049824	119.000000	nontarget	2.000000	na
102.567514	0.050457	119.000000	nontarget	3.000000	na
102.617971	0.049309	119.000000	nontarget	4.000000	na
102.667280	0.050260	119.000000	nontarget	5.000000	na
102.717540	0.049917	119.000000	nontarget	6.000000	na
102.767457	0.049539	119.000000	nontarget	7.000000	na
102.816997	0.050014	119.000000	nontarget	8.000000	na
102.867010	0.050670	119.000000	nontarget	9.000000	102.873489
102.917680	0.049826	119.000000	nontarget	10.000000	na
102.967506	0.049299	119.000000	nontarget	11.000000	na
103.016805	0.049969	119.000000	nontarget	12.000000	na
103.066774	0.050707	119.000000	nontarget	13.000000	na
103.117481	0.050044	119.000000	nontarget	14.000000	na
103.167525	0.050401	119.000000	nontarget	15.000000	na
103.217926	0.049596	119.000000	nontarget	16.000000	na
103.267522	0.050239	120.000000	nontarget	1.000000	na
103.317760	0.049208	120.000000	nontarget	2.000000	na
103.366969	0.050555	120.000000	nontarget	3.000000	na
103.417523	0.050006	120.000000	nontarget	4.000000	na
103.467529	0.050202	120.000000	nontarget	5.000000	na
103.517731	0.049238	120.000000	nontarget	6.000000	na
103.566969	0.050084	120.000000	nontarget	7.000000	na
103.617053	0.049883	120.000000	nontarget	8.000000	na
103.666936	0.050690	120.000000	nontarget	9.000000	na
103.717626	0.050060	120.000000	nontarget	10.000000	na
103.767686	0.050173	120.000000	nontarget	11.000000	na
103.817859	0.049751	120.000000	nontarget	12.000000	na
103.867610	0.049827	120.000000	nontarget	13.000000	na
103.917437	0.049804	120.000000	nontarget	14.000000	na
103.967241	0.049935	120.000000	nontarget	15.000000	na
104.017175	0.049900	120.000000	nontarget	16.000000	na
104.067075	0.050238	121.000000	target	1.000000	na
104.117313	0.050581	121.000000	target	2.000000	na
104.167894	0.049989	121.000000	target	3.000000	na
104.217883	0.049898	121.000000	target	4.000000	na
104.267781	0.049308	121.000000	target	5.000000	na
104.317089	0.050306	121.000000	target	6.000000	na
104.367396	0.050125	121.000000	target	7.000000	na
104.417521	0.050098	121.000000	target	8.000000	na
104.467619	0.049933	121.000000	target	9.000000	na
104.517552	0.049475	121.000000	target	10.000000	na
104.567027	0.050179	121.000000	target	11.000000	na
