onset	duration	trial_number	trial_type	frame_number	time_of_response
8.066318	0.049221	1.000000	target	1.000000	na
8.115540	0.050416	1.000000	target	2.000000	na
8.165956	0.049850	1.000000	target	3.000000	na
8.215806	0.050444	1.000000	target	4.000000	na
8.266250	0.050344	1.000000	target	5.000000	na
8.316595	0.049296	1.000000	target	6.000000	na
8.365891	0.050580	1.000000	target	7.000000	na
8.416471	0.049832	1.000000	target	8.000000	na
8.466304	0.049664	1.000000	target	9.000000	na
8.515967	0.049817	1.000000	target	10.000000	na
8.565784	0.050537	1.000000	target	11.000000	8.572283
8.616321	0.050071	1.000000	target	12.000000	na
8.666392	0.049933	1.000000	target	13.000000	na
8.716325	0.049887	1.000000	target	14.000000	na
8.766212	0.049415	1.000000	target	15.000000	na
8.815627	0.050696	1.000000	target	16.000000	na
8.866322	0.049394	2.000000	nontarget	1.000000	na
8.915716	0.050664	2.000000	nontarget	2.000000	na
8.966380	0.050058	2.000000	nontarget	3.000000	na
9.016437	0.049934	2.000000	nontarget	4.000000	na
9.066372	0.049948	2.000000	nontarget	5.000000	na
9.116319	0.049690	2.000000	nontarget	6.000000	na
9.166010	0.050422	2.000000	nontarget	7.000000	na
9.216432	0.049119	2.000000	nontarget	8.000000	na
9.265552	0.050363	2.000000	nontarget	9.000000	9.272477
9.315914	0.050272	2.000000	nontarget	10.000000	na
9.366186	0.050318	2.000000	nontarget	11.000000	na
9.416504	0.049644	2.000000	nontarget	12.000000	na
9.466149	0.050168	2.000000	nontarget	13.000000	na
9.516317	0.050034	2.000000	nontarget	14.000000	na
9.566351	0.049262	2.000000	nontarget	15.000000	na
9.615613	0.050669	2.000000	nontarget	16.000000	na
9.666282	0.050297	3.000000	target	1.000000	na
9.716579	0.049991	3.000000	target	2.000000	na
9.766570	0.049929	3.000000	target	3.000000	na
9.816499	0.049790	3.000000	target	4.000000	na
9.866289	0.049919	3.000000	target	5.000000	na
9.916208	0.050286	3.000000	target	6.000000	na
9.966494	0.049300	3.000000	target	7.000000	na
10.015794	0.050047	3.000000	target	8.000000	na
10.065840	0.050611	3.000000	target	9.000000	na
10.116451	0.050068	3.000000	target	10.000000	na
10.166520	0.049761	3.000000	target	11.000000	na
10.216280	0.049847	3.000000	target	12.000000	na
10.266127	0.049519	3.000000	target	13.000000	10.298417
10.315647	0.050497	3.000000	target	14.000000	na
10.366143	0.050081	3.000000	target	15.000000	na
10.416224	0.049892	3.000000	target	16.000000	na
10.466116	0.050258	4.000000	nontarget	1.000000	na
10.516375	0.049272	4.000000	nontarget	2.000000	na
10.565647	0.049998	4.000000	nontarget	3.000000	na
10.615645	0.050643	4.000000	nontarget	4.000000	na
10.666288	0.050007	4.000000	nontarget	5.000000	na
10.716295	0.049985	4.000000	nontarget	6.000000	na
10.766279	0.049570	4.000000	nontarget	7.000000	na
10.815849	0.049777	4.000000	nontarget	8.000000	na
10.865626	0.050799	4.000000	nontarget	9.000000	na
10.916425	0.049462	4.000000	nontarget	10.000000	na
10.965887	0.050260	4.000000	nontarget	11.000000	na
11.016147	0.049985	4.000000	nontarget	12.000000	na
11.066132	0.049610	4.000000	nontarget	13.000000	na
11.115743	0.050086	4.000000	nontarget	14.000000	11.136320
11.165828	0.050106	4.000000	nontarget	15.000000	na
11.215934	0.050538	4.000000	nontarget	16.000000	na
11.266472	0.049809	5.000000	nontarget	1.000000	11.273434
11.316280	0.050099	5.000000	nontarget	2.000000	na
11.366379	0.049906	5.000000	nontarget	3.000000	na
11.416285	0.049975	5.000000	nontarget	4.000000	na
11.466259	0.050056	5.000000	nontarget	5.000000	na
11.516315	0.049968	5.000000	nontarget	6.000000	na
11.566284	0.049935	5.000000	nontarget	7.000000	na
11.616219	0.049725	5.000000	nontarget	8.000000	na
11.665944	0.049739	5.000000	nontarget	9.000000	na
11.715683	0.050526	5.000000	nontarget	10.000000	na
11.766209	0.050206	5.000000	nontarget	11.000000	na
11.816415	0.049845	5.000000	nontarget	12.000000	na
11.866261	0.049159	5.000000	nontarget	13.000000	na
11.915419	0.050771	5.000000	nontarget	14.000000	na
11.966190	0.049589	5.000000	nontarget	15.000000	na
12.015779	0.050025	5.000000	nontarget	16.000000	na
12.065804	0.050473	6.000000	nontarget	1.000000	na
12.116277	0.049982	6.000000	nontarget	2.000000	12.123180
12.166259	0.050017	6.000000	nontarget	3.000000	na
12.216276	0.049021	6.000000	nontarget	4.000000	na
12.265297	0.050980	6.000000	nontarget	5.000000	na
12.316277	0.049919	6.000000	nontarget	6.000000	na
12.366196	0.050056	6.000000	nontarget	7.000000	na
12.416252	0.049048	6.000000	nontarget	8.000000	na
12.465300	0.050988	6.000000	nontarget	9.000000	na
12.516288	0.049756	6.000000	nontarget	10.000000	na
12.566044	0.050438	6.000000	nontarget	11.000000	na
12.616482	0.049426	6.000000	nontarget	12.000000	na
12.665908	0.049673	6.000000	nontarget	13.000000	na
12.715582	0.049922	6.000000	nontarget	14.000000	na
12.765503	0.050538	6.000000	nontarget	15.000000	na
12.816041	0.049750	6.000000	nontarget	16.000000	12.843382
12.865791	0.050462	7.000000	nontarget	1.000000	12.872529
12.916253	0.049996	7.000000	nontarget	2.000000	na
12.966249	0.049814	7.000000	nontarget	3.000000	na
13.016063	0.050181	7.000000	nontarget	4.000000	na
13.066244	0.049889	7.000000	nontarget	5.000000	na
13.116133	0.050158	7.000000	nontarget	6.000000	na
13.166291	0.050046	7.000000	nontarget	7.000000	na
13.216337	0.049902	7.000000	nontarget	8.000000	na
13.266239	0.050165	7.000000	nontarget	9.000000	na
13.316404	0.049619	7.000000	nontarget	10.000000	na
13.366024	0.049438	7.000000	nontarget	11.000000	na
13.415461	0.050798	7.000000	nontarget	12.000000	na
13.466259	0.050169	7.000000	nontarget	13.000000	na
13.516428	0.049603	7.000000	nontarget	14.000000	na
13.566031	0.049946	7.000000	nontarget	15.000000	13.579162
13.615977	0.050073	7.000000	nontarget	16.000000	na
13.666050	0.049682	8.000000	nontarget	1.000000	13.672735
13.715733	0.050693	8.000000	nontarget	2.000000	na
13.766426	0.049883	8.000000	nontarget	3.000000	na
13.816309	0.048946	8.000000	nontarget	4.000000	na
13.865255	0.050441	8.000000	nontarget	5.000000	na
13.915696	0.050468	8.000000	nontarget	6.000000	na
13.966164	0.050036	8.000000	nontarget	7.000000	na
14.016200	0.049444	8.000000	nontarget	8.000000	na
14.065644	0.050345	8.000000	nontarget	9.000000	na
14.115989	0.049708	8.000000	nontarget	10.000000	na
14.165697	0.050549	8.000000	nontarget	11.000000	na
14.216247	0.049983	8.000000	nontarget	12.000000	na
14.266229	0.049565	8.000000	nontarget	13.000000	na
14.315795	0.049733	8.000000	nontarget	14.000000	na
14.365528	0.050687	8.000000	nontarget	15.000000	na
14.416215	0.049306	8.000000	nontarget	16.000000	na
14.465521	0.050027	9.000000	nontarget	1.000000	14.477016
14.515548	0.050466	9.000000	nontarget	2.000000	na
14.566014	0.049374	9.000000	nontarget	3.000000	na
14.615388	0.050825	9.000000	nontarget	4.000000	na
14.666213	0.049583	9.000000	nontarget	5.000000	na
14.715795	0.050259	9.000000	nontarget	6.000000	na
14.766055	0.050179	9.000000	nontarget	7.000000	na
14.816234	0.049919	9.000000	nontarget	8.000000	na
14.866153	0.049764	9.000000	nontarget	9.000000	na
14.915917	0.049921	9.000000	nontarget	10.000000	na
14.965839	0.049979	9.000000	nontarget	11.000000	na
15.015818	0.050399	9.000000	nontarget	12.000000	na
15.066217	0.050005	9.000000	nontarget	13.000000	na
15.116222	0.049958	9.000000	nontarget	14.000000	na
15.166180	0.050070	9.000000	nontarget	15.000000	15.172768
15.216250	0.049520	9.000000	nontarget	16.000000	na
15.265770	0.049770	10.000000	nontarget	1.000000	15.272490
15.315540	0.050169	10.000000	nontarget	2.000000	na
15.365709	0.050521	10.000000	nontarget	3.000000	na
15.416229	0.049897	10.000000	nontarget	4.000000	na
15.466126	0.049536	10.000000	nontarget	5.000000	na
15.515662	0.050353	10.000000	nontarget	6.000000	na
15.566015	0.049992	10.000000	nontarget	7.000000	na
15.616007	0.049978	10.000000	nontarget	8.000000	na
15.665985	0.049761	10.000000	nontarget	9.000000	na
15.715746	0.050416	10.000000	nontarget	10.000000	na
15.766161	0.050056	10.000000	nontarget	11.000000	na
15.816217	0.049966	10.000000	nontarget	12.000000	na
15.866183	0.050073	10.000000	nontarget	13.000000	na
15.916256	0.048877	10.000000	nontarget	14.000000	na
15.965132	0.050487	10.000000	nontarget	15.000000	15.971008
16.015619	0.050779	10.000000	nontarget	16.000000	na
16.066398	0.049655	11.000000	nontarget	1.000000	16.073083
16.116053	0.049352	11.000000	nontarget	2.000000	na
16.165405	0.050240	11.000000	nontarget	3.000000	na
16.215645	0.050561	11.000000	nontarget	4.000000	na
16.266206	0.049692	11.000000	nontarget	5.000000	na
16.315897	0.049957	11.000000	nontarget	6.000000	na
16.365855	0.050307	11.000000	nontarget	7.000000	na
16.416162	0.049808	11.000000	nontarget	8.000000	na
16.465970	0.049585	11.000000	nontarget	9.000000	na
16.515555	0.050661	11.000000	nontarget	10.000000	na
16.566216	0.049971	11.000000	nontarget	11.000000	na
16.616186	0.050119	11.000000	nontarget	12.000000	na
16.666305	0.049949	11.000000	nontarget	13.000000	na
16.716255	0.049264	11.000000	nontarget	14.000000	16.723024
16.765519	0.050716	11.000000	nontarget	15.000000	na
16.816235	0.049106	11.000000	nontarget	16.000000	na
16.865341	0.049973	12.000000	nontarget	1.000000	na
16.915313	0.050108	12.000000	nontarget	2.000000	na
16.965421	0.050180	12.000000	nontarget	3.000000	na
17.015601	0.050025	12.000000	nontarget	4.000000	na
17.065626	0.050365	12.000000	nontarget	5.000000	na
17.115991	0.050398	12.000000	nontarget	6.000000	na
17.166389	0.049881	12.000000	nontarget	7.000000	na
17.216269	0.050012	12.000000	nontarget	8.000000	na
17.266281	0.060162	12.000000	nontarget	9.000000	na
17.326444	0.042170	12.000000	nontarget	10.000000	na
17.368614	0.047572	12.000000	nontarget	11.000000	na
17.416186	0.049963	12.000000	nontarget	12.000000	na
17.466149	0.049679	12.000000	nontarget	13.000000	na
17.515828	0.050348	12.000000	nontarget	14.000000	17.522070
17.566175	0.049976	12.000000	nontarget	15.000000	na
17.616152	0.049739	12.000000	nontarget	16.000000	na
17.665891	0.049201	13.000000	nontarget	1.000000	na
17.715092	0.051264	13.000000	nontarget	2.000000	na
17.766356	0.049780	13.000000	nontarget	3.000000	na
17.816136	0.049711	13.000000	nontarget	4.000000	na
17.865847	0.049583	13.000000	nontarget	5.000000	na
17.915430	0.050695	13.000000	nontarget	6.000000	na
17.966125	0.049806	13.000000	nontarget	7.000000	na
18.015930	0.050221	13.000000	nontarget	8.000000	na
18.066151	0.049461	13.000000	nontarget	9.000000	na
18.115613	0.050559	13.000000	nontarget	10.000000	na
18.166172	0.050006	13.000000	nontarget	11.000000	na
18.216178	0.049974	13.000000	nontarget	12.000000	na
18.266152	0.049816	13.000000	nontarget	13.000000	na
18.315968	0.050002	13.000000	nontarget	14.000000	na
18.365970	0.050181	13.000000	nontarget	15.000000	na
18.416151	0.049188	13.000000	nontarget	16.000000	na
18.465339	0.049830	14.000000	nontarget	1.000000	18.501414
18.515169	0.050999	14.000000	nontarget	2.000000	na
18.566168	0.050153	14.000000	nontarget	3.000000	na
18.616321	0.049974	14.000000	nontarget	4.000000	na
18.666294	0.049856	14.000000	nontarget	5.000000	na
18.716151	0.049868	14.000000	nontarget	6.000000	na
18.766018	0.050000	14.000000	nontarget	7.000000	na
18.816019	0.049335	14.000000	nontarget	8.000000	na
18.865353	0.049843	14.000000	nontarget	9.000000	na
18.915196	0.050483	14.000000	nontarget	10.000000	na
18.965678	0.049633	14.000000	nontarget	11.000000	na
19.015311	0.050821	14.000000	nontarget	12.000000	na
19.066132	0.050220	14.000000	nontarget	13.000000	na
19.116352	0.049475	14.000000	nontarget	14.000000	na
19.165828	0.049756	14.000000	nontarget	15.000000	na
19.215583	0.050555	14.000000	nontarget	16.000000	na
19.266138	0.049085	15.000000	nontarget	1.000000	na
19.315223	0.051146	15.000000	nontarget	2.000000	19.321918
19.366369	0.049757	15.000000	nontarget	3.000000	na
19.416126	0.049336	15.000000	nontarget	4.000000	na
19.465462	0.050375	15.000000	nontarget	5.000000	na
19.515837	0.049923	15.000000	nontarget	6.000000	na
19.565759	0.049734	15.000000	nontarget	7.000000	na
19.615493	0.050470	15.000000	nontarget	8.000000	na
19.665964	0.050364	15.000000	nontarget	9.000000	na
19.716328	0.049793	15.000000	nontarget	10.000000	na
19.766120	0.050017	15.000000	nontarget	11.000000	na
19.816138	0.049760	15.000000	nontarget	12.000000	na
19.865898	0.050283	15.000000	nontarget	13.000000	na
19.916181	0.049987	15.000000	nontarget	14.000000	na
19.966168	0.049606	15.000000	nontarget	15.000000	na
20.015774	0.049786	15.000000	nontarget	16.000000	20.022604
20.065560	0.050606	16.000000	nontarget	1.000000	20.072230
20.116166	0.050093	16.000000	nontarget	2.000000	na
20.166259	0.050029	16.000000	nontarget	3.000000	na
20.216288	0.049751	16.000000	nontarget	4.000000	na
20.266040	0.050094	16.000000	nontarget	5.000000	na
20.316134	0.050030	16.000000	nontarget	6.000000	na
20.366164	0.049010	16.000000	nontarget	7.000000	na
20.415173	0.050948	16.000000	nontarget	8.000000	na
20.466121	0.049465	16.000000	nontarget	9.000000	na
20.515586	0.050365	16.000000	nontarget	10.000000	na
20.565951	0.049592	16.000000	nontarget	11.000000	na
20.615543	0.050517	16.000000	nontarget	12.000000	na
20.666060	0.049715	16.000000	nontarget	13.000000	na
20.715775	0.049780	16.000000	nontarget	14.000000	na
20.765555	0.050572	16.000000	nontarget	15.000000	na
20.816127	0.049663	16.000000	nontarget	16.000000	na
20.865789	0.050027	17.000000	nontarget	1.000000	20.872604
20.915816	0.050364	17.000000	nontarget	2.000000	na
20.966180	0.049237	17.000000	nontarget	3.000000	na
21.015417	0.049750	17.000000	nontarget	4.000000	na
21.065168	0.051004	17.000000	nontarget	5.000000	na
21.116171	0.050005	17.000000	nontarget	6.000000	na
21.166176	0.050035	17.000000	nontarget	7.000000	na
21.216211	0.050086	17.000000	nontarget	8.000000	na
21.266297	0.049194	17.000000	nontarget	9.000000	na
21.315491	0.050665	17.000000	nontarget	10.000000	na
21.366156	0.049850	17.000000	nontarget	11.000000	na
21.416006	0.049982	17.000000	nontarget	12.000000	na
21.465988	0.050208	17.000000	nontarget	13.000000	na
21.516195	0.049721	17.000000	nontarget	14.000000	na
21.565916	0.050086	17.000000	nontarget	15.000000	na
21.616002	0.050025	17.000000	nontarget	16.000000	21.640601
21.666027	0.050028	18.000000	nontarget	1.000000	21.672750
21.716055	0.049244	18.000000	nontarget	2.000000	na
21.765299	0.050835	18.000000	nontarget	3.000000	na
21.816135	0.049864	18.000000	nontarget	4.000000	na
21.865999	0.049841	18.000000	nontarget	5.000000	na
21.915840	0.049877	18.000000	nontarget	6.000000	na
21.965716	0.050693	18.000000	nontarget	7.000000	na
22.016410	0.049901	18.000000	nontarget	8.000000	na
22.066311	0.049425	18.000000	nontarget	9.000000	na
22.115735	0.050449	18.000000	nontarget	10.000000	na
22.166185	0.049834	18.000000	nontarget	11.000000	na
22.216019	0.050222	18.000000	nontarget	12.000000	na
22.266241	0.049580	18.000000	nontarget	13.000000	na
22.315821	0.050464	18.000000	nontarget	14.000000	na
22.366285	0.049929	18.000000	nontarget	15.000000	na
22.416214	0.049815	18.000000	nontarget	16.000000	na
22.466029	0.050027	19.000000	target	1.000000	na
22.516055	0.049961	19.000000	target	2.000000	na
22.566016	0.050078	19.000000	target	3.000000	na
22.616094	0.050140	19.000000	target	4.000000	na
22.666234	0.050009	19.000000	target	5.000000	na
22.716243	0.049883	19.000000	target	6.000000	na
22.766126	0.049919	19.000000	target	7.000000	na
22.816045	0.050183	19.000000	target	8.000000	na
22.866228	0.050154	19.000000	target	9.000000	na
22.916383	0.049340	19.000000	target	10.000000	na
22.965723	0.049568	19.000000	target	11.000000	na
23.015290	0.050550	19.000000	target	12.000000	na
23.065841	0.050052	19.000000	target	13.000000	na
23.115893	0.049456	19.000000	target	14.000000	na
23.165349	0.050185	19.000000	target	15.000000	23.172084
23.215534	0.050773	19.000000	target	16.000000	na
23.266307	0.049691	20.000000	target	1.000000	23.272956
23.315998	0.050253	20.000000	target	2.000000	na
23.366251	0.049757	20.000000	target	3.000000	na
23.416009	0.049986	20.000000	target	4.000000	na
23.465995	0.050179	20.000000	target	5.000000	na
23.516174	0.049977	20.000000	target	6.000000	na
23.566150	0.049451	20.000000	target	7.000000	na
23.615601	0.050702	20.000000	target	8.000000	na
23.666304	0.050090	20.000000	target	9.000000	na
23.716393	0.049546	20.000000	target	10.000000	na
23.765939	0.050100	20.000000	target	11.000000	na
23.816040	0.050007	20.000000	target	12.000000	na
23.866047	0.049572	20.000000	target	13.000000	na
23.915619	0.050672	20.000000	target	14.000000	na
23.966291	0.049999	20.000000	target	15.000000	na
24.016290	0.049736	20.000000	target	16.000000	na
24.066025	0.049645	21.000000	nontarget	1.000000	na
24.115671	0.049969	21.000000	nontarget	2.000000	na
24.165639	0.050383	21.000000	nontarget	3.000000	na
24.216023	0.050147	21.000000	nontarget	4.000000	na
24.266170	0.049368	21.000000	nontarget	5.000000	24.294340
24.315538	0.050458	21.000000	nontarget	6.000000	na
24.365996	0.049553	21.000000	nontarget	7.000000	na
24.415550	0.050288	21.000000	nontarget	8.000000	na
24.465838	0.050175	21.000000	nontarget	9.000000	na
24.516013	0.050111	21.000000	nontarget	10.000000	na
24.566124	0.049744	21.000000	nontarget	11.000000	na
24.615869	0.049733	21.000000	nontarget	12.000000	na
24.665601	0.050417	21.000000	nontarget	13.000000	na
24.716019	0.050178	21.000000	nontarget	14.000000	na
24.766197	0.049558	21.000000	nontarget	15.000000	na
24.815755	0.049839	21.000000	nontarget	16.000000	na
24.865594	0.050473	22.000000	nontarget	1.000000	na
24.916068	0.050055	22.000000	nontarget	2.000000	na
24.966123	0.050242	22.000000	nontarget	3.000000	na
25.016365	0.049638	22.000000	nontarget	4.000000	na
25.066003	0.049325	22.000000	nontarget	5.000000	na
25.115328	0.050516	22.000000	nontarget	6.000000	na
25.165844	0.050333	22.000000	nontarget	7.000000	na
25.216177	0.049233	22.000000	nontarget	8.000000	na
25.265411	0.050897	22.000000	nontarget	9.000000	na
25.316307	0.050091	22.000000	nontarget	10.000000	na
25.366398	0.049999	22.000000	nontarget	11.000000	25.373019
25.416397	0.049525	22.000000	nontarget	12.000000	na
25.465922	0.050245	22.000000	nontarget	13.000000	na
25.516167	0.050068	22.000000	nontarget	14.000000	na
25.566235	0.049948	22.000000	nontarget	15.000000	na
25.616183	0.049776	22.000000	nontarget	16.000000	na
25.665959	0.049846	23.000000	nontarget	1.000000	na
25.715804	0.050209	23.000000	nontarget	2.000000	na
25.766014	0.049626	23.000000	nontarget	3.000000	na
25.815639	0.049817	23.000000	nontarget	4.000000	na
25.865457	0.050561	23.000000	nontarget	5.000000	na
25.916018	0.049964	23.000000	nontarget	6.000000	na
25.965982	0.050306	23.000000	nontarget	7.000000	na
26.016288	0.049102	23.000000	nontarget	8.000000	na
26.065390	0.050578	23.000000	nontarget	9.000000	na
26.115968	0.049594	23.000000	nontarget	10.000000	na
26.165562	0.049889	23.000000	nontarget	11.000000	na
26.215450	0.050497	23.000000	nontarget	12.000000	na
26.265948	0.049892	23.000000	nontarget	13.000000	na
26.315840	0.050221	23.000000	nontarget	14.000000	na
26.366061	0.049903	23.000000	nontarget	15.000000	na
26.415963	0.049545	23.000000	nontarget	16.000000	26.422765
26.465508	0.050720	24.000000	nontarget	1.000000	26.472211
26.516229	0.049790	24.000000	nontarget	2.000000	na
26.566019	0.049819	24.000000	nontarget	3.000000	na
26.615838	0.049705	24.000000	nontarget	4.000000	na
26.665543	0.050362	24.000000	nontarget	5.000000	na
26.715905	0.049714	24.000000	nontarget	6.000000	na
26.765619	0.050555	24.000000	nontarget	7.000000	na
26.816174	0.049746	24.000000	nontarget	8.000000	na
26.865920	0.050024	24.000000	nontarget	9.000000	na
26.915944	0.049778	24.000000	nontarget	10.000000	na
26.965722	0.049980	24.000000	nontarget	11.000000	na
27.015702	0.050246	24.000000	nontarget	12.000000	na
27.065948	0.049996	24.000000	nontarget	13.000000	na
27.115945	0.049840	24.000000	nontarget	14.000000	na
27.165785	0.050196	24.000000	nontarget	15.000000	na
27.215980	0.050056	24.000000	nontarget	16.000000	na
27.266036	0.049931	25.000000	nontarget	1.000000	na
27.315967	0.049999	25.000000	nontarget	2.000000	na
27.365966	0.049947	25.000000	nontarget	3.000000	na
27.415913	0.050024	25.000000	nontarget	4.000000	na
27.465937	0.049432	25.000000	nontarget	5.000000	27.472195
27.515369	0.050612	25.000000	nontarget	6.000000	na
27.565982	0.050021	25.000000	nontarget	7.000000	na
27.616002	0.049928	25.000000	nontarget	8.000000	na
27.665930	0.049663	25.000000	nontarget	9.000000	na
27.715593	0.050217	25.000000	nontarget	10.000000	na
27.765810	0.050091	25.000000	nontarget	11.000000	na
27.815901	0.049311	25.000000	nontarget	12.000000	na
27.865212	0.050627	25.000000	nontarget	13.000000	na
27.915839	0.050092	25.000000	nontarget	14.000000	na
27.965931	0.049991	25.000000	nontarget	15.000000	na
28.015922	0.049571	25.000000	nontarget	16.000000	na
28.065492	0.050114	26.000000	nontarget	1.000000	na
28.115607	0.050558	26.000000	nontarget	2.000000	na
28.166164	0.050041	26.000000	nontarget	3.000000	na
28.216206	0.049719	26.000000	nontarget	4.000000	na
28.265925	0.049971	26.000000	nontarget	5.000000	na
28.315896	0.050043	26.000000	nontarget	6.000000	na
28.365938	0.049548	26.000000	nontarget	7.000000	na
28.415486	0.050494	26.000000	nontarget	8.000000	na
28.465980	0.050021	26.000000	nontarget	9.000000	na
28.516001	0.049978	26.000000	nontarget	10.000000	na
28.565978	0.049201	26.000000	nontarget	11.000000	na
28.615179	0.049990	26.000000	nontarget	12.000000	28.650209
28.665170	0.050768	26.000000	nontarget	13.000000	na
28.715937	0.049997	26.000000	nontarget	14.000000	na
28.765935	0.049778	26.000000	nontarget	15.000000	na
28.815713	0.049510	26.000000	nontarget	16.000000	na
28.865222	0.050459	27.000000	nontarget	1.000000	na
28.915681	0.049745	27.000000	nontarget	2.000000	na
28.965426	0.049757	27.000000	nontarget	3.000000	na
29.015183	0.050738	27.000000	nontarget	4.000000	na
29.065922	0.049632	27.000000	nontarget	5.000000	na
29.115554	0.049568	27.000000	nontarget	6.000000	na
29.165122	0.050074	27.000000	nontarget	7.000000	na
29.215196	0.050295	27.000000	nontarget	8.000000	na
29.265491	0.050422	27.000000	nontarget	9.000000	na
29.315913	0.049888	27.000000	nontarget	10.000000	na
29.365801	0.050122	27.000000	nontarget	11.000000	na
29.415924	0.049867	27.000000	nontarget	12.000000	na
29.465790	0.050219	27.000000	nontarget	13.000000	na
29.516009	0.049945	27.000000	nontarget	14.000000	na
29.565955	0.049993	27.000000	nontarget	15.000000	na
29.615948	0.049951	27.000000	nontarget	16.000000	na
29.665899	0.050289	28.000000	nontarget	1.000000	na
29.716188	0.049925	28.000000	nontarget	2.000000	29.727648
29.766113	0.049875	28.000000	nontarget	3.000000	na
29.815988	0.049886	28.000000	nontarget	4.000000	na
29.865874	0.049779	28.000000	nontarget	5.000000	na
29.915652	0.050346	28.000000	nontarget	6.000000	na
29.965998	0.049901	28.000000	nontarget	7.000000	na
30.015899	0.050034	28.000000	nontarget	8.000000	na
30.065934	0.049755	28.000000	nontarget	9.000000	na
30.115688	0.050220	28.000000	nontarget	10.000000	na
30.165909	0.049617	28.000000	nontarget	11.000000	na
30.215525	0.050344	28.000000	nontarget	12.000000	na
30.265869	0.049062	28.000000	nontarget	13.000000	na
30.314931	0.051013	28.000000	nontarget	14.000000	na
30.365944	0.049931	28.000000	nontarget	15.000000	na
30.415875	0.050047	28.000000	nontarget	16.000000	na
30.465922	0.050343	29.000000	nontarget	1.000000	na
30.516265	0.049301	29.000000	nontarget	2.000000	na
30.565566	0.049828	29.000000	nontarget	3.000000	na
30.615393	0.049374	29.000000	nontarget	4.000000	na
30.664767	0.050650	29.000000	nontarget	5.000000	30.670498
30.715418	0.050534	29.000000	nontarget	6.000000	na
30.765952	0.049402	29.000000	nontarget	7.000000	na
30.815354	0.049955	29.000000	nontarget	8.000000	na
30.865308	0.050592	29.000000	nontarget	9.000000	na
30.915900	0.050106	29.000000	nontarget	10.000000	na
30.966006	0.049933	29.000000	nontarget	11.000000	na
31.015939	0.049614	29.000000	nontarget	12.000000	na
31.065554	0.050621	29.000000	nontarget	13.000000	na
31.116175	0.049880	29.000000	nontarget	14.000000	na
31.166055	0.049096	29.000000	nontarget	15.000000	na
31.215151	0.050697	29.000000	nontarget	16.000000	na
31.265848	0.049926	30.000000	nontarget	1.000000	na
31.315774	0.050116	30.000000	nontarget	2.000000	na
31.365889	0.049789	30.000000	nontarget	3.000000	na
31.415678	0.050373	30.000000	nontarget	4.000000	na
31.466051	0.048806	30.000000	nontarget	5.000000	na
31.514857	0.051032	30.000000	nontarget	6.000000	31.521509
31.565889	0.050002	30.000000	nontarget	7.000000	na
31.615891	0.050134	30.000000	nontarget	8.000000	na
31.666025	0.049685	30.000000	nontarget	9.000000	na
31.715710	0.050199	30.000000	nontarget	10.000000	na
31.765910	0.049385	30.000000	nontarget	11.000000	na
31.815294	0.050368	30.000000	nontarget	12.000000	na
31.865662	0.049950	30.000000	nontarget	13.000000	na
31.915611	0.049782	30.000000	nontarget	14.000000	na
31.965394	0.050451	30.000000	nontarget	15.000000	na
32.015845	0.049892	30.000000	nontarget	16.000000	na
32.065736	0.050024	31.000000	nontarget	1.000000	na
32.115761	0.050403	31.000000	nontarget	2.000000	na
32.166164	0.049857	31.000000	nontarget	3.000000	na
32.216020	0.049864	31.000000	nontarget	4.000000	na
32.265884	0.050001	31.000000	nontarget	5.000000	na
32.315885	0.050257	31.000000	nontarget	6.000000	na
32.366142	0.049816	31.000000	nontarget	7.000000	na
32.415958	0.049057	31.000000	nontarget	8.000000	32.444080
32.465015	0.050868	31.000000	nontarget	9.000000	na
32.515883	0.049810	31.000000	nontarget	10.000000	na
32.565693	0.049555	31.000000	nontarget	11.000000	na
32.615249	0.050751	31.000000	nontarget	12.000000	na
32.666000	0.049872	31.000000	nontarget	13.000000	na
32.715871	0.049562	31.000000	nontarget	14.000000	na
32.765433	0.050460	31.000000	nontarget	15.000000	na
32.815893	0.049990	31.000000	nontarget	16.000000	na
32.865884	0.049995	32.000000	nontarget	1.000000	na
32.915879	0.050288	32.000000	nontarget	2.000000	na
32.966167	0.049166	32.000000	nontarget	3.000000	na
33.015333	0.050493	32.000000	nontarget	4.000000	na
33.065827	0.050035	32.000000	nontarget	5.000000	na
33.115862	0.049895	32.000000	nontarget	6.000000	na
33.165757	0.050108	32.000000	nontarget	7.000000	33.172573
33.215865	0.050051	32.000000	nontarget	8.000000	na
33.265916	0.049164	32.000000	nontarget	9.000000	na
33.315081	0.050923	32.000000	nontarget	10.000000	na
33.366003	0.049185	32.000000	nontarget	11.000000	na
33.415188	0.050601	32.000000	nontarget	12.000000	na
33.465789	0.049361	32.000000	nontarget	13.000000	na
33.515150	0.050527	32.000000	nontarget	14.000000	na
33.565677	0.049720	32.000000	nontarget	15.000000	na
33.615396	0.050460	32.000000	nontarget	16.000000	na
33.665856	0.050042	33.000000	nontarget	1.000000	na
33.715897	0.050035	33.000000	nontarget	2.000000	na
33.765932	0.049618	33.000000	nontarget	3.000000	na
33.815550	0.049912	33.000000	nontarget	4.000000	na
33.865462	0.050404	33.000000	nontarget	5.000000	na
33.915866	0.048864	33.000000	nontarget	6.000000	na
33.964730	0.050616	33.000000	nontarget	7.000000	na
34.015346	0.050557	33.000000	nontarget	8.000000	na
34.065903	0.049662	33.000000	nontarget	9.000000	na
34.115565	0.050375	33.000000	nontarget	10.000000	34.122208
34.165940	0.049910	33.000000	nontarget	11.000000	na
34.215850	0.050292	33.000000	nontarget	12.000000	na
34.266142	0.049792	33.000000	nontarget	13.000000	na
34.315934	0.049731	33.000000	nontarget	14.000000	na
34.365665	0.049923	33.000000	nontarget	15.000000	na
34.415588	0.049264	33.000000	nontarget	16.000000	na
34.464852	0.050918	34.000000	nontarget	1.000000	na
34.515770	0.050193	34.000000	nontarget	2.000000	na
34.565963	0.049766	34.000000	nontarget	3.000000	na
34.615729	0.050116	34.000000	nontarget	4.000000	na
34.665844	0.050026	34.000000	nontarget	5.000000	na
34.715871	0.049674	34.000000	nontarget	6.000000	na
34.765544	0.050529	34.000000	nontarget	7.000000	na
34.816073	0.049938	34.000000	nontarget	8.000000	na
34.866011	0.049929	34.000000	nontarget	9.000000	na
34.915940	0.050189	34.000000	nontarget	10.000000	na
34.966129	0.048717	34.000000	nontarget	11.000000	na
35.014846	0.050988	34.000000	nontarget	12.000000	na
35.065834	0.050005	34.000000	nontarget	13.000000	na
35.115839	0.050097	34.000000	nontarget	14.000000	na
35.165935	0.049944	34.000000	nontarget	15.000000	35.193315
35.215879	0.049632	34.000000	nontarget	16.000000	na
35.265511	0.049748	35.000000	nontarget	1.000000	35.272198
35.315258	0.050867	35.000000	nontarget	2.000000	na
35.366125	0.049352	35.000000	nontarget	3.000000	na
35.415478	0.050567	35.000000	nontarget	4.000000	na
35.466045	0.049116	35.000000	nontarget	5.000000	na
35.515161	0.050107	35.000000	nontarget	6.000000	na
35.565269	0.050302	35.000000	nontarget	7.000000	na
35.615571	0.050060	35.000000	nontarget	8.000000	na
35.665631	0.050292	35.000000	nontarget	9.000000	na
35.715924	0.049635	35.000000	nontarget	10.000000	na
35.765559	0.050268	35.000000	nontarget	11.000000	na
35.815827	0.049920	35.000000	nontarget	12.000000	na
35.865747	0.050079	35.000000	nontarget	13.000000	na
35.915826	0.049978	35.000000	nontarget	14.000000	na
35.965805	0.049919	35.000000	nontarget	15.000000	na
36.015723	0.050080	35.000000	nontarget	16.000000	na
36.065803	0.049542	36.000000	nontarget	1.000000	36.094395
36.115345	0.050572	36.000000	nontarget	2.000000	na
36.165917	0.049807	36.000000	nontarget	3.000000	na
36.215724	0.049448	36.000000	nontarget	4.000000	na
36.265172	0.050663	36.000000	nontarget	5.000000	na
36.315835	0.050040	36.000000	nontarget	6.000000	na
36.365874	0.049439	36.000000	nontarget	7.000000	na
36.415313	0.050582	36.000000	nontarget	8.000000	na
36.465894	0.049489	36.000000	nontarget	9.000000	na
36.515383	0.050512	36.000000	nontarget	10.000000	na
36.565895	0.050085	36.000000	nontarget	11.000000	na
36.615980	0.049795	36.000000	nontarget	12.000000	na
36.665775	0.050022	36.000000	nontarget	13.000000	na
36.715797	0.049911	36.000000	nontarget	14.000000	na
36.765708	0.050130	36.000000	nontarget	15.000000	na
36.815838	0.050375	36.000000	nontarget	16.000000	na
36.866213	0.049668	37.000000	nontarget	1.000000	na
36.915881	0.050241	37.000000	nontarget	2.000000	na
36.966122	0.049445	37.000000	nontarget	3.000000	na
37.015567	0.050591	37.000000	nontarget	4.000000	na
37.066158	0.049999	37.000000	nontarget	5.000000	na
37.116157	0.049207	37.000000	nontarget	6.000000	na
37.165364	0.050473	37.000000	nontarget	7.000000	37.172039
37.215837	0.049970	37.000000	nontarget	8.000000	na
37.265807	0.050182	37.000000	nontarget	9.000000	na
37.315989	0.049858	37.000000	nontarget	10.000000	na
37.365848	0.049287	37.000000	nontarget	11.000000	na
37.415134	0.050742	37.000000	nontarget	12.000000	na
37.465876	0.050264	37.000000	nontarget	13.000000	na
37.516140	0.049747	37.000000	nontarget	14.000000	na
37.565886	0.049914	37.000000	nontarget	15.000000	na
37.615800	0.050266	37.000000	nontarget	16.000000	na
37.666066	0.049134	38.000000	nontarget	1.000000	na
37.715201	0.050539	38.000000	nontarget	2.000000	na
37.765740	0.050067	38.000000	nontarget	3.000000	na
37.815806	0.049994	38.000000	nontarget	4.000000	na
37.865800	0.049991	38.000000	nontarget	5.000000	na
37.915791	0.050508	38.000000	nontarget	6.000000	na
37.966300	0.049244	38.000000	nontarget	7.000000	na
38.015544	0.050248	38.000000	nontarget	8.000000	na
38.065792	0.050004	38.000000	nontarget	9.000000	na
38.115796	0.049705	38.000000	nontarget	10.000000	na
38.165501	0.050722	38.000000	nontarget	11.000000	38.171898
38.216223	0.049000	38.000000	nontarget	12.000000	na
38.265223	0.050575	38.000000	nontarget	13.000000	na
38.315798	0.050196	38.000000	nontarget	14.000000	na
38.365994	0.049521	38.000000	nontarget	15.000000	na
38.415515	0.050200	38.000000	nontarget	16.000000	na
38.465715	0.049780	39.000000	nontarget	1.000000	na
38.515495	0.050441	39.000000	nontarget	2.000000	na
38.565936	0.049540	39.000000	nontarget	3.000000	na
38.615476	0.049617	39.000000	nontarget	4.000000	na
38.665093	0.050941	39.000000	nontarget	5.000000	na
38.716034	0.049605	39.000000	nontarget	6.000000	na
38.765639	0.050584	39.000000	nontarget	7.000000	na
38.816224	0.049685	39.000000	nontarget	8.000000	na
38.865909	0.049932	39.000000	nontarget	9.000000	na
38.915841	0.049949	39.000000	nontarget	10.000000	na
38.965790	0.049703	39.000000	nontarget	11.000000	na
39.015493	0.050438	39.000000	nontarget	12.000000	na
39.065931	0.049883	39.000000	nontarget	13.000000	na
39.115813	0.050231	39.000000	nontarget	14.000000	na
39.166044	0.049720	39.000000	nontarget	15.000000	na
39.215765	0.050073	39.000000	nontarget	16.000000	na
39.265838	0.049790	40.000000	nontarget	1.000000	39.281745
39.315627	0.050407	40.000000	nontarget	2.000000	na
39.366034	0.049931	40.000000	nontarget	3.000000	na
39.415965	0.049691	40.000000	nontarget	4.000000	na
39.465656	0.050055	40.000000	nontarget	5.000000	na
39.515711	0.050358	40.000000	nontarget	6.000000	na
39.566069	0.049856	40.000000	nontarget	7.000000	na
39.615925	0.049805	40.000000	nontarget	8.000000	na
39.665730	0.049421	40.000000	nontarget	9.000000	na
39.715151	0.050562	40.000000	nontarget	10.000000	na
39.765713	0.050055	40.000000	nontarget	11.000000	na
39.815768	0.050226	40.000000	nontarget	12.000000	na
39.865994	0.049888	40.000000	nontarget	13.000000	na
39.915881	0.049278	40.000000	nontarget	14.000000	na
39.965159	0.050608	40.000000	nontarget	15.000000	na
40.015767	0.050010	40.000000	nontarget	16.000000	na
40.065777	0.050408	41.000000	nontarget	1.000000	na
40.116185	0.049596	41.000000	nontarget	2.000000	na
40.165781	0.050168	41.000000	nontarget	3.000000	na
40.215949	0.049809	41.000000	nontarget	4.000000	na
40.265758	0.049910	41.000000	nontarget	5.000000	na
40.315668	0.050298	41.000000	nontarget	6.000000	40.324705
40.365966	0.050215	41.000000	nontarget	7.000000	na
40.416181	0.049575	41.000000	nontarget	8.000000	na
40.465755	0.049653	41.000000	nontarget	9.000000	na
40.515408	0.050532	41.000000	nontarget	10.000000	na
40.565940	0.049811	41.000000	nontarget	11.000000	na
40.615751	0.050295	41.000000	nontarget	12.000000	na
40.666047	0.049790	41.000000	nontarget	13.000000	na
40.715836	0.050116	41.000000	nontarget	14.000000	na
40.765953	0.049770	41.000000	nontarget	15.000000	na
40.815723	0.049651	41.000000	nontarget	16.000000	na
40.865374	0.050481	42.000000	nontarget	1.000000	na
40.915855	0.049642	42.000000	nontarget	2.000000	na
40.965497	0.050362	42.000000	nontarget	3.000000	na
41.015859	0.049976	42.000000	nontarget	4.000000	na
41.065836	0.049813	42.000000	nontarget	5.000000	na
41.115649	0.049657	42.000000	nontarget	6.000000	na
41.165306	0.050298	42.000000	nontarget	7.000000	na
41.215604	0.050381	42.000000	nontarget	8.000000	na
41.265985	0.049790	42.000000	nontarget	9.000000	na
41.315774	0.049746	42.000000	nontarget	10.000000	na
41.365520	0.050400	42.000000	nontarget	11.000000	41.382322
41.415920	0.049595	42.000000	nontarget	12.000000	na
41.465515	0.049431	42.000000	nontarget	13.000000	na
41.514946	0.050929	42.000000	nontarget	14.000000	na
41.565875	0.049842	42.000000	nontarget	15.000000	na
41.615717	0.050023	42.000000	nontarget	16.000000	na
41.665740	0.050003	43.000000	nontarget	1.000000	na
41.715744	0.050231	43.000000	nontarget	2.000000	na
41.765974	0.049671	43.000000	nontarget	3.000000	na
41.815645	0.049361	43.000000	nontarget	4.000000	na
41.865006	0.050758	43.000000	nontarget	5.000000	na
41.915763	0.049973	43.000000	nontarget	6.000000	na
41.965737	0.049259	43.000000	nontarget	7.000000	na
42.014996	0.050800	43.000000	nontarget	8.000000	na
42.065795	0.049948	43.000000	nontarget	9.000000	na
42.115743	0.050069	43.000000	nontarget	10.000000	na
42.165813	0.050087	43.000000	nontarget	11.000000	na
42.215900	0.049007	43.000000	nontarget	12.000000	na
42.264906	0.050081	43.000000	nontarget	13.000000	na
42.314987	0.050633	43.000000	nontarget	14.000000	na
42.365620	0.050128	43.000000	nontarget	15.000000	na
42.415748	0.050014	43.000000	nontarget	16.000000	na
42.465761	0.049702	44.000000	nontarget	1.000000	na
42.515464	0.050298	44.000000	nontarget	2.000000	na
42.565762	0.049712	44.000000	nontarget	3.000000	na
42.615473	0.050253	44.000000	nontarget	4.000000	42.622110
42.665727	0.049670	44.000000	nontarget	5.000000	na
42.715397	0.050393	44.000000	nontarget	6.000000	na
42.765790	0.049284	44.000000	nontarget	7.000000	na
42.815074	0.050476	44.000000	nontarget	8.000000	na
42.865551	0.049466	44.000000	nontarget	9.000000	na
42.915017	0.050714	44.000000	nontarget	10.000000	na
42.965731	0.049858	44.000000	nontarget	11.000000	na
43.015589	0.049594	44.000000	nontarget	12.000000	na
43.065184	0.050549	44.000000	nontarget	13.000000	na
43.115733	0.049341	44.000000	nontarget	14.000000	na
43.165074	0.050521	44.000000	nontarget	15.000000	na
43.215596	0.050034	44.000000	nontarget	16.000000	na
43.265629	0.049355	45.000000	nontarget	1.000000	na
43.314985	0.050765	45.000000	nontarget	2.000000	na
43.365750	0.049669	45.000000	nontarget	3.000000	43.397684
43.415419	0.050298	45.000000	nontarget	4.000000	na
43.465716	0.049867	45.000000	nontarget	5.000000	na
43.515583	0.050150	45.000000	nontarget	6.000000	na
43.565732	0.049989	45.000000	nontarget	7.000000	na
43.615721	0.050141	45.000000	nontarget	8.000000	na
43.665862	0.049837	45.000000	nontarget	9.000000	na
43.715699	0.050292	45.000000	nontarget	10.000000	na
43.765991	0.049731	45.000000	nontarget	11.000000	na
43.815723	0.049923	45.000000	nontarget	12.000000	na
43.865646	0.050068	45.000000	nontarget	13.000000	na
43.915714	0.049995	45.000000	nontarget	14.000000	na
43.965709	0.050182	45.000000	nontarget	15.000000	na
44.015891	0.049858	45.000000	nontarget	16.000000	na
44.065750	0.050211	46.000000	nontarget	1.000000	na
44.115961	0.049692	46.000000	nontarget	2.000000	na
44.165653	0.050153	46.000000	nontarget	3.000000	44.193227
44.215806	0.049840	46.000000	nontarget	4.000000	na
44.265646	0.050066	46.000000	nontarget	5.000000	na
44.315712	0.050002	46.000000	nontarget	6.000000	na
44.365715	0.050001	46.000000	nontarget	7.000000	na
44.415716	0.049994	46.000000	nontarget	8.000000	na
44.465710	0.049593	46.000000	nontarget	9.000000	na
44.515303	0.050418	46.000000	nontarget	10.000000	na
44.565721	0.050151	46.000000	nontarget	11.000000	na
44.615872	0.049647	46.000000	nontarget	12.000000	na
44.665519	0.049904	46.000000	nontarget	13.000000	na
44.715423	0.050531	46.000000	nontarget	14.000000	na
44.765955	0.049745	46.000000	nontarget	15.000000	na
44.815700	0.049819	46.000000	nontarget	16.000000	na
44.865519	0.050396	47.000000	nontarget	1.000000	na
44.915916	0.050101	47.000000	nontarget	2.000000	na
44.966017	0.049082	47.000000	nontarget	3.000000	na
45.015099	0.049803	47.000000	nontarget	4.000000	na
45.064901	0.050805	47.000000	nontarget	5.000000	na
45.115706	0.048950	47.000000	nontarget	6.000000	na
45.164657	0.050783	47.000000	nontarget	7.000000	45.171248
45.215439	0.050272	47.000000	nontarget	8.000000	na
45.265711	0.049645	47.000000	nontarget	9.000000	na
45.315355	0.050340	47.000000	nontarget	10.000000	na
45.365695	0.050025	47.000000	nontarget	11.000000	na
45.415720	0.049621	47.000000	nontarget	12.000000	na
45.465341	0.050308	47.000000	nontarget	13.000000	na
45.515649	0.049926	47.000000	nontarget	14.000000	na
45.565575	0.049856	47.000000	nontarget	15.000000	na
45.615431	0.049496	47.000000	nontarget	16.000000	na
45.664928	0.050784	48.000000	nontarget	1.000000	na
45.715712	0.048973	48.000000	nontarget	2.000000	na
45.764684	0.050446	48.000000	nontarget	3.000000	na
45.815131	0.050181	48.000000	nontarget	4.000000	na
45.865312	0.050108	48.000000	nontarget	5.000000	na
45.915421	0.049309	48.000000	nontarget	6.000000	na
45.964730	0.050820	48.000000	nontarget	7.000000	na
46.015549	0.050110	48.000000	nontarget	8.000000	na
46.065660	0.049237	48.000000	nontarget	9.000000	na
46.114897	0.050071	48.000000	nontarget	10.000000	na
46.164968	0.050716	48.000000	nontarget	11.000000	na
46.215684	0.049988	48.000000	nontarget	12.000000	46.242900
46.265671	0.050008	48.000000	nontarget	13.000000	na
46.315680	0.050067	48.000000	nontarget	14.000000	na
46.365747	0.050063	48.000000	nontarget	15.000000	na
46.415810	0.049486	48.000000	nontarget	16.000000	na
46.465296	0.050417	49.000000	nontarget	1.000000	na
46.515712	0.050133	49.000000	nontarget	2.000000	na
46.565845	0.049758	49.000000	nontarget	3.000000	na
46.615603	0.050070	49.000000	nontarget	4.000000	na
46.665672	0.049415	49.000000	nontarget	5.000000	na
46.715087	0.050347	49.000000	nontarget	6.000000	na
46.765434	0.050022	49.000000	nontarget	7.000000	na
46.815456	0.050211	49.000000	nontarget	8.000000	na
46.865667	0.050271	49.000000	nontarget	9.000000	na
46.915938	0.048780	49.000000	nontarget	10.000000	na
46.964717	0.050489	49.000000	nontarget	11.000000	na
47.015206	0.050466	49.000000	nontarget	12.000000	na
47.065672	0.049991	49.000000	nontarget	13.000000	na
47.115663	0.049995	49.000000	nontarget	14.000000	na
47.165658	0.049972	49.000000	nontarget	15.000000	47.181843
47.215630	0.049881	49.000000	nontarget	16.000000	na
47.265510	0.050250	50.000000	nontarget	1.000000	47.272211
47.315761	0.049539	50.000000	nontarget	2.000000	na
47.365300	0.050464	50.000000	nontarget	3.000000	na
47.415764	0.049737	50.000000	nontarget	4.000000	na
47.465502	0.049517	50.000000	nontarget	5.000000	na
47.515019	0.050643	50.000000	nontarget	6.000000	na
47.565662	0.049606	50.000000	nontarget	7.000000	na
47.615268	0.050351	50.000000	nontarget	8.000000	na
47.665620	0.050065	50.000000	nontarget	9.000000	na
47.715685	0.049994	50.000000	nontarget	10.000000	na
47.765678	0.050057	50.000000	nontarget	11.000000	na
47.815736	0.049921	50.000000	nontarget	12.000000	na
47.865657	0.049999	50.000000	nontarget	13.000000	na
47.915656	0.050017	50.000000	nontarget	14.000000	na
47.965673	0.050037	50.000000	nontarget	15.000000	na
48.015710	0.049660	50.000000	nontarget	16.000000	na
48.065370	0.049835	51.000000	nontarget	1.000000	na
48.115205	0.050448	51.000000	nontarget	2.000000	na
48.165653	0.048981	51.000000	nontarget	3.000000	na
48.214634	0.051222	51.000000	nontarget	4.000000	48.220562
48.265856	0.049787	51.000000	nontarget	5.000000	na
48.315643	0.049708	51.000000	nontarget	6.000000	na
48.365350	0.050019	51.000000	nontarget	7.000000	na
48.415369	0.050278	51.000000	nontarget	8.000000	na
48.465648	0.049904	51.000000	nontarget	9.000000	na
48.515551	0.049574	51.000000	nontarget	10.000000	na
48.565125	0.050584	51.000000	nontarget	11.000000	na
48.615710	0.049920	51.000000	nontarget	12.000000	na
48.665629	0.049892	51.000000	nontarget	13.000000	na
48.715521	0.050103	51.000000	nontarget	14.000000	na
48.765624	0.050136	51.000000	nontarget	15.000000	na
48.815760	0.050092	51.000000	nontarget	16.000000	na
48.865852	0.049788	52.000000	nontarget	1.000000	na
48.915641	0.050000	52.000000	nontarget	2.000000	na
48.965641	0.049951	52.000000	nontarget	3.000000	na
49.015592	0.050067	52.000000	nontarget	4.000000	na
49.065660	0.049343	52.000000	nontarget	5.000000	na
49.115003	0.050692	52.000000	nontarget	6.000000	na
49.165695	0.049829	52.000000	nontarget	7.000000	49.192972
49.215524	0.049507	52.000000	nontarget	8.000000	na
49.265031	0.050582	52.000000	nontarget	9.000000	na
49.315613	0.049972	52.000000	nontarget	10.000000	na
49.365584	0.050060	52.000000	nontarget	11.000000	na
49.415644	0.049956	52.000000	nontarget	12.000000	na
49.465600	0.049730	52.000000	nontarget	13.000000	na
49.515330	0.050248	52.000000	nontarget	14.000000	na
49.565577	0.050058	52.000000	nontarget	15.000000	na
49.615635	0.049585	52.000000	nontarget	16.000000	na
49.665220	0.050532	53.000000	nontarget	1.000000	na
49.715752	0.049874	53.000000	nontarget	2.000000	na
49.765626	0.050032	53.000000	nontarget	3.000000	na
49.815657	0.049979	53.000000	nontarget	4.000000	na
49.865636	0.049352	53.000000	nontarget	5.000000	na
49.914988	0.050644	53.000000	nontarget	6.000000	na
49.965632	0.049671	53.000000	nontarget	7.000000	49.982095
50.015303	0.050049	53.000000	nontarget	8.000000	na
50.065352	0.050234	53.000000	nontarget	9.000000	na
50.115585	0.049134	53.000000	nontarget	10.000000	na
50.164720	0.050949	53.000000	nontarget	11.000000	na
50.215669	0.049904	53.000000	nontarget	12.000000	na
50.265573	0.049804	53.000000	nontarget	13.000000	na
50.315377	0.049343	53.000000	nontarget	14.000000	na
50.364720	0.051048	53.000000	nontarget	15.000000	na
50.415768	0.049619	53.000000	nontarget	16.000000	na
50.465386	0.050082	54.000000	nontarget	1.000000	na
50.515468	0.050151	54.000000	nontarget	2.000000	na
50.565619	0.049998	54.000000	nontarget	3.000000	na
50.615617	0.049970	54.000000	nontarget	4.000000	na
50.665587	0.050033	54.000000	nontarget	5.000000	na
50.715620	0.049997	54.000000	nontarget	6.000000	na
50.765617	0.049298	54.000000	nontarget	7.000000	na
50.814915	0.049801	54.000000	nontarget	8.000000	na
50.864715	0.050997	54.000000	nontarget	9.000000	na
50.915712	0.049949	54.000000	nontarget	10.000000	50.922428
50.965661	0.049962	54.000000	nontarget	11.000000	na
51.015623	0.049877	54.000000	nontarget	12.000000	na
51.065500	0.050114	54.000000	nontarget	13.000000	na
51.115614	0.049107	54.000000	nontarget	14.000000	na
51.164721	0.050810	54.000000	nontarget	15.000000	na
51.215531	0.050068	54.000000	nontarget	16.000000	na
51.265599	0.050047	55.000000	nontarget	1.000000	na
51.315646	0.050379	55.000000	nontarget	2.000000	na
51.366025	0.049727	55.000000	nontarget	3.000000	na
51.415753	0.049674	55.000000	nontarget	4.000000	na
51.465427	0.049917	55.000000	nontarget	5.000000	na
51.515344	0.050282	55.000000	nontarget	6.000000	na
51.565626	0.050291	55.000000	nontarget	7.000000	na
51.615917	0.049923	55.000000	nontarget	8.000000	na
51.665840	0.049901	55.000000	nontarget	9.000000	na
51.715742	0.049801	55.000000	nontarget	10.000000	na
51.765543	0.050058	55.000000	nontarget	11.000000	na
51.815601	0.050380	55.000000	nontarget	12.000000	na
51.865982	0.049461	55.000000	nontarget	13.000000	na
51.915443	0.049864	55.000000	nontarget	14.000000	na
51.965306	0.050589	55.000000	nontarget	15.000000	na
52.015895	0.049034	55.000000	nontarget	16.000000	na
52.064929	0.051031	56.000000	nontarget	1.000000	na
52.115961	0.049601	56.000000	nontarget	2.000000	52.127827
52.165561	0.049876	56.000000	nontarget	3.000000	na
52.215438	0.050361	56.000000	nontarget	4.000000	na
52.265799	0.049817	56.000000	nontarget	5.000000	na
52.315616	0.050454	56.000000	nontarget	6.000000	na
52.366070	0.049424	56.000000	nontarget	7.000000	na
52.415494	0.049939	56.000000	nontarget	8.000000	na
52.465433	0.049388	56.000000	nontarget	9.000000	na
52.514821	0.051152	56.000000	nontarget	10.000000	na
52.565973	0.049299	56.000000	nontarget	11.000000	na
52.615271	0.050260	56.000000	nontarget	12.000000	na
52.665532	0.049662	56.000000	nontarget	13.000000	na
52.715194	0.049784	56.000000	nontarget	14.000000	na
52.764978	0.050652	56.000000	nontarget	15.000000	na
52.815630	0.049877	56.000000	nontarget	16.000000	na
52.865507	0.049890	57.000000	nontarget	1.000000	na
52.915397	0.050046	57.000000	nontarget	2.000000	na
52.965443	0.050361	57.000000	nontarget	3.000000	na
53.015805	0.049773	57.000000	nontarget	4.000000	53.041945
53.065578	0.050042	57.000000	nontarget	5.000000	na
53.115620	0.050009	57.000000	nontarget	6.000000	na
53.165629	0.049905	57.000000	nontarget	7.000000	na
53.215534	0.049689	57.000000	nontarget	8.000000	na
53.265224	0.050176	57.000000	nontarget	9.000000	na
53.315400	0.050632	57.000000	nontarget	10.000000	na
53.366032	0.049839	57.000000	nontarget	11.000000	na
53.415870	0.049857	57.000000	nontarget	12.000000	na
53.465727	0.049768	57.000000	nontarget	13.000000	na
53.515494	0.049324	57.000000	nontarget	14.000000	na
53.564819	0.050080	57.000000	nontarget	15.000000	na
53.614899	0.050637	57.000000	nontarget	16.000000	na
53.665536	0.050068	58.000000	nontarget	1.000000	na
53.715604	0.050026	58.000000	nontarget	2.000000	na
53.765630	0.049950	58.000000	nontarget	3.000000	na
53.815580	0.050030	58.000000	nontarget	4.000000	na
53.865611	0.049563	58.000000	nontarget	5.000000	na
53.915173	0.050415	58.000000	nontarget	6.000000	na
53.965589	0.050078	58.000000	nontarget	7.000000	53.981659
54.015667	0.050322	58.000000	nontarget	8.000000	na
54.065989	0.049247	58.000000	nontarget	9.000000	na
54.115237	0.050350	58.000000	nontarget	10.000000	na
54.165587	0.050348	58.000000	nontarget	11.000000	na
54.215935	0.049633	58.000000	nontarget	12.000000	na
54.265567	0.049663	58.000000	nontarget	13.000000	na
54.315230	0.050305	58.000000	nontarget	14.000000	na
54.365536	0.049883	58.000000	nontarget	15.000000	na
54.415419	0.049512	58.000000	nontarget	16.000000	na
54.464931	0.049783	59.000000	nontarget	1.000000	na
54.514714	0.051280	59.000000	nontarget	2.000000	na
54.565994	0.049544	59.000000	nontarget	3.000000	na
54.615538	0.050019	59.000000	nontarget	4.000000	na
54.665557	0.049458	59.000000	nontarget	5.000000	na
54.715015	0.050064	59.000000	nontarget	6.000000	na
54.765078	0.050158	59.000000	nontarget	7.000000	na
54.815236	0.050283	59.000000	nontarget	8.000000	na
54.865519	0.049610	59.000000	nontarget	9.000000	na
54.915130	0.050146	59.000000	nontarget	10.000000	na
54.965276	0.049870	59.000000	nontarget	11.000000	na
55.015146	0.050513	59.000000	nontarget	12.000000	na
55.065659	0.050190	59.000000	nontarget	13.000000	na
55.115849	0.049727	59.000000	nontarget	14.000000	55.140148
55.165576	0.049991	59.000000	nontarget	15.000000	na
55.215566	0.049777	59.000000	nontarget	16.000000	na
55.265343	0.050235	60.000000	nontarget	1.000000	55.272023
55.315578	0.050079	60.000000	nontarget	2.000000	na
55.365657	0.049982	60.000000	nontarget	3.000000	na
55.415639	0.049342	60.000000	nontarget	4.000000	na
55.464981	0.049865	60.000000	nontarget	5.000000	na
55.514846	0.049782	60.000000	nontarget	6.000000	na
55.564628	0.051139	60.000000	nontarget	7.000000	na
55.615767	0.049763	60.000000	nontarget	8.000000	na
55.665530	0.049970	60.000000	nontarget	9.000000	na
55.715499	0.049350	60.000000	nontarget	10.000000	na
55.764849	0.050085	60.000000	nontarget	11.000000	na
55.814934	0.050687	60.000000	nontarget	12.000000	na
55.865621	0.050135	60.000000	nontarget	13.000000	na
55.915756	0.049681	60.000000	nontarget	14.000000	na
55.965438	0.049815	60.000000	nontarget	15.000000	na
56.015253	0.050160	60.000000	nontarget	16.000000	na
56.065413	0.050243	61.000000	nontarget	1.000000	56.072093
56.115656	0.049762	61.000000	nontarget	2.000000	na
56.165418	0.050268	61.000000	nontarget	3.000000	na
56.215686	0.049171	61.000000	nontarget	4.000000	na
56.264856	0.050692	61.000000	nontarget	5.000000	na
56.315549	0.050004	61.000000	nontarget	6.000000	na
56.365553	0.049689	61.000000	nontarget	7.000000	na
56.415242	0.049848	61.000000	nontarget	8.000000	na
56.465090	0.050733	61.000000	nontarget	9.000000	na
56.515823	0.048897	61.000000	nontarget	10.000000	na
56.564720	0.050831	61.000000	nontarget	11.000000	na
56.615551	0.049997	61.000000	nontarget	12.000000	na
56.665548	0.049934	61.000000	nontarget	13.000000	na
56.715482	0.050151	61.000000	nontarget	14.000000	na
56.765633	0.049453	61.000000	nontarget	15.000000	na
56.815086	0.049784	61.000000	nontarget	16.000000	na
56.864870	0.050059	62.000000	nontarget	1.000000	na
56.914929	0.050618	62.000000	nontarget	2.000000	na
56.965547	0.050110	62.000000	nontarget	3.000000	na
57.015656	0.049885	62.000000	nontarget	4.000000	na
57.065542	0.049851	62.000000	nontarget	5.000000	57.089500
57.115392	0.050137	62.000000	nontarget	6.000000	na
57.165530	0.049269	62.000000	nontarget	7.000000	na
57.214798	0.050605	62.000000	nontarget	8.000000	na
57.265403	0.049356	62.000000	nontarget	9.000000	na
57.314759	0.050785	62.000000	nontarget	10.000000	na
57.365544	0.050030	62.000000	nontarget	11.000000	na
57.415574	0.049809	62.000000	nontarget	12.000000	na
57.465383	0.050063	62.000000	nontarget	13.000000	na
57.515446	0.050270	62.000000	nontarget	14.000000	na
57.565716	0.049912	62.000000	nontarget	15.000000	na
57.615627	0.049852	62.000000	nontarget	16.000000	na
57.665479	0.050211	63.000000	nontarget	1.000000	na
57.715691	0.049033	63.000000	nontarget	2.000000	na
57.764724	0.050897	63.000000	nontarget	3.000000	na
57.815621	0.049891	63.000000	nontarget	4.000000	na
57.865512	0.050112	63.000000	nontarget	5.000000	na
57.915624	0.049096	63.000000	nontarget	6.000000	na
57.964720	0.050809	63.000000	nontarget	7.000000	na
58.015529	0.049958	63.000000	nontarget	8.000000	na
58.065487	0.049242	63.000000	nontarget	9.000000	na
58.114729	0.050427	63.000000	nontarget	10.000000	na
58.165155	0.049864	63.000000	nontarget	11.000000	na
58.215019	0.050515	63.000000	nontarget	12.000000	na
58.265533	0.050009	63.000000	nontarget	13.000000	na
58.315542	0.049436	63.000000	nontarget	14.000000	58.343901
58.364978	0.050558	63.000000	nontarget	15.000000	na
58.415536	0.049982	63.000000	nontarget	16.000000	na
58.465519	0.049880	64.000000	nontarget	1.000000	58.472185
58.515399	0.050056	64.000000	nontarget	2.000000	na
58.565455	0.049745	64.000000	nontarget	3.000000	na
58.615201	0.050314	64.000000	nontarget	4.000000	na
58.665515	0.049554	64.000000	nontarget	5.000000	na
58.715069	0.049591	64.000000	nontarget	6.000000	na
58.764661	0.050390	64.000000	nontarget	7.000000	na
58.815051	0.050661	64.000000	nontarget	8.000000	na
58.865711	0.049797	64.000000	nontarget	9.000000	na
58.915509	0.050000	64.000000	nontarget	10.000000	na
58.965509	0.049985	64.000000	nontarget	11.000000	na
59.015493	0.049329	64.000000	nontarget	12.000000	na
59.064823	0.050569	64.000000	nontarget	13.000000	na
59.115392	0.049457	64.000000	nontarget	14.000000	na
59.164849	0.050665	64.000000	nontarget	15.000000	na
59.215513	0.049212	64.000000	nontarget	16.000000	59.224320
59.264725	0.050812	65.000000	nontarget	1.000000	59.271422
59.315537	0.049224	65.000000	nontarget	2.000000	na
59.364760	0.050805	65.000000	nontarget	3.000000	na
59.415565	0.050033	65.000000	nontarget	4.000000	na
59.465598	0.050072	65.000000	nontarget	5.000000	na
59.515670	0.049669	65.000000	nontarget	6.000000	na
59.565339	0.049395	65.000000	nontarget	7.000000	na
59.614734	0.050775	65.000000	nontarget	8.000000	na
59.665509	0.049534	65.000000	nontarget	9.000000	na
59.715043	0.050534	65.000000	nontarget	10.000000	na
59.765577	0.049765	65.000000	nontarget	11.000000	na
59.815342	0.050159	65.000000	nontarget	12.000000	na
59.865502	0.050059	65.000000	nontarget	13.000000	na
59.915560	0.049166	65.000000	nontarget	14.000000	na
59.964726	0.049838	65.000000	nontarget	15.000000	na
60.014564	0.050946	65.000000	nontarget	16.000000	na
60.065510	0.049633	66.000000	target	1.000000	na
60.115143	0.050439	66.000000	target	2.000000	na
60.165582	0.049676	66.000000	target	3.000000	na
60.215258	0.050301	66.000000	target	4.000000	na
60.265560	0.049191	66.000000	target	5.000000	na
60.314751	0.049967	66.000000	target	6.000000	na
60.364719	0.050147	66.000000	target	7.000000	na
60.414865	0.050349	66.000000	target	8.000000	na
60.465215	0.050040	66.000000	target	9.000000	na
60.515255	0.049599	66.000000	target	10.000000	na
60.564854	0.050813	66.000000	target	11.000000	na
60.615667	0.049718	66.000000	target	12.000000	na
60.665385	0.049469	66.000000	target	13.000000	na
60.714855	0.050661	66.000000	target	14.000000	na
60.765515	0.049484	66.000000	target	15.000000	na
60.814999	0.050496	66.000000	target	16.000000	na
60.865495	0.049990	67.000000	nontarget	1.000000	60.898003
60.915486	0.049240	67.000000	nontarget	2.000000	na
60.964726	0.050754	67.000000	nontarget	3.000000	na
61.015480	0.050031	67.000000	nontarget	4.000000	na
61.065512	0.049928	67.000000	nontarget	5.000000	na
61.115439	0.049286	67.000000	nontarget	6.000000	na
61.164725	0.050763	67.000000	nontarget	7.000000	na
61.215488	0.049908	67.000000	nontarget	8.000000	na
61.265395	0.050061	67.000000	nontarget	9.000000	na
61.315456	0.049270	67.000000	nontarget	10.000000	na
61.364726	0.050176	67.000000	nontarget	11.000000	na
61.414902	0.050366	67.000000	nontarget	12.000000	na
61.465268	0.050218	67.000000	nontarget	13.000000	na
61.515486	0.049157	67.000000	nontarget	14.000000	na
61.564643	0.050752	67.000000	nontarget	15.000000	na
61.615395	0.050031	67.000000	nontarget	16.000000	na
61.665426	0.050050	68.000000	nontarget	1.000000	na
61.715476	0.050148	68.000000	nontarget	2.000000	na
61.765624	0.049900	68.000000	nontarget	3.000000	na
61.815524	0.049940	68.000000	nontarget	4.000000	na
61.865465	0.049953	68.000000	nontarget	5.000000	na
61.915418	0.049306	68.000000	nontarget	6.000000	na
61.964724	0.050530	68.000000	nontarget	7.000000	61.985007
62.015253	0.050399	68.000000	nontarget	8.000000	na
62.065653	0.049824	68.000000	nontarget	9.000000	na
62.115477	0.049986	68.000000	nontarget	10.000000	na
62.165462	0.050009	68.000000	nontarget	11.000000	na
62.215472	0.049943	68.000000	nontarget	12.000000	na
62.265414	0.049336	68.000000	nontarget	13.000000	na
62.314751	0.050718	68.000000	nontarget	14.000000	na
62.365469	0.050236	68.000000	nontarget	15.000000	na
62.415705	0.049868	68.000000	nontarget	16.000000	na
62.465573	0.049891	69.000000	nontarget	1.000000	na
62.515464	0.049812	69.000000	nontarget	2.000000	na
62.565276	0.050420	69.000000	nontarget	3.000000	na
62.615696	0.049768	69.000000	nontarget	4.000000	na
62.665464	0.049611	69.000000	nontarget	5.000000	na
62.715075	0.050159	69.000000	nontarget	6.000000	na
62.765234	0.050241	69.000000	nontarget	7.000000	na
62.815475	0.049904	69.000000	nontarget	8.000000	na
62.865379	0.050072	69.000000	nontarget	9.000000	na
62.915451	0.050142	69.000000	nontarget	10.000000	na
62.965593	0.049730	69.000000	nontarget	11.000000	na
63.015322	0.050309	69.000000	nontarget	12.000000	63.050695
63.065631	0.050089	69.000000	nontarget	13.000000	na
63.115720	0.049996	69.000000	nontarget	14.000000	na
63.165716	0.049715	69.000000	nontarget	15.000000	na
63.215431	0.050027	69.000000	nontarget	16.000000	na
63.265458	0.049898	70.000000	nontarget	1.000000	na
63.315356	0.049369	70.000000	nontarget	2.000000	na
63.364725	0.050352	70.000000	nontarget	3.000000	na
63.415077	0.049790	70.000000	nontarget	4.000000	na
63.464867	0.050378	70.000000	nontarget	5.000000	na
63.515245	0.049901	70.000000	nontarget	6.000000	na
63.565146	0.050513	70.000000	nontarget	7.000000	na
63.615659	0.049332	70.000000	nontarget	8.000000	na
63.664991	0.050428	70.000000	nontarget	9.000000	na
63.715419	0.049961	70.000000	nontarget	10.000000	na
63.765380	0.050081	70.000000	nontarget	11.000000	na
63.815461	0.049382	70.000000	nontarget	12.000000	na
63.864843	0.050453	70.000000	nontarget	13.000000	na
63.915295	0.050149	70.000000	nontarget	14.000000	na
63.965444	0.050131	70.000000	nontarget	15.000000	na
64.015576	0.049883	70.000000	nontarget	16.000000	na
64.065458	0.050000	71.000000	nontarget	1.000000	na
64.115458	0.049711	71.000000	nontarget	2.000000	64.121382
64.165169	0.049824	71.000000	nontarget	3.000000	na
64.214993	0.050505	71.000000	nontarget	4.000000	na
64.265497	0.050009	71.000000	nontarget	5.000000	na
64.315507	0.049926	71.000000	nontarget	6.000000	na
64.365432	0.049985	71.000000	nontarget	7.000000	na
64.415418	0.050031	71.000000	nontarget	8.000000	na
64.465449	0.049965	71.000000	nontarget	9.000000	na
64.515413	0.049491	71.000000	nontarget	10.000000	na
64.564904	0.050567	71.000000	nontarget	11.000000	na
64.615471	0.050122	71.000000	nontarget	12.000000	na
64.665593	0.049308	71.000000	nontarget	13.000000	na
64.714902	0.049961	71.000000	nontarget	14.000000	na
64.764863	0.049843	71.000000	nontarget	15.000000	na
64.814706	0.050565	71.000000	nontarget	16.000000	na
64.865271	0.050154	72.000000	nontarget	1.000000	na
64.915424	0.049339	72.000000	nontarget	2.000000	na
64.964764	0.050588	72.000000	nontarget	3.000000	na
65.015352	0.050233	72.000000	nontarget	4.000000	na
65.065585	0.049836	72.000000	nontarget	5.000000	na
65.115421	0.049302	72.000000	nontarget	6.000000	65.151806
65.164723	0.050682	72.000000	nontarget	7.000000	na
65.215405	0.049315	72.000000	nontarget	8.000000	na
65.264721	0.050424	72.000000	nontarget	9.000000	na
65.315145	0.049584	72.000000	nontarget	10.000000	na
65.364728	0.050004	72.000000	nontarget	11.000000	na
65.414732	0.050002	72.000000	nontarget	12.000000	na
65.464733	0.050449	72.000000	nontarget	13.000000	na
65.515183	0.050032	72.000000	nontarget	14.000000	na
65.565215	0.050411	72.000000	nontarget	15.000000	na
65.615626	0.049540	72.000000	nontarget	16.000000	na
65.665166	0.050251	73.000000	nontarget	1.000000	na
65.715417	0.049191	73.000000	nontarget	2.000000	na
65.764608	0.050815	73.000000	nontarget	3.000000	na
65.815423	0.049934	73.000000	nontarget	4.000000	na
65.865357	0.050066	73.000000	nontarget	5.000000	na
65.915423	0.049943	73.000000	nontarget	6.000000	na
65.965365	0.050042	73.000000	nontarget	7.000000	na
66.015407	0.049930	73.000000	nontarget	8.000000	na
66.065337	0.049415	73.000000	nontarget	9.000000	na
66.114753	0.050661	73.000000	nontarget	10.000000	na
66.165414	0.049934	73.000000	nontarget	11.000000	na
66.215348	0.050209	73.000000	nontarget	12.000000	na
66.265557	0.050162	73.000000	nontarget	13.000000	na
66.315719	0.049007	73.000000	nontarget	14.000000	na
66.364726	0.050176	73.000000	nontarget	15.000000	66.401247
66.414902	0.050530	73.000000	nontarget	16.000000	na
66.465432	0.050052	74.000000	nontarget	1.000000	66.472091
66.515484	0.049243	74.000000	nontarget	2.000000	na
66.564727	0.050812	74.000000	nontarget	3.000000	na
66.615538	0.049832	74.000000	nontarget	4.000000	na
66.665370	0.050180	74.000000	nontarget	5.000000	na
66.715550	0.049848	74.000000	nontarget	6.000000	na
66.765398	0.049992	74.000000	nontarget	7.000000	na
66.815390	0.049991	74.000000	nontarget	8.000000	na
66.865381	0.049825	74.000000	nontarget	9.000000	na
66.915205	0.049526	74.000000	nontarget	10.000000	na
66.964732	0.050020	74.000000	nontarget	11.000000	na
67.014752	0.050643	74.000000	nontarget	12.000000	na
67.065395	0.050307	74.000000	nontarget	13.000000	na
67.115702	0.049137	74.000000	nontarget	14.000000	na
67.164840	0.050019	74.000000	nontarget	15.000000	na
67.214859	0.050823	74.000000	nontarget	16.000000	na
67.265682	0.049316	75.000000	nontarget	1.000000	na
67.314998	0.049726	75.000000	nontarget	2.000000	na
67.364724	0.050669	75.000000	nontarget	3.000000	na
67.415394	0.049999	75.000000	nontarget	4.000000	67.422103
67.465392	0.050068	75.000000	nontarget	5.000000	na
67.515460	0.049264	75.000000	nontarget	6.000000	na
67.564724	0.050637	75.000000	nontarget	7.000000	na
67.615361	0.050031	75.000000	nontarget	8.000000	na
67.665392	0.049325	75.000000	nontarget	9.000000	na
67.714717	0.050139	75.000000	nontarget	10.000000	na
67.764856	0.050488	75.000000	nontarget	11.000000	na
67.815345	0.049685	75.000000	nontarget	12.000000	na
67.865030	0.050367	75.000000	nontarget	13.000000	na
67.915397	0.050364	75.000000	nontarget	14.000000	na
67.965761	0.049627	75.000000	nontarget	15.000000	na
68.015388	0.050147	75.000000	nontarget	16.000000	na
68.065535	0.049871	76.000000	nontarget	1.000000	na
68.115406	0.050005	76.000000	nontarget	2.000000	na
68.165411	0.049970	76.000000	nontarget	3.000000	na
68.215381	0.050071	76.000000	nontarget	4.000000	na
68.265452	0.050206	76.000000	nontarget	5.000000	68.293711
68.315659	0.050056	76.000000	nontarget	6.000000	na
68.365714	0.049822	76.000000	nontarget	7.000000	na
68.415536	0.049558	76.000000	nontarget	8.000000	na
68.465094	0.050301	76.000000	nontarget	9.000000	na
68.515395	0.049315	76.000000	nontarget	10.000000	na
68.564710	0.050759	76.000000	nontarget	11.000000	na
68.615468	0.050029	76.000000	nontarget	12.000000	na
68.665497	0.049940	76.000000	nontarget	13.000000	na
68.715438	0.049287	76.000000	nontarget	14.000000	na
68.764725	0.050650	76.000000	nontarget	15.000000	na
68.815376	0.050008	76.000000	nontarget	16.000000	na
68.865384	0.050087	77.000000	nontarget	1.000000	na
68.915471	0.049956	77.000000	nontarget	2.000000	na
68.965428	0.049869	77.000000	nontarget	3.000000	na
69.015297	0.050259	77.000000	nontarget	4.000000	na
69.065556	0.049682	77.000000	nontarget	5.000000	na
69.115238	0.049995	77.000000	nontarget	6.000000	69.130718
69.165234	0.050358	77.000000	nontarget	7.000000	na
69.215592	0.049760	77.000000	nontarget	8.000000	na
69.265352	0.049371	77.000000	nontarget	9.000000	na
69.314723	0.050640	77.000000	nontarget	10.000000	na
69.365363	0.050018	77.000000	nontarget	11.000000	na
69.415381	0.049562	77.000000	nontarget	12.000000	na
69.464943	0.050679	77.000000	nontarget	13.000000	na
69.515622	0.049117	77.000000	nontarget	14.000000	na
69.564739	0.050664	77.000000	nontarget	15.000000	na
69.615403	0.049792	77.000000	nontarget	16.000000	na
69.665195	0.050256	78.000000	target	1.000000	na
69.715451	0.049273	78.000000	target	2.000000	na
69.764725	0.050643	78.000000	target	3.000000	na
69.815368	0.050151	78.000000	target	4.000000	na
69.865519	0.049824	78.000000	target	5.000000	na
69.915343	0.049919	78.000000	target	6.000000	na
69.965262	0.050178	78.000000	target	7.000000	na
70.015440	0.049641	78.000000	target	8.000000	na
70.065081	0.050596	78.000000	target	9.000000	na
70.115677	0.049232	78.000000	target	10.000000	na
70.164910	0.050445	78.000000	target	11.000000	na
70.215354	0.049854	78.000000	target	12.000000	na
70.265209	0.050201	78.000000	target	13.000000	na
70.315410	0.049924	78.000000	target	14.000000	na
70.365334	0.050031	78.000000	target	15.000000	na
70.415365	0.049994	78.000000	target	16.000000	na
70.465359	0.049805	79.000000	nontarget	1.000000	70.481340
70.515164	0.050144	79.000000	nontarget	2.000000	na
70.565308	0.049554	79.000000	nontarget	3.000000	na
70.614862	0.049886	79.000000	nontarget	4.000000	na
70.664748	0.050230	79.000000	nontarget	5.000000	na
70.714978	0.049747	79.000000	nontarget	6.000000	na
70.764725	0.050321	79.000000	nontarget	7.000000	na
70.815046	0.050321	79.000000	nontarget	8.000000	na
70.865367	0.049793	79.000000	nontarget	9.000000	na
70.915160	0.050375	79.000000	nontarget	10.000000	na
70.965535	0.049488	79.000000	nontarget	11.000000	na
71.015023	0.050644	79.000000	nontarget	12.000000	na
71.065667	0.049836	79.000000	nontarget	13.000000	na
71.115503	0.049930	79.000000	nontarget	14.000000	na
71.165433	0.049670	79.000000	nontarget	15.000000	na
71.215103	0.050385	79.000000	nontarget	16.000000	na
71.265488	0.049201	80.000000	nontarget	1.000000	71.276965
71.314689	0.050691	80.000000	nontarget	2.000000	na
71.365380	0.050031	80.000000	nontarget	3.000000	na
71.415411	0.049948	80.000000	nontarget	4.000000	na
71.465359	0.049857	80.000000	nontarget	5.000000	na
71.515216	0.050320	80.000000	nontarget	6.000000	na
71.565536	0.049789	80.000000	nontarget	7.000000	na
71.615325	0.049844	80.000000	nontarget	8.000000	na
71.665169	0.050372	80.000000	nontarget	9.000000	na
71.715541	0.049188	80.000000	nontarget	10.000000	na
71.764728	0.050827	80.000000	nontarget	11.000000	na
71.815556	0.049773	80.000000	nontarget	12.000000	na
71.865329	0.049385	80.000000	nontarget	13.000000	na
71.914714	0.050634	80.000000	nontarget	14.000000	na
71.965347	0.049594	80.000000	nontarget	15.000000	na
72.014941	0.049889	80.000000	nontarget	16.000000	na
72.064830	0.050490	81.000000	nontarget	1.000000	na
72.115321	0.050225	81.000000	nontarget	2.000000	na
72.165546	0.049166	81.000000	nontarget	3.000000	72.185211
72.214712	0.050302	81.000000	nontarget	4.000000	na
72.265014	0.050416	81.000000	nontarget	5.000000	na
72.315430	0.049317	81.000000	nontarget	6.000000	na
72.364747	0.050704	81.000000	nontarget	7.000000	na
72.415450	0.049187	81.000000	nontarget	8.000000	na
72.464638	0.050686	81.000000	nontarget	9.000000	na
72.515324	0.050015	81.000000	nontarget	10.000000	na
72.565338	0.049971	81.000000	nontarget	11.000000	na
72.615309	0.049915	81.000000	nontarget	12.000000	na
72.665224	0.050197	81.000000	nontarget	13.000000	na
72.715420	0.049228	81.000000	nontarget	14.000000	na
72.764648	0.050652	81.000000	nontarget	15.000000	na
72.815300	0.049336	81.000000	nontarget	16.000000	na
72.864636	0.050663	82.000000	nontarget	1.000000	na
72.915299	0.049995	82.000000	nontarget	2.000000	na
72.965294	0.049154	82.000000	nontarget	3.000000	na
73.014448	0.050102	82.000000	nontarget	4.000000	73.042019
73.064550	0.050464	82.000000	nontarget	5.000000	na
73.115014	0.050291	82.000000	nontarget	6.000000	na
73.165305	0.049719	82.000000	nontarget	7.000000	na
73.215024	0.050303	82.000000	nontarget	8.000000	na
73.265326	0.049979	82.000000	nontarget	9.000000	na
73.315305	0.049690	82.000000	nontarget	10.000000	na
73.364996	0.050286	82.000000	nontarget	11.000000	na
73.415282	0.049620	82.000000	nontarget	12.000000	na
73.464902	0.049834	82.000000	nontarget	13.000000	na
73.514736	0.050519	82.000000	nontarget	14.000000	na
73.565255	0.050119	82.000000	nontarget	15.000000	na
73.615374	0.049890	82.000000	nontarget	16.000000	na
73.665264	0.050069	83.000000	nontarget	1.000000	na
73.715334	0.049394	83.000000	nontarget	2.000000	na
73.764728	0.050310	83.000000	nontarget	3.000000	na
73.815038	0.049810	83.000000	nontarget	4.000000	na
73.864848	0.050028	83.000000	nontarget	5.000000	na
73.914876	0.049848	83.000000	nontarget	6.000000	na
73.964724	0.050117	83.000000	nontarget	7.000000	73.984760
74.014842	0.050467	83.000000	nontarget	8.000000	na
74.065309	0.049413	83.000000	nontarget	9.000000	na
74.114722	0.050003	83.000000	nontarget	10.000000	na
74.164725	0.050470	83.000000	nontarget	11.000000	na
74.215195	0.050165	83.000000	nontarget	12.000000	na
74.265361	0.049952	83.000000	nontarget	13.000000	na
74.315313	0.050014	83.000000	nontarget	14.000000	na
74.365327	0.049576	83.000000	nontarget	15.000000	na
74.414903	0.049827	83.000000	nontarget	16.000000	na
74.464730	0.050556	84.000000	nontarget	1.000000	na
74.515286	0.049644	84.000000	nontarget	2.000000	na
74.564929	0.050342	84.000000	nontarget	3.000000	na
74.615271	0.050194	84.000000	nontarget	4.000000	na
74.665465	0.049437	84.000000	nontarget	5.000000	na
74.714902	0.049995	84.000000	nontarget	6.000000	na
74.764897	0.050350	84.000000	nontarget	7.000000	na
74.815247	0.049914	84.000000	nontarget	8.000000	na
74.865162	0.049744	84.000000	nontarget	9.000000	na
74.914906	0.050355	84.000000	nontarget	10.000000	na
74.965261	0.050113	84.000000	nontarget	11.000000	74.971998
75.015375	0.049784	84.000000	nontarget	12.000000	na
75.065159	0.050164	84.000000	nontarget	13.000000	na
75.115323	0.049403	84.000000	nontarget	14.000000	na
75.164726	0.049925	84.000000	nontarget	15.000000	na
75.214651	0.050621	84.000000	nontarget	16.000000	na
75.265272	0.050105	85.000000	nontarget	1.000000	na
75.315376	0.049642	85.000000	nontarget	2.000000	na
75.365018	0.050265	85.000000	nontarget	3.000000	na
75.415283	0.050196	85.000000	nontarget	4.000000	na
75.465479	0.049345	85.000000	nontarget	5.000000	na
75.514824	0.050439	85.000000	nontarget	6.000000	na
75.565264	0.050121	85.000000	nontarget	7.000000	na
75.615385	0.050094	85.000000	nontarget	8.000000	na
75.665479	0.049611	85.000000	nontarget	9.000000	na
75.715089	0.050198	85.000000	nontarget	10.000000	na
75.765287	0.050035	85.000000	nontarget	11.000000	na
75.815322	0.050107	85.000000	nontarget	12.000000	na
75.865428	0.049854	85.000000	nontarget	13.000000	na
75.915282	0.049843	85.000000	nontarget	14.000000	na
75.965126	0.049715	85.000000	nontarget	15.000000	75.971724
76.014841	0.050412	85.000000	nontarget	16.000000	na
76.065252	0.050000	86.000000	nontarget	1.000000	76.071971
76.115252	0.049472	86.000000	nontarget	2.000000	na
76.164725	0.050002	86.000000	nontarget	3.000000	na
76.214726	0.050139	86.000000	nontarget	4.000000	na
76.264865	0.050539	86.000000	nontarget	5.000000	na
76.315404	0.049709	86.000000	nontarget	6.000000	na
76.365113	0.049554	86.000000	nontarget	7.000000	na
76.414667	0.050366	86.000000	nontarget	8.000000	na
76.465033	0.050224	86.000000	nontarget	9.000000	na
76.515257	0.049994	86.000000	nontarget	10.000000	na
76.565251	0.049931	86.000000	nontarget	11.000000	na
76.615182	0.049245	86.000000	nontarget	12.000000	na
76.664427	0.050666	86.000000	nontarget	13.000000	na
76.715093	0.049764	86.000000	nontarget	14.000000	na
76.764857	0.049999	86.000000	nontarget	15.000000	na
76.814856	0.050409	86.000000	nontarget	16.000000	na
76.865265	0.050005	87.000000	nontarget	1.000000	na
76.915270	0.049983	87.000000	nontarget	2.000000	na
76.965253	0.049993	87.000000	nontarget	3.000000	76.977125
77.015246	0.049907	87.000000	nontarget	4.000000	na
77.065153	0.050233	87.000000	nontarget	5.000000	na
77.115386	0.049341	87.000000	nontarget	6.000000	na
77.164728	0.049855	87.000000	nontarget	7.000000	na
77.214583	0.050666	87.000000	nontarget	8.000000	na
77.265249	0.049468	87.000000	nontarget	9.000000	na
77.314717	0.050011	87.000000	nontarget	10.000000	na
77.364728	0.050491	87.000000	nontarget	11.000000	na
77.415219	0.050006	87.000000	nontarget	12.000000	na
77.465225	0.049451	87.000000	nontarget	13.000000	na
77.514676	0.049995	87.000000	nontarget	14.000000	na
77.564670	0.050348	87.000000	nontarget	15.000000	na
77.615019	0.049705	87.000000	nontarget	16.000000	na
77.664724	0.050413	88.000000	nontarget	1.000000	na
77.715136	0.049464	88.000000	nontarget	2.000000	na
77.764600	0.050660	88.000000	nontarget	3.000000	na
77.815261	0.049475	88.000000	nontarget	4.000000	77.835942
77.864735	0.050520	88.000000	nontarget	5.000000	na
77.915256	0.049774	88.000000	nontarget	6.000000	na
77.965030	0.049576	88.000000	nontarget	7.000000	na
78.014606	0.050689	88.000000	nontarget	8.000000	na
78.065295	0.049426	88.000000	nontarget	9.000000	na
78.114721	0.050522	88.000000	nontarget	10.000000	na
78.165243	0.049954	88.000000	nontarget	11.000000	na
78.215197	0.049718	88.000000	nontarget	12.000000	na
78.264916	0.050306	88.000000	nontarget	13.000000	na
78.315222	0.049512	88.000000	nontarget	14.000000	na
78.364734	0.050491	88.000000	nontarget	15.000000	na
78.415224	0.050005	88.000000	nontarget	16.000000	na
78.465229	0.049624	89.000000	nontarget	1.000000	na
78.514853	0.050400	89.000000	nontarget	2.000000	na
78.565253	0.049967	89.000000	nontarget	3.000000	na
78.615220	0.049467	89.000000	nontarget	4.000000	na
78.664687	0.050658	89.000000	nontarget	5.000000	na
78.715345	0.049882	89.000000	nontarget	6.000000	na
78.765227	0.049504	89.000000	nontarget	7.000000	na
78.814730	0.049564	89.000000	nontarget	8.000000	na
78.864294	0.050947	89.000000	nontarget	9.000000	78.870878
78.915241	0.049999	89.000000	nontarget	10.000000	na
78.965240	0.049488	89.000000	nontarget	11.000000	na
79.014728	0.050516	89.000000	nontarget	12.000000	na
79.065245	0.049903	89.000000	nontarget	13.000000	na
79.115148	0.049591	89.000000	nontarget	14.000000	na
79.164739	0.050550	89.000000	nontarget	15.000000	na
79.215290	0.049445	89.000000	nontarget	16.000000	na
79.264734	0.050173	90.000000	nontarget	1.000000	na
79.314908	0.049776	90.000000	nontarget	2.000000	na
79.364684	0.050575	90.000000	nontarget	3.000000	na
79.415259	0.050156	90.000000	nontarget	4.000000	na
79.465414	0.049509	90.000000	nontarget	5.000000	na
79.514924	0.049799	90.000000	nontarget	6.000000	na
79.564723	0.049622	90.000000	nontarget	7.000000	na
79.614345	0.050576	90.000000	nontarget	8.000000	na
79.664921	0.050254	90.000000	nontarget	9.000000	na
79.715175	0.050036	90.000000	nontarget	10.000000	na
79.765211	0.049885	90.000000	nontarget	11.000000	79.794071
79.815096	0.049632	90.000000	nontarget	12.000000	na
79.864728	0.050040	90.000000	nontarget	13.000000	na
79.914768	0.049991	90.000000	nontarget	14.000000	na
79.964759	0.049972	90.000000	nontarget	15.000000	na
80.014731	0.050559	90.000000	nontarget	16.000000	na
80.065290	0.049550	91.000000	nontarget	1.000000	na
80.114840	0.050438	91.000000	nontarget	2.000000	na
80.165278	0.049940	91.000000	nontarget	3.000000	na
80.215218	0.049985	91.000000	nontarget	4.000000	na
80.265203	0.049386	91.000000	nontarget	5.000000	na
80.314589	0.050036	91.000000	nontarget	6.000000	na
80.364626	0.050644	91.000000	nontarget	7.000000	na
80.415270	0.049935	91.000000	nontarget	8.000000	na
80.465205	0.049897	91.000000	nontarget	9.000000	na
80.515102	0.049616	91.000000	nontarget	10.000000	na
80.564718	0.050485	91.000000	nontarget	11.000000	na
80.615203	0.049990	91.000000	nontarget	12.000000	na
80.665193	0.049997	91.000000	nontarget	13.000000	na
80.715190	0.049722	91.000000	nontarget	14.000000	na
80.764912	0.049576	91.000000	nontarget	15.000000	80.771111
80.814488	0.050731	91.000000	nontarget	16.000000	na
80.865219	0.049939	92.000000	nontarget	1.000000	80.871883
80.915158	0.049569	92.000000	nontarget	2.000000	na
80.964728	0.050182	92.000000	nontarget	3.000000	na
81.014910	0.050448	92.000000	nontarget	4.000000	na
81.065357	0.049836	92.000000	nontarget	5.000000	na
81.115194	0.049999	92.000000	nontarget	6.000000	na
81.165193	0.050002	92.000000	nontarget	7.000000	na
81.215195	0.050138	92.000000	nontarget	8.000000	na
81.265333	0.049400	92.000000	nontarget	9.000000	na
81.314733	0.050518	92.000000	nontarget	10.000000	na
81.365250	0.049611	92.000000	nontarget	11.000000	na
81.414861	0.050294	92.000000	nontarget	12.000000	na
81.465155	0.050406	92.000000	nontarget	13.000000	na
81.515561	0.049172	92.000000	nontarget	14.000000	na
81.564733	0.050437	92.000000	nontarget	15.000000	na
81.615170	0.049561	92.000000	nontarget	16.000000	na
81.664731	0.050462	93.000000	nontarget	1.000000	na
81.715193	0.050163	93.000000	nontarget	2.000000	81.721883
81.765356	0.049968	93.000000	nontarget	3.000000	na
81.815324	0.049616	93.000000	nontarget	4.000000	na
81.864940	0.050231	93.000000	nontarget	5.000000	na
81.915171	0.050092	93.000000	nontarget	6.000000	na
81.965263	0.049974	93.000000	nontarget	7.000000	na
82.015237	0.050149	93.000000	nontarget	8.000000	na
82.065386	0.049552	93.000000	nontarget	9.000000	na
82.114937	0.050529	93.000000	nontarget	10.000000	na
82.165467	0.049729	93.000000	nontarget	11.000000	na
82.215196	0.049900	93.000000	nontarget	12.000000	na
82.265096	0.050010	93.000000	nontarget	13.000000	na
82.315106	0.050097	93.000000	nontarget	14.000000	na
82.365203	0.049528	93.000000	nontarget	15.000000	na
82.414730	0.050444	93.000000	nontarget	16.000000	na
82.465174	0.050103	94.000000	nontarget	1.000000	na
82.515277	0.049449	94.000000	nontarget	2.000000	na
82.564726	0.050626	94.000000	nontarget	3.000000	na
82.615351	0.049962	94.000000	nontarget	4.000000	na
82.665314	0.049467	94.000000	nontarget	5.000000	na
82.714781	0.049952	94.000000	nontarget	6.000000	na
82.764732	0.050115	94.000000	nontarget	7.000000	82.788153
82.814847	0.050341	94.000000	nontarget	8.000000	na
82.865188	0.049465	94.000000	nontarget	9.000000	na
82.914653	0.050379	94.000000	nontarget	10.000000	na
82.965031	0.049643	94.000000	nontarget	11.000000	na
83.014674	0.050055	94.000000	nontarget	12.000000	na
83.064730	0.050485	94.000000	nontarget	13.000000	na
83.115214	0.049938	94.000000	nontarget	14.000000	na
83.165153	0.049537	94.000000	nontarget	15.000000	na
83.214689	0.049906	94.000000	nontarget	16.000000	na
83.264595	0.050135	95.000000	nontarget	1.000000	na
83.314731	0.050452	95.000000	nontarget	2.000000	na
83.365183	0.049823	95.000000	nontarget	3.000000	na
83.415006	0.049857	95.000000	nontarget	4.000000	na
83.464862	0.050326	95.000000	nontarget	5.000000	na
83.515188	0.050051	95.000000	nontarget	6.000000	na
83.565240	0.049498	95.000000	nontarget	7.000000	na
83.614737	0.050529	95.000000	nontarget	8.000000	na
83.665266	0.050241	95.000000	nontarget	9.000000	na
83.715507	0.049228	95.000000	nontarget	10.000000	na
83.764735	0.050252	95.000000	nontarget	11.000000	na
83.814986	0.050181	95.000000	nontarget	12.000000	na
83.865167	0.049506	95.000000	nontarget	13.000000	na
83.914673	0.050464	95.000000	nontarget	14.000000	na
83.965137	0.049503	95.000000	nontarget	15.000000	83.994440
84.014640	0.050745	95.000000	nontarget	16.000000	na
84.065384	0.049112	96.000000	nontarget	1.000000	84.072345
84.114497	0.050178	96.000000	nontarget	2.000000	na
84.164674	0.050234	96.000000	nontarget	3.000000	na
84.214909	0.049601	96.000000	nontarget	4.000000	na
84.264510	0.050646	96.000000	nontarget	5.000000	na
84.315157	0.049968	96.000000	nontarget	6.000000	na
84.365125	0.049872	96.000000	nontarget	7.000000	na
84.414997	0.050161	96.000000	nontarget	8.000000	na
84.465158	0.050144	96.000000	nontarget	9.000000	na
84.515303	0.050130	96.000000	nontarget	10.000000	na
84.565432	0.049720	96.000000	nontarget	11.000000	na
84.615152	0.050398	96.000000	nontarget	12.000000	na
84.665549	0.049540	96.000000	nontarget	13.000000	na
84.715089	0.049580	96.000000	nontarget	14.000000	na
84.764669	0.050485	96.000000	nontarget	15.000000	na
84.815154	0.049801	96.000000	nontarget	16.000000	na
84.864955	0.050127	97.000000	nontarget	1.000000	na
84.915082	0.049644	97.000000	nontarget	2.000000	na
84.964726	0.050004	97.000000	nontarget	3.000000	na
85.014729	0.050241	97.000000	nontarget	4.000000	na
85.064971	0.050182	97.000000	nontarget	5.000000	85.071606
85.115152	0.050262	97.000000	nontarget	6.000000	na
85.165414	0.049335	97.000000	nontarget	7.000000	na
85.214749	0.050406	97.000000	nontarget	8.000000	na
85.265155	0.050000	97.000000	nontarget	9.000000	na
85.315154	0.049776	97.000000	nontarget	10.000000	na
85.364930	0.050221	97.000000	nontarget	11.000000	na
85.415152	0.049533	97.000000	nontarget	12.000000	na
85.464684	0.050266	97.000000	nontarget	13.000000	na
85.514950	0.050505	97.000000	nontarget	14.000000	na
85.565455	0.050039	97.000000	nontarget	15.000000	na
85.615494	0.049520	97.000000	nontarget	16.000000	na
85.665013	0.050395	98.000000	nontarget	1.000000	na
85.715408	0.049302	98.000000	nontarget	2.000000	na
85.764710	0.050572	98.000000	nontarget	3.000000	na
85.815282	0.049724	98.000000	nontarget	4.000000	na
85.865006	0.049722	98.000000	nontarget	5.000000	na
85.914728	0.050347	98.000000	nontarget	6.000000	na
85.965075	0.049776	98.000000	nontarget	7.000000	na
86.014851	0.050079	98.000000	nontarget	8.000000	na
86.064930	0.050207	98.000000	nontarget	9.000000	na
86.115137	0.049967	98.000000	nontarget	10.000000	na
86.165104	0.049979	98.000000	nontarget	11.000000	86.189471
86.215084	0.049932	98.000000	nontarget	12.000000	na
86.265015	0.050156	98.000000	nontarget	13.000000	na
86.315172	0.050102	98.000000	nontarget	14.000000	na
86.365273	0.049849	98.000000	nontarget	15.000000	na
86.415122	0.049875	98.000000	nontarget	16.000000	na
86.464996	0.049739	99.000000	nontarget	1.000000	na
86.514735	0.050354	99.000000	nontarget	2.000000	na
86.565090	0.050227	99.000000	nontarget	3.000000	na
86.615316	0.049545	99.000000	nontarget	4.000000	na
86.664862	0.049827	99.000000	nontarget	5.000000	na
86.714689	0.050392	99.000000	nontarget	6.000000	na
86.765081	0.049655	99.000000	nontarget	7.000000	na
86.814736	0.050065	99.000000	nontarget	8.000000	na
86.864801	0.050454	99.000000	nontarget	9.000000	na
86.915255	0.049478	99.000000	nontarget	10.000000	na
86.964733	0.050283	99.000000	nontarget	11.000000	na
87.015015	0.049716	99.000000	nontarget	12.000000	na
87.064732	0.050005	99.000000	nontarget	13.000000	na
87.114737	0.050402	99.000000	nontarget	14.000000	na
87.165138	0.049858	99.000000	nontarget	15.000000	na
87.214996	0.049740	99.000000	nontarget	16.000000	na
87.264736	0.050089	100.000000	nontarget	1.000000	87.271840
87.314825	0.049903	100.000000	nontarget	2.000000	na
87.364728	0.050002	100.000000	nontarget	3.000000	na
87.414730	0.050453	100.000000	nontarget	4.000000	na
87.465183	0.049665	100.000000	nontarget	5.000000	na
87.514848	0.050186	100.000000	nontarget	6.000000	na
87.565034	0.050176	100.000000	nontarget	7.000000	na
87.615210	0.050119	100.000000	nontarget	8.000000	na
87.665329	0.049822	100.000000	nontarget	9.000000	na
87.715152	0.049957	100.000000	nontarget	10.000000	na
87.765109	0.049884	100.000000	nontarget	11.000000	na
87.814993	0.049958	100.000000	nontarget	12.000000	na
87.864951	0.050141	100.000000	nontarget	13.000000	na
87.915092	0.049581	100.000000	nontarget	14.000000	na
87.964673	0.050339	100.000000	nontarget	15.000000	na
88.015012	0.050086	100.000000	nontarget	16.000000	na
88.065097	0.050003	101.000000	target	1.000000	na
88.115100	0.049636	101.000000	target	2.000000	na
88.164736	0.050389	101.000000	target	3.000000	na
88.215124	0.049919	101.000000	target	4.000000	na
88.265044	0.050041	101.000000	target	5.000000	na
88.315084	0.050006	101.000000	target	6.000000	na
88.365090	0.050016	101.000000	target	7.000000	na
88.415106	0.049805	101.000000	target	8.000000	na
88.464911	0.050185	101.000000	target	9.000000	na
88.515096	0.049986	101.000000	target	10.000000	na
88.565082	0.049944	101.000000	target	11.000000	na
88.615026	0.049253	101.000000	target	12.000000	na
88.664279	0.050579	101.000000	target	13.000000	na
88.714857	0.049996	101.000000	target	14.000000	na
88.764854	0.050248	101.000000	target	15.000000	na
88.815102	0.049929	101.000000	target	16.000000	na
88.865031	0.050054	102.000000	nontarget	1.000000	na
88.915085	0.050022	102.000000	nontarget	2.000000	na
88.965107	0.049927	102.000000	nontarget	3.000000	na
89.015034	0.050290	102.000000	nontarget	4.000000	89.044048
89.065324	0.049907	102.000000	nontarget	5.000000	na
89.115231	0.049637	102.000000	nontarget	6.000000	na
89.164868	0.050140	102.000000	nontarget	7.000000	na
89.215008	0.050093	102.000000	nontarget	8.000000	na
89.265101	0.049626	102.000000	nontarget	9.000000	na
89.314727	0.050342	102.000000	nontarget	10.000000	na
89.365069	0.050010	102.000000	nontarget	11.000000	na
89.415079	0.049502	102.000000	nontarget	12.000000	na
89.464581	0.050328	102.000000	nontarget	13.000000	na
89.514909	0.050096	102.000000	nontarget	14.000000	na
89.565005	0.050042	102.000000	nontarget	15.000000	na
89.615048	0.049337	102.000000	nontarget	16.000000	na
89.664385	0.050775	103.000000	target	1.000000	na
89.715160	0.049439	103.000000	target	2.000000	na
89.764599	0.050260	103.000000	target	3.000000	na
89.814859	0.049858	103.000000	target	4.000000	na
89.864717	0.050325	103.000000	target	5.000000	na
89.915042	0.050021	103.000000	target	6.000000	na
89.965063	0.050225	103.000000	target	7.000000	na
90.015288	0.049441	103.000000	target	8.000000	na
90.064730	0.049762	103.000000	target	9.000000	na
90.114491	0.050235	103.000000	target	10.000000	na
90.164726	0.049844	103.000000	target	11.000000	na
90.214570	0.050377	103.000000	target	12.000000	na
90.264947	0.050062	103.000000	target	13.000000	na
90.315009	0.049752	103.000000	target	14.000000	na
90.364761	0.049834	103.000000	target	15.000000	na
90.414595	0.050031	103.000000	target	16.000000	na
90.464626	0.050363	104.000000	nontarget	1.000000	na
90.514988	0.049353	104.000000	nontarget	2.000000	na
90.564341	0.050729	104.000000	nontarget	3.000000	na
90.615071	0.049971	104.000000	nontarget	4.000000	na
90.665041	0.050202	104.000000	nontarget	5.000000	na
90.715243	0.049832	104.000000	nontarget	6.000000	90.750114
90.765075	0.049368	104.000000	nontarget	7.000000	na
90.814443	0.049902	104.000000	nontarget	8.000000	na
90.864345	0.049898	104.000000	nontarget	9.000000	na
90.914243	0.050211	104.000000	nontarget	10.000000	na
90.964454	0.050383	104.000000	nontarget	11.000000	na
91.014837	0.049804	104.000000	nontarget	12.000000	na
91.064641	0.049602	104.000000	nontarget	13.000000	na
91.114243	0.050523	104.000000	nontarget	14.000000	na
91.164766	0.050321	104.000000	nontarget	15.000000	na
91.215087	0.049644	104.000000	nontarget	16.000000	na
91.264730	0.049740	105.000000	nontarget	1.000000	na
91.314470	0.050349	105.000000	nontarget	2.000000	na
91.364819	0.050098	105.000000	nontarget	3.000000	na
91.414917	0.049815	105.000000	nontarget	4.000000	na
91.464732	0.049595	105.000000	nontarget	5.000000	na
91.514327	0.050397	105.000000	nontarget	6.000000	na
91.564724	0.050308	105.000000	nontarget	7.000000	na
91.615032	0.049161	105.000000	nontarget	8.000000	na
91.664193	0.050480	105.000000	nontarget	9.000000	91.699692
91.714673	0.050349	105.000000	nontarget	10.000000	na
91.765022	0.049710	105.000000	nontarget	11.000000	na
91.814732	0.050017	105.000000	nontarget	12.000000	na
91.864749	0.049986	105.000000	nontarget	13.000000	na
91.914735	0.050253	105.000000	nontarget	14.000000	na
91.964988	0.050014	105.000000	nontarget	15.000000	na
92.015002	0.050038	105.000000	nontarget	16.000000	na
92.065040	0.049697	106.000000	nontarget	1.000000	na
92.114736	0.050116	106.000000	nontarget	2.000000	na
92.164852	0.050161	106.000000	nontarget	3.000000	na
92.215013	0.050101	106.000000	nontarget	4.000000	na
92.265114	0.050087	106.000000	nontarget	5.000000	na
92.315200	0.049525	106.000000	nontarget	6.000000	na
92.364725	0.050269	106.000000	nontarget	7.000000	na
92.414994	0.049725	106.000000	nontarget	8.000000	na
92.464719	0.050394	106.000000	nontarget	9.000000	na
92.515113	0.049510	106.000000	nontarget	10.000000	na
92.564623	0.050285	106.000000	nontarget	11.000000	na
92.614908	0.049501	106.000000	nontarget	12.000000	na
92.664409	0.050614	106.000000	nontarget	13.000000	na
92.715023	0.049991	106.000000	nontarget	14.000000	na
92.765014	0.049713	106.000000	nontarget	15.000000	na
92.814727	0.050434	106.000000	nontarget	16.000000	na
92.865161	0.049567	107.000000	nontarget	1.000000	na
92.914728	0.050297	107.000000	nontarget	2.000000	92.938258
92.965024	0.049710	107.000000	nontarget	3.000000	na
93.014734	0.050340	107.000000	nontarget	4.000000	na
93.065074	0.049658	107.000000	nontarget	5.000000	na
93.114733	0.050131	107.000000	nontarget	6.000000	na
93.164864	0.050163	107.000000	nontarget	7.000000	na
93.215027	0.049446	107.000000	nontarget	8.000000	na
93.264473	0.050030	107.000000	nontarget	9.000000	na
93.314504	0.050118	107.000000	nontarget	10.000000	na
93.364622	0.050385	107.000000	nontarget	11.000000	na
93.415007	0.049173	107.000000	nontarget	12.000000	na
93.464181	0.051013	107.000000	nontarget	13.000000	na
93.515194	0.049539	107.000000	nontarget	14.000000	na
93.564733	0.049728	107.000000	nontarget	15.000000	na
93.614461	0.050383	107.000000	nontarget	16.000000	na
93.664844	0.050169	108.000000	nontarget	1.000000	na
93.715013	0.050001	108.000000	nontarget	2.000000	na
93.765013	0.050142	108.000000	nontarget	3.000000	na
93.815156	0.049755	108.000000	nontarget	4.000000	na
93.864911	0.050107	108.000000	nontarget	5.000000	na
93.915017	0.049501	108.000000	nontarget	6.000000	na
93.964518	0.050500	108.000000	nontarget	7.000000	na
94.015018	0.050008	108.000000	nontarget	8.000000	94.021648
94.065026	0.049594	108.000000	nontarget	9.000000	na
94.114619	0.050349	108.000000	nontarget	10.000000	na
94.164968	0.049885	108.000000	nontarget	11.000000	na
94.214853	0.049608	108.000000	nontarget	12.000000	na
94.264461	0.050215	108.000000	nontarget	13.000000	na
94.314676	0.050278	108.000000	nontarget	14.000000	na
94.364955	0.050000	108.000000	nontarget	15.000000	na
94.414955	0.049806	108.000000	nontarget	16.000000	na
94.464761	0.050342	109.000000	nontarget	1.000000	na
94.515103	0.049633	109.000000	nontarget	2.000000	na
94.564736	0.049916	109.000000	nontarget	3.000000	na
94.614652	0.050460	109.000000	nontarget	4.000000	na
94.665112	0.049815	109.000000	nontarget	5.000000	na
94.714927	0.049999	109.000000	nontarget	6.000000	na
94.764925	0.050029	109.000000	nontarget	7.000000	na
94.814954	0.049516	109.000000	nontarget	8.000000	na
94.864470	0.049633	109.000000	nontarget	9.000000	na
94.914103	0.050592	109.000000	nontarget	10.000000	na
94.964695	0.050450	109.000000	nontarget	11.000000	na
95.015144	0.049707	109.000000	nontarget	12.000000	na
95.064851	0.050067	109.000000	nontarget	13.000000	na
95.114918	0.049817	109.000000	nontarget	14.000000	95.130671
95.164736	0.049612	109.000000	nontarget	15.000000	na
95.214348	0.050565	109.000000	nontarget	16.000000	na
95.264913	0.050003	110.000000	nontarget	1.000000	95.271584
95.314916	0.050178	110.000000	nontarget	2.000000	na
95.365094	0.049774	110.000000	nontarget	3.000000	na
95.414868	0.049450	110.000000	nontarget	4.000000	na
95.464318	0.050779	110.000000	nontarget	5.000000	na
95.515097	0.049601	110.000000	nontarget	6.000000	na
95.564698	0.049671	110.000000	nontarget	7.000000	na
95.614369	0.050365	110.000000	nontarget	8.000000	na
95.664734	0.050211	110.000000	nontarget	9.000000	na
95.714945	0.050048	110.000000	nontarget	10.000000	na
95.764993	0.049920	110.000000	nontarget	11.000000	na
95.814913	0.049667	110.000000	nontarget	12.000000	na
95.864580	0.050313	110.000000	nontarget	13.000000	na
95.914893	0.049550	110.000000	nontarget	14.000000	na
95.964443	0.050218	110.000000	nontarget	15.000000	na
96.014661	0.050069	110.000000	nontarget	16.000000	96.020563
96.064730	0.049799	111.000000	nontarget	1.000000	96.071444
96.114529	0.050399	111.000000	nontarget	2.000000	na
96.164928	0.050026	111.000000	nontarget	3.000000	na
96.214953	0.049533	111.000000	nontarget	4.000000	na
96.264486	0.050371	111.000000	nontarget	5.000000	na
96.314858	0.050249	111.000000	nontarget	6.000000	na
96.365106	0.049936	111.000000	nontarget	7.000000	na
96.415043	0.049904	111.000000	nontarget	8.000000	na
96.464947	0.050210	111.000000	nontarget	9.000000	na
96.515157	0.049732	111.000000	nontarget	10.000000	na
96.564888	0.049874	111.000000	nontarget	11.000000	na
96.614763	0.050531	111.000000	nontarget	12.000000	na
96.665293	0.049699	111.000000	nontarget	13.000000	na
96.714993	0.049740	111.000000	nontarget	14.000000	na
96.764733	0.050519	111.000000	nontarget	15.000000	na
96.815253	0.049760	111.000000	nontarget	16.000000	na
96.865013	0.049925	112.000000	nontarget	1.000000	na
96.914938	0.049189	112.000000	nontarget	2.000000	96.951403
96.964127	0.051125	112.000000	nontarget	3.000000	na
97.015252	0.049482	112.000000	nontarget	4.000000	na
97.064735	0.049997	112.000000	nontarget	5.000000	na
97.114732	0.050178	112.000000	nontarget	6.000000	na
97.164910	0.050421	112.000000	nontarget	7.000000	na
97.215330	0.049720	112.000000	nontarget	8.000000	na
97.265051	0.049645	112.000000	nontarget	9.000000	na
97.314695	0.050167	112.000000	nontarget	10.000000	na
97.364862	0.050145	112.000000	nontarget	11.000000	na
97.415007	0.050094	112.000000	nontarget	12.000000	na
97.465101	0.050125	112.000000	nontarget	13.000000	na
97.515226	0.049768	112.000000	nontarget	14.000000	na
97.564995	0.050017	112.000000	nontarget	15.000000	na
97.615011	0.049761	112.000000	nontarget	16.000000	na
97.664772	0.050390	113.000000	nontarget	1.000000	na
97.715162	0.049574	113.000000	nontarget	2.000000	na
97.764736	0.050575	113.000000	nontarget	3.000000	na
97.815312	0.049635	113.000000	nontarget	4.000000	na
97.864947	0.049994	113.000000	nontarget	5.000000	na
97.914941	0.050003	113.000000	nontarget	6.000000	na
97.964944	0.049373	113.000000	nontarget	7.000000	na
98.014317	0.050509	113.000000	nontarget	8.000000	98.030017
98.064826	0.050091	113.000000	nontarget	9.000000	na
98.114917	0.049451	113.000000	nontarget	10.000000	na
98.164367	0.050501	113.000000	nontarget	11.000000	na
98.214868	0.050040	113.000000	nontarget	12.000000	na
98.264908	0.049952	113.000000	nontarget	13.000000	na
98.314861	0.050083	113.000000	nontarget	14.000000	na
98.364944	0.049443	113.000000	nontarget	15.000000	na
98.414387	0.050522	113.000000	nontarget	16.000000	na
98.464910	0.050140	114.000000	nontarget	1.000000	na
98.515050	0.049863	114.000000	nontarget	2.000000	na
98.564913	0.049972	114.000000	nontarget	3.000000	na
98.614885	0.049557	114.000000	nontarget	4.000000	na
98.664442	0.049993	114.000000	nontarget	5.000000	na
98.714436	0.050299	114.000000	nontarget	6.000000	na
98.764735	0.050114	114.000000	nontarget	7.000000	na
98.814849	0.049886	114.000000	nontarget	8.000000	na
98.864735	0.049989	114.000000	nontarget	9.000000	na
98.914724	0.050008	114.000000	nontarget	10.000000	na
98.964732	0.049632	114.000000	nontarget	11.000000	na
99.014365	0.050634	114.000000	nontarget	12.000000	99.021013
99.064998	0.049647	114.000000	nontarget	13.000000	na
99.114645	0.049946	114.000000	nontarget	14.000000	na
99.164591	0.050362	114.000000	nontarget	15.000000	na
99.214953	0.049784	114.000000	nontarget	16.000000	na
99.264737	0.050505	115.000000	nontarget	1.000000	na
99.315242	0.049324	115.000000	nontarget	2.000000	na
99.364567	0.050365	115.000000	nontarget	3.000000	na
99.414931	0.049971	115.000000	nontarget	4.000000	na
99.464902	0.050004	115.000000	nontarget	5.000000	na
99.514907	0.050002	115.000000	nontarget	6.000000	na
99.564908	0.049473	115.000000	nontarget	7.000000	na
99.614382	0.050354	115.000000	nontarget	8.000000	na
99.664735	0.050165	115.000000	nontarget	9.000000	na
99.714900	0.050182	115.000000	nontarget	10.000000	na
99.765082	0.049657	115.000000	nontarget	11.000000	na
99.814739	0.050114	115.000000	nontarget	12.000000	na
99.864853	0.050087	115.000000	nontarget	13.000000	na
99.914940	0.049791	115.000000	nontarget	14.000000	na
99.964731	0.050458	115.000000	nontarget	15.000000	na
100.015189	0.049450	115.000000	nontarget	16.000000	100.026584
100.064640	0.050205	116.000000	nontarget	1.000000	100.071607
100.114844	0.050425	116.000000	nontarget	2.000000	na
100.165270	0.049672	116.000000	nontarget	3.000000	na
100.214942	0.049910	116.000000	nontarget	4.000000	na
100.264852	0.049988	116.000000	nontarget	5.000000	na
100.314840	0.050011	116.000000	nontarget	6.000000	na
100.364851	0.049803	116.000000	nontarget	7.000000	na
100.414654	0.050361	116.000000	nontarget	8.000000	na
100.465015	0.049759	116.000000	nontarget	9.000000	na
100.514773	0.049983	116.000000	nontarget	10.000000	na
100.564757	0.050126	116.000000	nontarget	11.000000	na
100.614883	0.049521	116.000000	nontarget	12.000000	na
100.664404	0.050444	116.000000	nontarget	13.000000	na
100.714848	0.050016	116.000000	nontarget	14.000000	na
100.764864	0.049723	116.000000	nontarget	15.000000	na
100.814587	0.050287	116.000000	nontarget	16.000000	na
100.864874	0.049831	117.000000	nontarget	1.000000	na
100.914704	0.050031	117.000000	nontarget	2.000000	na
100.964735	0.049958	117.000000	nontarget	3.000000	na
101.014693	0.050192	117.000000	nontarget	4.000000	101.021560
101.064885	0.049956	117.000000	nontarget	5.000000	na
101.114842	0.049890	117.000000	nontarget	6.000000	na
101.164732	0.050554	117.000000	nontarget	7.000000	na
101.215286	0.049654	117.000000	nontarget	8.000000	na
101.264940	0.049796	117.000000	nontarget	9.000000	na
101.314736	0.049477	117.000000	nontarget	10.000000	na
101.364213	0.050526	117.000000	nontarget	11.000000	na
101.414739	0.050109	117.000000	nontarget	12.000000	na
101.464848	0.049794	117.000000	nontarget	13.000000	na
101.514642	0.050217	117.000000	nontarget	14.000000	na
101.564859	0.049989	117.000000	nontarget	15.000000	na
101.614847	0.050021	117.000000	nontarget	16.000000	na
101.664868	0.049967	118.000000	nontarget	1.000000	na
101.714835	0.049786	118.000000	nontarget	2.000000	na
101.764621	0.050255	118.000000	nontarget	3.000000	na
101.814876	0.049990	118.000000	nontarget	4.000000	na
101.864865	0.049860	118.000000	nontarget	5.000000	na
101.914725	0.049617	118.000000	nontarget	6.000000	na
101.964342	0.050525	118.000000	nontarget	7.000000	101.988489
102.014867	0.050005	118.000000	nontarget	8.000000	na
102.064872	0.049862	118.000000	nontarget	9.000000	na
102.114734	0.050001	118.000000	nontarget	10.000000	na
102.164735	0.050010	118.000000	nontarget	11.000000	na
102.214745	0.050118	118.000000	nontarget	12.000000	na
102.264863	0.049799	118.000000	nontarget	13.000000	na
102.314662	0.050164	118.000000	nontarget	14.000000	na
102.364826	0.050176	118.000000	nontarget	15.000000	na
102.415002	0.049554	118.000000	nontarget	16.000000	na
102.464557	0.050309	119.000000	nontarget	1.000000	na
102.514866	0.049851	119.000000	nontarget	2.000000	na
102.564717	0.050301	119.000000	nontarget	3.000000	na
102.615018	0.049912	119.000000	nontarget	4.000000	na
102.664930	0.049610	119.000000	nontarget	5.000000	na
102.714540	0.050324	119.000000	nontarget	6.000000	na
102.764864	0.050007	119.000000	nontarget	7.000000	na
102.814870	0.049998	119.000000	nontarget	8.000000	na
102.864869	0.049964	119.000000	nontarget	9.000000	na
102.914833	0.049944	119.000000	nontarget	10.000000	na
102.964776	0.049866	119.000000	nontarget	11.000000	na
103.014642	0.050195	119.000000	nontarget	12.000000	103.030225
103.064837	0.049890	119.000000	nontarget	13.000000	na
103.114727	0.050009	119.000000	nontarget	14.000000	na
103.164736	0.049928	119.000000	nontarget	15.000000	na
103.214664	0.050207	119.000000	nontarget	16.000000	na
103.264872	0.049990	120.000000	target	1.000000	na
103.314861	0.049523	120.000000	target	2.000000	na
103.364384	0.049613	120.000000	target	3.000000	na
103.413997	0.050910	120.000000	target	4.000000	na
103.464907	0.049969	120.000000	target	5.000000	na
103.514876	0.049988	120.000000	target	6.000000	na
103.564864	0.049976	120.000000	target	7.000000	na
103.614840	0.050113	120.000000	target	8.000000	na
103.664953	0.049172	120.000000	target	9.000000	na
103.714125	0.050737	120.000000	target	10.000000	na
103.764862	0.050001	120.000000	target	11.000000	na
103.814863	0.050065	120.000000	target	12.000000	na
103.864928	0.049756	120.000000	target	13.000000	na
103.914685	0.049718	120.000000	target	14.000000	na
103.964402	0.050368	120.000000	target	15.000000	na
104.014770	0.050007	120.000000	target	16.000000	na
104.064777	0.050175	121.000000	nontarget	1.000000	na
104.114953	0.049784	121.000000	nontarget	2.000000	na
104.164737	0.049406	121.000000	nontarget	3.000000	104.189063
104.214143	0.050862	121.000000	nontarget	4.000000	na
104.265004	0.049828	121.000000	nontarget	5.000000	na
104.314832	0.049906	121.000000	nontarget	6.000000	na
104.364738	0.049961	121.000000	nontarget	7.000000	na
104.414699	0.050088	121.000000	nontarget	8.000000	na
104.464788	0.049925	121.000000	nontarget	9.000000	na
104.514713	0.049673	121.000000	nontarget	10.000000	na
