onset	duration	trial_number	trial_type	frame_number	time_of_response
8.065944	0.050014	1.000000	nontarget	1.000000	na
8.115958	0.049956	1.000000	nontarget	2.000000	na
8.165915	0.049496	1.000000	nontarget	3.000000	na
8.215410	0.050112	1.000000	nontarget	4.000000	na
8.265523	0.050412	1.000000	nontarget	5.000000	na
8.315935	0.049564	1.000000	nontarget	6.000000	na
8.365499	0.050042	1.000000	nontarget	7.000000	na
8.415541	0.050381	1.000000	nontarget	8.000000	na
8.465922	0.049546	1.000000	nontarget	9.000000	na
8.515469	0.050743	1.000000	nontarget	10.000000	na
8.566212	0.049973	1.000000	nontarget	11.000000	na
8.616185	0.049296	1.000000	nontarget	12.000000	na
8.665481	0.049975	1.000000	nontarget	13.000000	na
8.715457	0.050549	1.000000	nontarget	14.000000	na
8.766006	0.049494	1.000000	nontarget	15.000000	8.781361
8.815500	0.049993	1.000000	nontarget	16.000000	na
8.865493	0.049971	2.000000	nontarget	1.000000	8.871909
8.915464	0.050586	2.000000	nontarget	2.000000	na
8.966050	0.049830	2.000000	nontarget	3.000000	na
9.015880	0.049946	2.000000	nontarget	4.000000	na
9.065827	0.049593	2.000000	nontarget	5.000000	na
9.115420	0.050417	2.000000	nontarget	6.000000	na
9.165837	0.049625	2.000000	nontarget	7.000000	na
9.215462	0.050085	2.000000	nontarget	8.000000	na
9.265546	0.049947	2.000000	nontarget	9.000000	na
9.315493	0.049980	2.000000	nontarget	10.000000	na
9.365474	0.050112	2.000000	nontarget	11.000000	na
9.415586	0.049665	2.000000	nontarget	12.000000	na
9.465251	0.049794	2.000000	nontarget	13.000000	na
9.515045	0.050342	2.000000	nontarget	14.000000	na
9.565387	0.050426	2.000000	nontarget	15.000000	na
9.615813	0.049948	2.000000	nontarget	16.000000	na
9.665761	0.050461	3.000000	nontarget	1.000000	na
9.716222	0.049587	3.000000	nontarget	2.000000	na
9.765809	0.049993	3.000000	nontarget	3.000000	9.797183
9.815803	0.049782	3.000000	nontarget	4.000000	na
9.865585	0.050633	3.000000	nontarget	5.000000	na
9.916218	0.049260	3.000000	nontarget	6.000000	na
9.965479	0.049969	3.000000	nontarget	7.000000	na
10.015447	0.050307	3.000000	nontarget	8.000000	na
10.065754	0.049910	3.000000	nontarget	9.000000	na
10.115665	0.050065	3.000000	nontarget	10.000000	na
10.165729	0.049719	3.000000	nontarget	11.000000	na
10.215448	0.049991	3.000000	nontarget	12.000000	na
10.265439	0.050613	3.000000	nontarget	13.000000	na
10.316052	0.049428	3.000000	nontarget	14.000000	na
10.365480	0.050718	3.000000	nontarget	15.000000	na
10.416197	0.049366	3.000000	nontarget	16.000000	na
10.465563	0.049782	4.000000	nontarget	1.000000	na
10.515345	0.050757	4.000000	nontarget	2.000000	10.526596
10.566103	0.049410	4.000000	nontarget	3.000000	na
10.615513	0.050218	4.000000	nontarget	4.000000	na
10.665732	0.050459	4.000000	nontarget	5.000000	na
10.716190	0.049059	4.000000	nontarget	6.000000	na
10.765249	0.050203	4.000000	nontarget	7.000000	na
10.815453	0.050413	4.000000	nontarget	8.000000	na
10.865866	0.049518	4.000000	nontarget	9.000000	na
10.915384	0.050066	4.000000	nontarget	10.000000	na
10.965450	0.050042	4.000000	nontarget	11.000000	na
11.015493	0.049950	4.000000	nontarget	12.000000	na
11.065443	0.050022	4.000000	nontarget	13.000000	na
11.115464	0.050324	4.000000	nontarget	14.000000	na
11.165788	0.049914	4.000000	nontarget	15.000000	na
11.215702	0.050211	4.000000	nontarget	16.000000	na
11.265913	0.050053	5.000000	nontarget	1.000000	11.272878
11.315966	0.049130	5.000000	nontarget	2.000000	na
11.365096	0.050264	5.000000	nontarget	3.000000	na
11.415360	0.050072	5.000000	nontarget	4.000000	na
11.465432	0.050139	5.000000	nontarget	5.000000	na
11.515571	0.049900	5.000000	nontarget	6.000000	na
11.565471	0.049996	5.000000	nontarget	7.000000	na
11.615467	0.049991	5.000000	nontarget	8.000000	na
11.665458	0.049899	5.000000	nontarget	9.000000	na
11.715357	0.050136	5.000000	nontarget	10.000000	na
11.765493	0.049957	5.000000	nontarget	11.000000	na
11.815450	0.050249	5.000000	nontarget	12.000000	na
11.865698	0.049639	5.000000	nontarget	13.000000	na
11.915337	0.050471	5.000000	nontarget	14.000000	na
11.965808	0.049916	5.000000	nontarget	15.000000	na
12.015724	0.050107	5.000000	nontarget	16.000000	na
12.065831	0.049988	6.000000	nontarget	1.000000	12.075341
12.115819	0.049658	6.000000	nontarget	2.000000	na
12.165477	0.049767	6.000000	nontarget	3.000000	na
12.215243	0.050220	6.000000	nontarget	4.000000	na
12.265463	0.049982	6.000000	nontarget	5.000000	na
12.315445	0.050026	6.000000	nontarget	6.000000	na
12.365471	0.050407	6.000000	nontarget	7.000000	na
12.415879	0.049967	6.000000	nontarget	8.000000	na
12.465846	0.049592	6.000000	nontarget	9.000000	na
12.515438	0.049924	6.000000	nontarget	10.000000	na
12.565362	0.049545	6.000000	nontarget	11.000000	na
12.614906	0.050553	6.000000	nontarget	12.000000	na
12.665460	0.049547	6.000000	nontarget	13.000000	na
12.715006	0.050430	6.000000	nontarget	14.000000	na
12.765436	0.050274	6.000000	nontarget	15.000000	na
12.815710	0.049857	6.000000	nontarget	16.000000	12.822325
12.865567	0.049851	7.000000	nontarget	1.000000	12.872146
12.915418	0.049718	7.000000	nontarget	2.000000	na
12.965136	0.049574	7.000000	nontarget	3.000000	na
13.014710	0.050179	7.000000	nontarget	4.000000	na
13.064888	0.049976	7.000000	nontarget	5.000000	na
13.114865	0.050927	7.000000	nontarget	6.000000	na
13.165791	0.049636	7.000000	nontarget	7.000000	na
13.215427	0.050234	7.000000	nontarget	8.000000	na
13.265662	0.049807	7.000000	nontarget	9.000000	na
13.315469	0.049839	7.000000	nontarget	10.000000	na
13.365308	0.050232	7.000000	nontarget	11.000000	na
13.415540	0.049320	7.000000	nontarget	12.000000	na
13.464860	0.050050	7.000000	nontarget	13.000000	na
13.514909	0.050491	7.000000	nontarget	14.000000	na
13.565401	0.050170	7.000000	nontarget	15.000000	na
13.615571	0.049879	7.000000	nontarget	16.000000	na
13.665450	0.050021	8.000000	nontarget	1.000000	na
13.715471	0.049946	8.000000	nontarget	2.000000	13.743643
13.765417	0.049546	8.000000	nontarget	3.000000	na
13.814963	0.049867	8.000000	nontarget	4.000000	na
13.864830	0.050190	8.000000	nontarget	5.000000	na
13.915020	0.050128	8.000000	nontarget	6.000000	na
13.965149	0.050289	8.000000	nontarget	7.000000	na
14.015438	0.049277	8.000000	nontarget	8.000000	na
14.064715	0.050256	8.000000	nontarget	9.000000	na
14.114972	0.050461	8.000000	nontarget	10.000000	na
14.165432	0.050372	8.000000	nontarget	11.000000	na
14.215804	0.049609	8.000000	nontarget	12.000000	na
14.265413	0.050025	8.000000	nontarget	13.000000	na
14.315439	0.049764	8.000000	nontarget	14.000000	na
14.365203	0.050423	8.000000	nontarget	15.000000	na
14.415626	0.049185	8.000000	nontarget	16.000000	na
14.464810	0.050618	9.000000	nontarget	1.000000	na
14.515429	0.049425	9.000000	nontarget	2.000000	na
14.564854	0.050465	9.000000	nontarget	3.000000	na
14.615319	0.049781	9.000000	nontarget	4.000000	14.621739
14.665100	0.049914	9.000000	nontarget	5.000000	na
14.715013	0.049558	9.000000	nontarget	6.000000	na
14.764572	0.050424	9.000000	nontarget	7.000000	na
14.814995	0.050410	9.000000	nontarget	8.000000	na
14.865405	0.049626	9.000000	nontarget	9.000000	na
14.915031	0.050293	9.000000	nontarget	10.000000	na
14.965324	0.049898	9.000000	nontarget	11.000000	na
15.015222	0.050186	9.000000	nontarget	12.000000	na
15.065408	0.049964	9.000000	nontarget	13.000000	na
15.115372	0.050054	9.000000	nontarget	14.000000	na
15.165426	0.049995	9.000000	nontarget	15.000000	na
15.215421	0.049984	9.000000	nontarget	16.000000	na
15.265405	0.049979	10.000000	nontarget	1.000000	na
15.315384	0.049891	10.000000	nontarget	2.000000	na
15.365275	0.050145	10.000000	nontarget	3.000000	na
15.415420	0.050071	10.000000	nontarget	4.000000	na
15.465492	0.049532	10.000000	nontarget	5.000000	na
15.515024	0.050534	10.000000	nontarget	6.000000	na
15.565558	0.049605	10.000000	nontarget	7.000000	15.572034
15.615163	0.050268	10.000000	nontarget	8.000000	na
15.665431	0.049405	10.000000	nontarget	9.000000	na
15.714835	0.050595	10.000000	nontarget	10.000000	na
15.765430	0.049982	10.000000	nontarget	11.000000	na
15.815412	0.049315	10.000000	nontarget	12.000000	na
15.864727	0.050696	10.000000	nontarget	13.000000	na
15.915423	0.049841	10.000000	nontarget	14.000000	na
15.965264	0.050233	10.000000	nontarget	15.000000	na
16.015497	0.049927	10.000000	nontarget	16.000000	na
16.065424	0.049449	11.000000	nontarget	1.000000	na
16.114873	0.049828	11.000000	nontarget	2.000000	na
16.164701	0.050700	11.000000	nontarget	3.000000	na
16.215401	0.050009	11.000000	nontarget	4.000000	na
16.265410	0.049413	11.000000	nontarget	5.000000	na
16.314823	0.050587	11.000000	nontarget	6.000000	na
16.365410	0.049967	11.000000	nontarget	7.000000	na
16.415376	0.050002	11.000000	nontarget	8.000000	16.421932
16.465379	0.049506	11.000000	nontarget	9.000000	na
16.514885	0.049566	11.000000	nontarget	10.000000	na
16.564451	0.050737	11.000000	nontarget	11.000000	na
16.615188	0.050205	11.000000	nontarget	12.000000	na
16.665393	0.049932	11.000000	nontarget	13.000000	na
16.715324	0.049690	11.000000	nontarget	14.000000	na
16.765015	0.050416	11.000000	nontarget	15.000000	na
16.815431	0.049840	11.000000	nontarget	16.000000	na
16.865270	0.050128	12.000000	nontarget	1.000000	na
16.915398	0.049984	12.000000	nontarget	2.000000	na
16.965382	0.049988	12.000000	nontarget	3.000000	na
17.015370	0.050146	12.000000	nontarget	4.000000	na
17.065515	0.049806	12.000000	nontarget	5.000000	na
17.115322	0.050068	12.000000	nontarget	6.000000	na
17.165390	0.049879	12.000000	nontarget	7.000000	na
17.215269	0.049934	12.000000	nontarget	8.000000	17.250531
17.265203	0.049800	12.000000	nontarget	9.000000	na
17.315004	0.050386	12.000000	nontarget	10.000000	na
17.365390	0.050007	12.000000	nontarget	11.000000	na
17.415397	0.049948	12.000000	nontarget	12.000000	na
17.465345	0.050017	12.000000	nontarget	13.000000	na
17.515362	0.050020	12.000000	nontarget	14.000000	na
17.565381	0.049999	12.000000	nontarget	15.000000	na
17.615380	0.050122	12.000000	nontarget	16.000000	na
17.665502	0.049478	13.000000	nontarget	1.000000	na
17.714980	0.049804	13.000000	nontarget	2.000000	na
17.764784	0.050585	13.000000	nontarget	3.000000	na
17.815369	0.049983	13.000000	nontarget	4.000000	na
17.865352	0.049774	13.000000	nontarget	5.000000	na
17.915127	0.050172	13.000000	nontarget	6.000000	na
17.965298	0.049654	13.000000	nontarget	7.000000	na
18.014952	0.050725	13.000000	nontarget	8.000000	na
18.065677	0.049251	13.000000	nontarget	9.000000	na
18.114928	0.049764	13.000000	nontarget	10.000000	na
18.164693	0.050650	13.000000	nontarget	11.000000	na
18.215343	0.049980	13.000000	nontarget	12.000000	18.221963
18.265323	0.049628	13.000000	nontarget	13.000000	na
18.314952	0.050456	13.000000	nontarget	14.000000	na
18.365408	0.050262	13.000000	nontarget	15.000000	na
18.415670	0.049652	13.000000	nontarget	16.000000	na
18.465322	0.049952	14.000000	nontarget	1.000000	na
18.515274	0.050290	14.000000	nontarget	2.000000	na
18.565564	0.049503	14.000000	nontarget	3.000000	na
18.615068	0.049565	14.000000	nontarget	4.000000	na
18.664633	0.050102	14.000000	nontarget	5.000000	na
18.714734	0.050439	14.000000	nontarget	6.000000	na
18.765173	0.049985	14.000000	nontarget	7.000000	na
18.815158	0.049622	14.000000	nontarget	8.000000	na
18.864781	0.050218	14.000000	nontarget	9.000000	na
18.914998	0.049792	14.000000	nontarget	10.000000	na
18.964790	0.050763	14.000000	nontarget	11.000000	na
19.015553	0.049822	14.000000	nontarget	12.000000	19.026859
19.065375	0.049687	14.000000	nontarget	13.000000	na
19.115061	0.050192	14.000000	nontarget	14.000000	na
19.165253	0.050299	14.000000	nontarget	15.000000	na
19.215552	0.049175	14.000000	nontarget	16.000000	na
19.264727	0.050120	15.000000	nontarget	1.000000	na
19.314847	0.049946	15.000000	nontarget	2.000000	na
19.364792	0.050608	15.000000	nontarget	3.000000	na
19.415400	0.049924	15.000000	nontarget	4.000000	na
19.465324	0.049605	15.000000	nontarget	5.000000	na
19.514929	0.050350	15.000000	nontarget	6.000000	na
19.565279	0.050092	15.000000	nontarget	7.000000	na
19.615370	0.049822	15.000000	nontarget	8.000000	na
19.665192	0.049833	15.000000	nontarget	9.000000	na
19.715025	0.050127	15.000000	nontarget	10.000000	na
19.765153	0.049998	15.000000	nontarget	11.000000	na
19.815151	0.050068	15.000000	nontarget	12.000000	na
19.865220	0.050085	15.000000	nontarget	13.000000	na
19.915305	0.049393	15.000000	nontarget	14.000000	na
19.964698	0.050744	15.000000	nontarget	15.000000	na
20.015442	0.050000	15.000000	nontarget	16.000000	na
20.065442	0.049924	16.000000	target	1.000000	na
20.115366	0.049693	16.000000	target	2.000000	na
20.165059	0.050127	16.000000	target	3.000000	na
20.215186	0.050038	16.000000	target	4.000000	na
20.265224	0.049811	16.000000	target	5.000000	na
20.315035	0.050089	16.000000	target	6.000000	na
20.365125	0.050025	16.000000	target	7.000000	na
20.415150	0.050051	16.000000	target	8.000000	na
20.465201	0.049859	16.000000	target	9.000000	na
20.515060	0.050385	16.000000	target	10.000000	na
20.565445	0.049594	16.000000	target	11.000000	na
20.615039	0.049507	16.000000	target	12.000000	na
20.664546	0.050588	16.000000	target	13.000000	na
20.715134	0.050096	16.000000	target	14.000000	na
20.765230	0.049138	16.000000	target	15.000000	na
20.814368	0.050545	16.000000	target	16.000000	na
20.864914	0.050007	17.000000	nontarget	1.000000	na
20.914920	0.050245	17.000000	nontarget	2.000000	20.921572
20.965165	0.050161	17.000000	nontarget	3.000000	na
21.015327	0.050021	17.000000	nontarget	4.000000	na
21.065347	0.049886	17.000000	nontarget	5.000000	na
21.115233	0.049738	17.000000	nontarget	6.000000	na
21.164971	0.050152	17.000000	nontarget	7.000000	na
21.215123	0.050224	17.000000	nontarget	8.000000	na
21.265347	0.049976	17.000000	nontarget	9.000000	na
21.315324	0.049790	17.000000	nontarget	10.000000	na
21.365113	0.050001	17.000000	nontarget	11.000000	na
21.415115	0.050199	17.000000	nontarget	12.000000	na
21.465313	0.049593	17.000000	nontarget	13.000000	na
21.514907	0.049677	17.000000	nontarget	14.000000	na
21.564584	0.049788	17.000000	nontarget	15.000000	na
21.614373	0.050455	17.000000	nontarget	16.000000	na
21.664827	0.050096	18.000000	nontarget	1.000000	na
21.714923	0.050059	18.000000	nontarget	2.000000	na
21.764982	0.050270	18.000000	nontarget	3.000000	21.771560
21.815253	0.049765	18.000000	nontarget	4.000000	na
21.865018	0.049642	18.000000	nontarget	5.000000	na
21.914660	0.050392	18.000000	nontarget	6.000000	na
21.965052	0.050201	18.000000	nontarget	7.000000	na
22.015253	0.049346	18.000000	nontarget	8.000000	na
22.064598	0.050469	18.000000	nontarget	9.000000	na
22.115068	0.049991	18.000000	nontarget	10.000000	na
22.165059	0.049640	18.000000	nontarget	11.000000	na
22.214699	0.050378	18.000000	nontarget	12.000000	na
22.265078	0.049853	18.000000	nontarget	13.000000	na
22.314931	0.049921	18.000000	nontarget	14.000000	na
22.364852	0.050197	18.000000	nontarget	15.000000	na
22.415049	0.049694	18.000000	nontarget	16.000000	na
22.464742	0.050537	19.000000	nontarget	1.000000	na
22.515279	0.049986	19.000000	nontarget	2.000000	na
22.565265	0.049329	19.000000	nontarget	3.000000	na
22.614594	0.049691	19.000000	nontarget	4.000000	na
22.664285	0.050598	19.000000	nontarget	5.000000	na
22.714883	0.049434	19.000000	nontarget	6.000000	na
22.764317	0.050764	19.000000	nontarget	7.000000	na
22.815081	0.049954	19.000000	nontarget	8.000000	na
22.865036	0.049536	19.000000	nontarget	9.000000	22.893806
22.914572	0.050494	19.000000	nontarget	10.000000	na
22.965066	0.049597	19.000000	nontarget	11.000000	na
23.014662	0.050365	19.000000	nontarget	12.000000	na
23.065028	0.049696	19.000000	nontarget	13.000000	na
23.114724	0.050112	19.000000	nontarget	14.000000	na
23.164836	0.049541	19.000000	nontarget	15.000000	na
23.214377	0.050015	19.000000	nontarget	16.000000	na
23.264392	0.050578	20.000000	target	1.000000	na
23.314970	0.049867	20.000000	target	2.000000	na
23.364837	0.050060	20.000000	target	3.000000	na
23.414897	0.049944	20.000000	target	4.000000	na
23.464842	0.050266	20.000000	target	5.000000	na
23.515108	0.050032	20.000000	target	6.000000	na
23.565140	0.049879	20.000000	target	7.000000	na
23.615019	0.049927	20.000000	target	8.000000	na
23.664946	0.049958	20.000000	target	9.000000	na
23.714904	0.049527	20.000000	target	10.000000	na
23.764432	0.050518	20.000000	target	11.000000	na
23.814950	0.049680	20.000000	target	12.000000	na
23.864629	0.050398	20.000000	target	13.000000	na
23.915027	0.049932	20.000000	target	14.000000	na
23.964959	0.049617	20.000000	target	15.000000	na
24.014575	0.049946	20.000000	target	16.000000	na
24.064522	0.049890	21.000000	nontarget	1.000000	na
24.114411	0.050437	21.000000	nontarget	2.000000	24.120982
24.164848	0.050138	21.000000	nontarget	3.000000	na
24.214986	0.049928	21.000000	nontarget	4.000000	na
24.264914	0.050005	21.000000	nontarget	5.000000	na
24.314919	0.049719	21.000000	nontarget	6.000000	na
24.364638	0.049572	21.000000	nontarget	7.000000	na
24.414209	0.050682	21.000000	nontarget	8.000000	na
24.464892	0.050203	21.000000	nontarget	9.000000	na
24.515094	0.049269	21.000000	nontarget	10.000000	na
24.564363	0.050300	21.000000	nontarget	11.000000	na
24.614663	0.049757	21.000000	nontarget	12.000000	na
24.664420	0.050470	21.000000	nontarget	13.000000	na
24.714890	0.049624	21.000000	nontarget	14.000000	na
24.764514	0.049817	21.000000	nontarget	15.000000	na
24.814331	0.050573	21.000000	nontarget	16.000000	na
24.864904	0.049279	22.000000	nontarget	1.000000	na
24.914183	0.050388	22.000000	nontarget	2.000000	na
24.964572	0.050309	22.000000	nontarget	3.000000	na
25.014881	0.050129	22.000000	nontarget	4.000000	na
25.065010	0.049781	22.000000	nontarget	5.000000	na
25.114792	0.049390	22.000000	nontarget	6.000000	na
25.164182	0.050526	22.000000	nontarget	7.000000	na
25.214707	0.050034	22.000000	nontarget	8.000000	na
25.264741	0.050030	22.000000	nontarget	9.000000	25.271339
25.314771	0.050111	22.000000	nontarget	10.000000	na
25.364883	0.049209	22.000000	nontarget	11.000000	na
25.414092	0.050786	22.000000	nontarget	12.000000	na
25.464878	0.050150	22.000000	nontarget	13.000000	na
25.515028	0.049598	22.000000	nontarget	14.000000	na
25.564626	0.050138	22.000000	nontarget	15.000000	na
25.614765	0.049815	22.000000	nontarget	16.000000	na
25.664580	0.050205	23.000000	nontarget	1.000000	na
25.714785	0.049558	23.000000	nontarget	2.000000	na
25.764344	0.050519	23.000000	nontarget	3.000000	na
25.814863	0.050087	23.000000	nontarget	4.000000	na
25.864950	0.049324	23.000000	nontarget	5.000000	na
25.914274	0.050652	23.000000	nontarget	6.000000	na
25.964926	0.049408	23.000000	nontarget	7.000000	na
26.014334	0.050007	23.000000	nontarget	8.000000	na
26.064340	0.049701	23.000000	nontarget	9.000000	na
26.114042	0.050776	23.000000	nontarget	10.000000	na
26.164818	0.049706	23.000000	nontarget	11.000000	na
26.214524	0.050145	23.000000	nontarget	12.000000	na
26.264669	0.049989	23.000000	nontarget	13.000000	na
26.314657	0.049843	23.000000	nontarget	14.000000	na
26.364501	0.049692	23.000000	nontarget	15.000000	26.371058
26.414193	0.049991	23.000000	nontarget	16.000000	na
26.464184	0.050580	24.000000	nontarget	1.000000	26.470703
26.514763	0.049885	24.000000	nontarget	2.000000	na
26.564649	0.050227	24.000000	nontarget	3.000000	na
26.614875	0.049961	24.000000	nontarget	4.000000	na
26.664837	0.049895	24.000000	nontarget	5.000000	na
26.714732	0.049676	24.000000	nontarget	6.000000	na
26.764407	0.050466	24.000000	nontarget	7.000000	na
26.814873	0.049904	24.000000	nontarget	8.000000	na
26.864777	0.050098	24.000000	nontarget	9.000000	na
26.914875	0.049440	24.000000	nontarget	10.000000	na
26.964315	0.050514	24.000000	nontarget	11.000000	na
27.014829	0.050064	24.000000	nontarget	12.000000	na
27.064892	0.049631	24.000000	nontarget	13.000000	na
27.114524	0.050228	24.000000	nontarget	14.000000	na
27.164752	0.049914	24.000000	nontarget	15.000000	na
27.214665	0.049887	24.000000	nontarget	16.000000	na
27.264553	0.049606	25.000000	nontarget	1.000000	na
27.314159	0.050780	25.000000	nontarget	2.000000	na
27.364939	0.049782	25.000000	nontarget	3.000000	na
27.414721	0.050223	25.000000	nontarget	4.000000	27.421312
27.464943	0.049382	25.000000	nontarget	5.000000	na
27.514326	0.050615	25.000000	nontarget	6.000000	na
27.564941	0.049741	25.000000	nontarget	7.000000	na
27.614682	0.049276	25.000000	nontarget	8.000000	na
27.663958	0.049976	25.000000	nontarget	9.000000	na
27.713935	0.050786	25.000000	nontarget	10.000000	na
27.764720	0.049349	25.000000	nontarget	11.000000	na
27.814069	0.049987	25.000000	nontarget	12.000000	na
27.864056	0.050567	25.000000	nontarget	13.000000	na
27.914623	0.049543	25.000000	nontarget	14.000000	na
27.964165	0.050099	25.000000	nontarget	15.000000	na
28.014265	0.049857	25.000000	nontarget	16.000000	na
28.064122	0.050688	26.000000	target	1.000000	na
28.114810	0.049879	26.000000	target	2.000000	na
28.164688	0.049875	26.000000	target	3.000000	na
28.214563	0.049582	26.000000	target	4.000000	na
28.264145	0.050416	26.000000	target	5.000000	na
28.314561	0.049814	26.000000	target	6.000000	na
28.364375	0.049788	26.000000	target	7.000000	na
28.414163	0.050508	26.000000	target	8.000000	na
28.464671	0.050001	26.000000	target	9.000000	na
28.514672	0.049396	26.000000	target	10.000000	na
28.564068	0.050461	26.000000	target	11.000000	na
28.614529	0.050154	26.000000	target	12.000000	na
28.664683	0.049978	26.000000	target	13.000000	na
28.714661	0.049963	26.000000	target	14.000000	na
28.764624	0.049161	26.000000	target	15.000000	na
28.813785	0.050995	26.000000	target	16.000000	na
28.864780	0.049763	27.000000	nontarget	1.000000	na
28.914542	0.050033	27.000000	nontarget	2.000000	na
28.964575	0.050017	27.000000	nontarget	3.000000	na
29.014592	0.049818	27.000000	nontarget	4.000000	29.038764
29.064410	0.049592	27.000000	nontarget	5.000000	na
29.114002	0.050575	27.000000	nontarget	6.000000	na
29.164578	0.049812	27.000000	nontarget	7.000000	na
29.214390	0.050471	27.000000	nontarget	8.000000	na
29.264861	0.049046	27.000000	nontarget	9.000000	na
29.313907	0.050867	27.000000	nontarget	10.000000	na
29.364773	0.048885	27.000000	nontarget	11.000000	na
29.413658	0.051082	27.000000	nontarget	12.000000	na
29.464740	0.049988	27.000000	nontarget	13.000000	na
29.514728	0.050019	27.000000	nontarget	14.000000	na
29.564747	0.049604	27.000000	nontarget	15.000000	na
29.614351	0.049471	27.000000	nontarget	16.000000	na
29.663822	0.050642	28.000000	nontarget	1.000000	na
29.714464	0.049807	28.000000	nontarget	2.000000	na
29.764271	0.050248	28.000000	nontarget	3.000000	na
29.814519	0.049525	28.000000	nontarget	4.000000	na
29.864044	0.049761	28.000000	nontarget	5.000000	na
29.913805	0.050505	28.000000	nontarget	6.000000	na
29.964310	0.050233	28.000000	nontarget	7.000000	na
30.014543	0.049926	28.000000	nontarget	8.000000	na
30.064469	0.050099	28.000000	nontarget	9.000000	30.094828
30.114567	0.049645	28.000000	nontarget	10.000000	na
30.164213	0.050380	28.000000	nontarget	11.000000	na
30.214593	0.049963	28.000000	nontarget	12.000000	na
30.264556	0.049896	28.000000	nontarget	13.000000	na
30.314452	0.050281	28.000000	nontarget	14.000000	na
30.364733	0.049582	28.000000	nontarget	15.000000	na
30.414314	0.049686	28.000000	nontarget	16.000000	na
30.464000	0.049763	29.000000	nontarget	1.000000	na
30.513763	0.050927	29.000000	nontarget	2.000000	na
30.564690	0.049517	29.000000	nontarget	3.000000	na
30.614208	0.049928	29.000000	nontarget	4.000000	na
30.664136	0.050602	29.000000	nontarget	5.000000	na
30.714738	0.049699	29.000000	nontarget	6.000000	na
30.764437	0.049765	29.000000	nontarget	7.000000	na
30.814202	0.050295	29.000000	nontarget	8.000000	na
30.864496	0.049307	29.000000	nontarget	9.000000	na
30.913804	0.050421	29.000000	nontarget	10.000000	na
30.964225	0.050105	29.000000	nontarget	11.000000	na
31.014329	0.049615	29.000000	nontarget	12.000000	na
31.063945	0.050311	29.000000	nontarget	13.000000	na
31.114256	0.050079	29.000000	nontarget	14.000000	na
31.164335	0.049257	29.000000	nontarget	15.000000	na
31.213592	0.050668	29.000000	nontarget	16.000000	na
31.264260	0.050285	30.000000	nontarget	1.000000	31.270975
31.314545	0.049365	30.000000	nontarget	2.000000	na
31.363910	0.050585	30.000000	nontarget	3.000000	na
31.414495	0.050078	30.000000	nontarget	4.000000	na
31.464572	0.050089	30.000000	nontarget	5.000000	na
31.514662	0.049295	30.000000	nontarget	6.000000	na
31.563957	0.050374	30.000000	nontarget	7.000000	na
31.614330	0.049417	30.000000	nontarget	8.000000	na
31.663747	0.050800	30.000000	nontarget	9.000000	na
31.714547	0.049986	30.000000	nontarget	10.000000	na
31.764533	0.049814	30.000000	nontarget	11.000000	na
31.814347	0.049992	30.000000	nontarget	12.000000	na
31.864339	0.050315	30.000000	nontarget	13.000000	na
31.914654	0.049777	30.000000	nontarget	14.000000	na
31.964431	0.049814	30.000000	nontarget	15.000000	na
32.014245	0.049777	30.000000	nontarget	16.000000	na
32.064022	0.049717	31.000000	nontarget	1.000000	na
32.113739	0.050709	31.000000	nontarget	2.000000	na
32.164448	0.050132	31.000000	nontarget	3.000000	na
32.214580	0.050011	31.000000	nontarget	4.000000	na
32.264591	0.049124	31.000000	nontarget	5.000000	na
32.313714	0.050854	31.000000	nontarget	6.000000	32.325237
32.364569	0.049376	31.000000	nontarget	7.000000	na
32.413945	0.050477	31.000000	nontarget	8.000000	na
32.464422	0.050083	31.000000	nontarget	9.000000	na
32.514504	0.049940	31.000000	nontarget	10.000000	na
32.564444	0.049327	31.000000	nontarget	11.000000	na
32.613771	0.050638	31.000000	nontarget	12.000000	na
32.664409	0.049880	31.000000	nontarget	13.000000	na
32.714290	0.050202	31.000000	nontarget	14.000000	na
32.764492	0.049765	31.000000	nontarget	15.000000	na
32.814257	0.050206	31.000000	nontarget	16.000000	na
32.864463	0.049356	32.000000	nontarget	1.000000	na
32.913819	0.050565	32.000000	nontarget	2.000000	na
32.964384	0.050036	32.000000	nontarget	3.000000	na
33.014420	0.049999	32.000000	nontarget	4.000000	na
33.064420	0.050019	32.000000	nontarget	5.000000	na
33.114439	0.049866	32.000000	nontarget	6.000000	na
33.164304	0.049385	32.000000	nontarget	7.000000	na
33.213689	0.050633	32.000000	nontarget	8.000000	33.249493
33.264322	0.049897	32.000000	nontarget	9.000000	na
33.314219	0.050128	32.000000	nontarget	10.000000	na
33.364347	0.049639	32.000000	nontarget	11.000000	na
33.413986	0.050556	32.000000	nontarget	12.000000	na
33.464542	0.050036	32.000000	nontarget	13.000000	na
33.514578	0.049743	32.000000	nontarget	14.000000	na
33.564321	0.050108	32.000000	nontarget	15.000000	na
33.614429	0.049976	32.000000	nontarget	16.000000	na
33.664405	0.049524	33.000000	nontarget	1.000000	na
33.713929	0.050379	33.000000	nontarget	2.000000	na
33.764309	0.050015	33.000000	nontarget	3.000000	na
33.814324	0.049964	33.000000	nontarget	4.000000	na
33.864288	0.050347	33.000000	nontarget	5.000000	na
33.914635	0.049160	33.000000	nontarget	6.000000	na
33.963795	0.050438	33.000000	nontarget	7.000000	na
34.014233	0.049835	33.000000	nontarget	8.000000	na
34.064068	0.050315	33.000000	nontarget	9.000000	na
34.114383	0.049893	33.000000	nontarget	10.000000	na
34.164276	0.050172	33.000000	nontarget	11.000000	na
34.214448	0.049695	33.000000	nontarget	12.000000	34.225683
34.264143	0.050269	33.000000	nontarget	13.000000	na
34.314412	0.049443	33.000000	nontarget	14.000000	na
34.363855	0.049983	33.000000	nontarget	15.000000	na
34.413838	0.050491	33.000000	nontarget	16.000000	na
34.464329	0.049785	34.000000	nontarget	1.000000	na
34.514114	0.050005	34.000000	nontarget	2.000000	na
34.564119	0.049563	34.000000	nontarget	3.000000	na
34.613682	0.050751	34.000000	nontarget	4.000000	na
34.664433	0.049742	34.000000	nontarget	5.000000	na
34.714174	0.049559	34.000000	nontarget	6.000000	na
34.763733	0.050639	34.000000	nontarget	7.000000	na
34.814372	0.049453	34.000000	nontarget	8.000000	na
34.863825	0.050644	34.000000	nontarget	9.000000	na
34.914470	0.049613	34.000000	nontarget	10.000000	na
34.964083	0.050167	34.000000	nontarget	11.000000	na
35.014250	0.049476	34.000000	nontarget	12.000000	na
35.063726	0.050240	34.000000	nontarget	13.000000	na
35.113965	0.050614	34.000000	nontarget	14.000000	35.145904
35.164580	0.049662	34.000000	nontarget	15.000000	na
35.214241	0.049949	34.000000	nontarget	16.000000	na
35.264190	0.049135	35.000000	nontarget	1.000000	35.270705
35.313325	0.050878	35.000000	nontarget	2.000000	na
35.364203	0.049666	35.000000	nontarget	3.000000	na
35.413869	0.050343	35.000000	nontarget	4.000000	na
35.464212	0.050256	35.000000	nontarget	5.000000	na
35.514468	0.049270	35.000000	nontarget	6.000000	na
35.563738	0.050407	35.000000	nontarget	7.000000	na
35.614145	0.049865	35.000000	nontarget	8.000000	na
35.664010	0.050536	35.000000	nontarget	9.000000	na
35.714546	0.049647	35.000000	nontarget	10.000000	na
35.764193	0.050315	35.000000	nontarget	11.000000	na
35.814508	0.049672	35.000000	nontarget	12.000000	na
35.864179	0.049440	35.000000	nontarget	13.000000	na
35.913620	0.050551	35.000000	nontarget	14.000000	na
35.964171	0.050056	35.000000	nontarget	15.000000	na
36.014227	0.049899	35.000000	nontarget	16.000000	na
36.064127	0.049893	36.000000	nontarget	1.000000	na
36.114020	0.050016	36.000000	nontarget	2.000000	na
36.164035	0.049757	36.000000	nontarget	3.000000	36.192276
36.213792	0.050738	36.000000	nontarget	4.000000	na
36.264531	0.049087	36.000000	nontarget	5.000000	na
36.313618	0.049868	36.000000	nontarget	6.000000	na
36.363486	0.050801	36.000000	nontarget	7.000000	na
36.414286	0.049885	36.000000	nontarget	8.000000	na
36.464171	0.049504	36.000000	nontarget	9.000000	na
36.513676	0.050470	36.000000	nontarget	10.000000	na
36.564145	0.049887	36.000000	nontarget	11.000000	na
36.614032	0.050481	36.000000	nontarget	12.000000	na
36.664513	0.049638	36.000000	nontarget	13.000000	na
36.714151	0.049666	36.000000	nontarget	14.000000	na
36.763817	0.050468	36.000000	nontarget	15.000000	na
36.814285	0.049364	36.000000	nontarget	16.000000	na
36.863649	0.050438	37.000000	nontarget	1.000000	na
36.914087	0.049724	37.000000	nontarget	2.000000	na
36.963811	0.049758	37.000000	nontarget	3.000000	na
37.013569	0.050062	37.000000	nontarget	4.000000	na
37.063631	0.050178	37.000000	nontarget	5.000000	na
37.113809	0.050279	37.000000	nontarget	6.000000	na
37.164088	0.050315	37.000000	nontarget	7.000000	37.181991
37.214402	0.049108	37.000000	nontarget	8.000000	na
37.263511	0.050730	37.000000	nontarget	9.000000	na
37.314241	0.050081	37.000000	nontarget	10.000000	na
37.364322	0.049680	37.000000	nontarget	11.000000	na
37.414002	0.049882	37.000000	nontarget	12.000000	na
37.463884	0.049784	37.000000	nontarget	13.000000	na
37.513668	0.049997	37.000000	nontarget	14.000000	na
37.563665	0.050523	37.000000	nontarget	15.000000	na
37.614188	0.049851	37.000000	nontarget	16.000000	na
37.664039	0.049831	38.000000	target	1.000000	na
37.713870	0.050178	38.000000	target	2.000000	na
37.764049	0.049610	38.000000	target	3.000000	na
37.813659	0.049750	38.000000	target	4.000000	na
37.863409	0.050570	38.000000	target	5.000000	na
37.913979	0.049689	38.000000	target	6.000000	na
37.963668	0.049867	38.000000	target	7.000000	na
38.013535	0.049969	38.000000	target	8.000000	na
38.063504	0.050564	38.000000	target	9.000000	na
38.114069	0.049980	38.000000	target	10.000000	na
38.164049	0.049450	38.000000	target	11.000000	na
38.213499	0.050517	38.000000	target	12.000000	na
38.264016	0.049382	38.000000	target	13.000000	na
38.313398	0.050589	38.000000	target	14.000000	na
38.363987	0.049510	38.000000	target	15.000000	na
38.413497	0.050566	38.000000	target	16.000000	na
38.464063	0.049490	39.000000	nontarget	1.000000	na
38.513552	0.050514	39.000000	nontarget	2.000000	na
38.564066	0.049929	39.000000	nontarget	3.000000	na
38.613995	0.049643	39.000000	nontarget	4.000000	na
38.663638	0.050600	39.000000	nontarget	5.000000	38.670217
38.714238	0.049512	39.000000	nontarget	6.000000	na
38.763750	0.049878	39.000000	nontarget	7.000000	na
38.813628	0.049924	39.000000	nontarget	8.000000	na
38.863551	0.050536	39.000000	nontarget	9.000000	na
38.914087	0.049344	39.000000	nontarget	10.000000	na
38.963431	0.050183	39.000000	nontarget	11.000000	na
39.013614	0.049541	39.000000	nontarget	12.000000	na
39.063155	0.050531	39.000000	nontarget	13.000000	na
39.113687	0.049945	39.000000	nontarget	14.000000	na
39.163631	0.050012	39.000000	nontarget	15.000000	na
39.213644	0.050452	39.000000	nontarget	16.000000	na
39.264096	0.049864	40.000000	target	1.000000	na
39.313960	0.050193	40.000000	target	2.000000	na
39.364153	0.049226	40.000000	target	3.000000	na
39.413379	0.050262	40.000000	target	4.000000	na
39.463641	0.049915	40.000000	target	5.000000	na
39.513556	0.050354	40.000000	target	6.000000	na
39.563910	0.049997	40.000000	target	7.000000	na
39.613907	0.049999	40.000000	target	8.000000	na
39.663906	0.050019	40.000000	target	9.000000	na
39.713925	0.050193	40.000000	target	10.000000	na
39.764118	0.049898	40.000000	target	11.000000	na
39.814016	0.049423	40.000000	target	12.000000	na
39.863439	0.050466	40.000000	target	13.000000	na
39.913905	0.049995	40.000000	target	14.000000	na
39.963900	0.049726	40.000000	target	15.000000	na
40.013626	0.049897	40.000000	target	16.000000	na
40.063523	0.050140	41.000000	nontarget	1.000000	na
40.113662	0.049823	41.000000	nontarget	2.000000	na
40.163485	0.050170	41.000000	nontarget	3.000000	na
40.213655	0.049472	41.000000	nontarget	4.000000	na
40.263127	0.050284	41.000000	nontarget	5.000000	na
40.313411	0.050409	41.000000	nontarget	6.000000	na
40.363820	0.049935	41.000000	nontarget	7.000000	na
40.413755	0.049834	41.000000	nontarget	8.000000	na
40.463589	0.049342	41.000000	nontarget	9.000000	na
40.512932	0.051262	41.000000	nontarget	10.000000	40.519456
40.564193	0.049629	41.000000	nontarget	11.000000	na
40.613823	0.049599	41.000000	nontarget	12.000000	na
40.663422	0.050480	41.000000	nontarget	13.000000	na
40.713902	0.050152	41.000000	nontarget	14.000000	na
40.764054	0.049952	41.000000	nontarget	15.000000	na
40.814006	0.049817	41.000000	nontarget	16.000000	na
40.863824	0.049989	42.000000	nontarget	1.000000	na
40.913813	0.049729	42.000000	nontarget	2.000000	na
40.963542	0.050079	42.000000	nontarget	3.000000	na
41.013621	0.049990	42.000000	nontarget	4.000000	na
41.063611	0.049806	42.000000	nontarget	5.000000	na
41.113417	0.050239	42.000000	nontarget	6.000000	na
41.163656	0.050170	42.000000	nontarget	7.000000	na
41.213827	0.049906	42.000000	nontarget	8.000000	na
41.263732	0.049743	42.000000	nontarget	9.000000	na
41.313476	0.050377	42.000000	nontarget	10.000000	na
41.363853	0.049962	42.000000	nontarget	11.000000	41.370450
41.413815	0.049986	42.000000	nontarget	12.000000	na
41.463801	0.050065	42.000000	nontarget	13.000000	na
41.513866	0.049404	42.000000	nontarget	14.000000	na
41.563270	0.050113	42.000000	nontarget	15.000000	na
41.613383	0.050333	42.000000	nontarget	16.000000	na
41.663716	0.049765	43.000000	nontarget	1.000000	na
41.713481	0.050250	43.000000	nontarget	2.000000	na
41.763731	0.049619	43.000000	nontarget	3.000000	na
41.813351	0.050355	43.000000	nontarget	4.000000	na
41.863706	0.049807	43.000000	nontarget	5.000000	na
41.913513	0.050036	43.000000	nontarget	6.000000	na
41.963549	0.050054	43.000000	nontarget	7.000000	na
42.013603	0.049943	43.000000	nontarget	8.000000	na
42.063546	0.050170	43.000000	nontarget	9.000000	na
42.113715	0.049205	43.000000	nontarget	10.000000	na
42.162921	0.050944	43.000000	nontarget	11.000000	na
42.213865	0.049648	43.000000	nontarget	12.000000	na
42.263513	0.050090	43.000000	nontarget	13.000000	na
42.313603	0.050385	43.000000	nontarget	14.000000	na
42.363987	0.049866	43.000000	nontarget	15.000000	na
42.413853	0.049990	43.000000	nontarget	16.000000	na
42.463843	0.049202	44.000000	target	1.000000	na
42.513045	0.050332	44.000000	target	2.000000	na
42.563376	0.050234	44.000000	target	3.000000	na
42.613610	0.049779	44.000000	target	4.000000	na
42.663389	0.050477	44.000000	target	5.000000	na
42.713867	0.048956	44.000000	target	6.000000	na
42.762823	0.050844	44.000000	target	7.000000	na
42.813667	0.049868	44.000000	target	8.000000	na
42.863535	0.049428	44.000000	target	9.000000	na
42.912963	0.049971	44.000000	target	10.000000	na
42.962934	0.050679	44.000000	target	11.000000	na
43.013613	0.049939	44.000000	target	12.000000	na
43.063551	0.050149	44.000000	target	13.000000	na
43.113700	0.049982	44.000000	target	14.000000	na
43.163682	0.049421	44.000000	target	15.000000	43.188864
43.213103	0.050485	44.000000	target	16.000000	na
43.263589	0.050255	45.000000	nontarget	1.000000	43.270157
43.313844	0.049629	45.000000	nontarget	2.000000	na
43.363473	0.050241	45.000000	nontarget	3.000000	na
43.413714	0.049987	45.000000	nontarget	4.000000	na
43.463701	0.049879	45.000000	nontarget	5.000000	na
43.513581	0.049801	45.000000	nontarget	6.000000	na
43.563381	0.050210	45.000000	nontarget	7.000000	na
43.613591	0.049255	45.000000	nontarget	8.000000	na
43.662846	0.050825	45.000000	nontarget	9.000000	na
43.713671	0.049946	45.000000	nontarget	10.000000	na
43.763617	0.049963	45.000000	nontarget	11.000000	na
43.813580	0.049648	45.000000	nontarget	12.000000	na
43.863228	0.049873	45.000000	nontarget	13.000000	na
43.913101	0.049805	45.000000	nontarget	14.000000	na
43.962906	0.050473	45.000000	nontarget	15.000000	na
44.013380	0.050347	45.000000	nontarget	16.000000	na
44.063727	0.049843	46.000000	nontarget	1.000000	na
44.113570	0.049865	46.000000	nontarget	2.000000	44.120149
44.163435	0.050265	46.000000	nontarget	3.000000	na
44.213700	0.050008	46.000000	nontarget	4.000000	na
44.263708	0.049908	46.000000	nontarget	5.000000	na
44.313615	0.049978	46.000000	nontarget	6.000000	na
44.363593	0.049129	46.000000	nontarget	7.000000	na
44.412722	0.050360	46.000000	nontarget	8.000000	na
44.463082	0.050588	46.000000	nontarget	9.000000	na
44.513670	0.049989	46.000000	nontarget	10.000000	na
44.563659	0.049977	46.000000	nontarget	11.000000	na
44.613636	0.049816	46.000000	nontarget	12.000000	na
44.663452	0.049686	46.000000	nontarget	13.000000	na
44.713137	0.050628	46.000000	nontarget	14.000000	na
44.763765	0.049832	46.000000	nontarget	15.000000	na
44.813597	0.049680	46.000000	nontarget	16.000000	na
44.863277	0.050282	47.000000	nontarget	1.000000	44.886813
44.913559	0.049830	47.000000	nontarget	2.000000	na
44.963389	0.050024	47.000000	nontarget	3.000000	na
45.013412	0.050304	47.000000	nontarget	4.000000	na
45.063717	0.049844	47.000000	nontarget	5.000000	na
45.113560	0.049521	47.000000	nontarget	6.000000	na
45.163081	0.050603	47.000000	nontarget	7.000000	na
45.213684	0.049828	47.000000	nontarget	8.000000	na
45.263512	0.050045	47.000000	nontarget	9.000000	na
45.313557	0.049904	47.000000	nontarget	10.000000	na
45.363461	0.050220	47.000000	nontarget	11.000000	na
45.413681	0.049844	47.000000	nontarget	12.000000	na
45.463525	0.049641	47.000000	nontarget	13.000000	na
45.513166	0.050327	47.000000	nontarget	14.000000	na
45.563493	0.049941	47.000000	nontarget	15.000000	na
45.613434	0.050235	47.000000	nontarget	16.000000	na
45.663669	0.049354	48.000000	nontarget	1.000000	na
45.713023	0.050533	48.000000	nontarget	2.000000	na
45.763556	0.049254	48.000000	nontarget	3.000000	na
45.812810	0.050224	48.000000	nontarget	4.000000	na
45.863034	0.050518	48.000000	nontarget	5.000000	45.869448
45.913552	0.049363	48.000000	nontarget	6.000000	na
45.962916	0.050635	48.000000	nontarget	7.000000	na
46.013550	0.049993	48.000000	nontarget	8.000000	na
46.063543	0.050181	48.000000	nontarget	9.000000	na
46.113724	0.049188	48.000000	nontarget	10.000000	na
46.162913	0.050622	48.000000	nontarget	11.000000	na
46.213535	0.050013	48.000000	nontarget	12.000000	na
46.263548	0.049852	48.000000	nontarget	13.000000	na
46.313400	0.050244	48.000000	nontarget	14.000000	na
46.363644	0.049866	48.000000	nontarget	15.000000	na
46.413510	0.049572	48.000000	nontarget	16.000000	na
46.463082	0.050260	49.000000	nontarget	1.000000	na
46.513342	0.049556	49.000000	nontarget	2.000000	na
46.562898	0.050553	49.000000	nontarget	3.000000	na
46.613451	0.049954	49.000000	nontarget	4.000000	na
46.663405	0.049798	49.000000	nontarget	5.000000	na
46.713204	0.049379	49.000000	nontarget	6.000000	na
46.762583	0.050901	49.000000	nontarget	7.000000	na
46.813484	0.050052	49.000000	nontarget	8.000000	46.845669
46.863536	0.050034	49.000000	nontarget	9.000000	na
46.913570	0.049502	49.000000	nontarget	10.000000	na
46.963072	0.050449	49.000000	nontarget	11.000000	na
47.013521	0.049960	49.000000	nontarget	12.000000	na
47.063482	0.049919	49.000000	nontarget	13.000000	na
47.113401	0.050069	49.000000	nontarget	14.000000	na
47.163470	0.049727	49.000000	nontarget	15.000000	na
47.213197	0.050159	49.000000	nontarget	16.000000	na
47.263356	0.050203	50.000000	nontarget	1.000000	na
47.313558	0.049268	50.000000	nontarget	2.000000	na
47.362826	0.050197	50.000000	nontarget	3.000000	na
47.413023	0.050502	50.000000	nontarget	4.000000	na
47.463525	0.049158	50.000000	nontarget	5.000000	na
47.512683	0.050755	50.000000	nontarget	6.000000	na
47.563439	0.050015	50.000000	nontarget	7.000000	na
47.613454	0.049962	50.000000	nontarget	8.000000	na
47.663415	0.049474	50.000000	nontarget	9.000000	na
47.712889	0.050437	50.000000	nontarget	10.000000	na
47.763326	0.050450	50.000000	nontarget	11.000000	na
47.813776	0.049687	50.000000	nontarget	12.000000	47.841811
47.863463	0.050171	50.000000	nontarget	13.000000	na
47.913634	0.050177	50.000000	nontarget	14.000000	na
47.963811	0.049582	50.000000	nontarget	15.000000	na
48.013393	0.056044	50.000000	nontarget	16.000000	na
48.069437	0.043883	51.000000	nontarget	1.000000	na
48.113320	0.049610	51.000000	nontarget	2.000000	na
48.162930	0.050593	51.000000	nontarget	3.000000	na
48.213523	0.049855	51.000000	nontarget	4.000000	na
48.263378	0.049939	51.000000	nontarget	5.000000	na
48.313317	0.050157	51.000000	nontarget	6.000000	na
48.363474	0.049788	51.000000	nontarget	7.000000	na
48.413261	0.050220	51.000000	nontarget	8.000000	na
48.463482	0.049383	51.000000	nontarget	9.000000	na
48.512865	0.050512	51.000000	nontarget	10.000000	na
48.563377	0.050335	51.000000	nontarget	11.000000	na
48.613712	0.049252	51.000000	nontarget	12.000000	na
48.662964	0.050647	51.000000	nontarget	13.000000	na
48.713611	0.049912	51.000000	nontarget	14.000000	na
48.763523	0.049840	51.000000	nontarget	15.000000	na
48.813363	0.050043	51.000000	nontarget	16.000000	48.819865
48.863406	0.049958	52.000000	nontarget	1.000000	48.869893
48.913365	0.049616	52.000000	nontarget	2.000000	na
48.962981	0.050582	52.000000	nontarget	3.000000	na
49.013563	0.049793	52.000000	nontarget	4.000000	na
49.063356	0.050047	52.000000	nontarget	5.000000	na
49.113404	0.049587	52.000000	nontarget	6.000000	na
49.162991	0.049802	52.000000	nontarget	7.000000	na
49.212793	0.050358	52.000000	nontarget	8.000000	na
49.263151	0.050173	52.000000	nontarget	9.000000	na
49.313324	0.049522	52.000000	nontarget	10.000000	na
49.362846	0.050474	52.000000	nontarget	11.000000	na
49.413320	0.049838	52.000000	nontarget	12.000000	na
49.463158	0.050351	52.000000	nontarget	13.000000	na
49.513509	0.049800	52.000000	nontarget	14.000000	na
49.563309	0.050222	52.000000	nontarget	15.000000	na
49.613531	0.049710	52.000000	nontarget	16.000000	na
49.663241	0.049990	53.000000	nontarget	1.000000	49.669677
49.713231	0.050069	53.000000	nontarget	2.000000	na
49.763300	0.049856	53.000000	nontarget	3.000000	na
49.813155	0.050143	53.000000	nontarget	4.000000	na
49.863299	0.049998	53.000000	nontarget	5.000000	na
49.913297	0.049362	53.000000	nontarget	6.000000	na
49.962660	0.050935	53.000000	nontarget	7.000000	na
50.013595	0.049922	53.000000	nontarget	8.000000	na
50.063517	0.049941	53.000000	nontarget	9.000000	na
50.113458	0.049539	53.000000	nontarget	10.000000	na
50.162997	0.050250	53.000000	nontarget	11.000000	na
50.213247	0.050049	53.000000	nontarget	12.000000	na
50.263296	0.049885	53.000000	nontarget	13.000000	na
50.313181	0.049795	53.000000	nontarget	14.000000	na
50.362976	0.050334	53.000000	nontarget	15.000000	na
50.413309	0.050003	53.000000	nontarget	16.000000	na
50.463312	0.049668	54.000000	nontarget	1.000000	50.497225
50.512980	0.049591	54.000000	nontarget	2.000000	na
50.562572	0.050653	54.000000	nontarget	3.000000	na
50.613225	0.050394	54.000000	nontarget	4.000000	na
50.663619	0.049892	54.000000	nontarget	5.000000	na
50.713511	0.049993	54.000000	nontarget	6.000000	na
50.763504	0.049747	54.000000	nontarget	7.000000	na
50.813251	0.050274	54.000000	nontarget	8.000000	na
50.863526	0.049705	54.000000	nontarget	9.000000	na
50.913231	0.049967	54.000000	nontarget	10.000000	na
50.963197	0.049303	54.000000	nontarget	11.000000	na
51.012501	0.050694	54.000000	nontarget	12.000000	na
51.063195	0.050188	54.000000	nontarget	13.000000	na
51.113383	0.049829	54.000000	nontarget	14.000000	na
51.163212	0.049398	54.000000	nontarget	15.000000	na
51.212610	0.050516	54.000000	nontarget	16.000000	na
51.263125	0.049558	55.000000	nontarget	1.000000	na
51.312683	0.050100	55.000000	nontarget	2.000000	51.319293
51.362783	0.049795	55.000000	nontarget	3.000000	na
51.412578	0.051099	55.000000	nontarget	4.000000	na
51.463677	0.049106	55.000000	nontarget	5.000000	na
51.512784	0.050537	55.000000	nontarget	6.000000	na
51.563320	0.049470	55.000000	nontarget	7.000000	na
51.612791	0.050691	55.000000	nontarget	8.000000	na
51.663482	0.049774	55.000000	nontarget	9.000000	na
51.713256	0.049331	55.000000	nontarget	10.000000	na
51.762587	0.050262	55.000000	nontarget	11.000000	na
51.812849	0.050391	55.000000	nontarget	12.000000	na
51.863240	0.049824	55.000000	nontarget	13.000000	na
51.913064	0.050202	55.000000	nontarget	14.000000	na
51.963266	0.049827	55.000000	nontarget	15.000000	na
52.013093	0.050279	55.000000	nontarget	16.000000	na
52.063372	0.049741	56.000000	nontarget	1.000000	na
52.113113	0.050388	56.000000	nontarget	2.000000	na
52.163501	0.049353	56.000000	nontarget	3.000000	52.170035
52.212854	0.050251	56.000000	nontarget	4.000000	na
52.263106	0.050365	56.000000	nontarget	5.000000	na
52.313470	0.049459	56.000000	nontarget	6.000000	na
52.362929	0.050327	56.000000	nontarget	7.000000	na
52.413257	0.050226	56.000000	nontarget	8.000000	na
52.463483	0.049799	56.000000	nontarget	9.000000	na
52.513282	0.049357	56.000000	nontarget	10.000000	na
52.562639	0.050828	56.000000	nontarget	11.000000	na
52.613468	0.049660	56.000000	nontarget	12.000000	na
52.663128	0.049427	56.000000	nontarget	13.000000	na
52.712554	0.050532	56.000000	nontarget	14.000000	na
52.763087	0.049968	56.000000	nontarget	15.000000	na
52.813054	0.049895	56.000000	nontarget	16.000000	na
52.862950	0.049346	57.000000	nontarget	1.000000	na
52.912296	0.050463	57.000000	nontarget	2.000000	na
52.962759	0.049790	57.000000	nontarget	3.000000	na
53.012549	0.050506	57.000000	nontarget	4.000000	na
53.063055	0.049789	57.000000	nontarget	5.000000	53.069635
53.112844	0.050338	57.000000	nontarget	6.000000	na
53.163182	0.049889	57.000000	nontarget	7.000000	na
53.213070	0.049105	57.000000	nontarget	8.000000	na
53.262175	0.050888	57.000000	nontarget	9.000000	na
53.313063	0.049847	57.000000	nontarget	10.000000	na
53.362910	0.050133	57.000000	nontarget	11.000000	na
53.413043	0.049990	57.000000	nontarget	12.000000	na
53.463033	0.049945	57.000000	nontarget	13.000000	na
53.512978	0.049925	57.000000	nontarget	14.000000	na
53.562903	0.049713	57.000000	nontarget	15.000000	na
53.612616	0.050328	57.000000	nontarget	16.000000	na
53.662944	0.049254	58.000000	nontarget	1.000000	na
53.712198	0.050763	58.000000	nontarget	2.000000	na
53.762961	0.049661	58.000000	nontarget	3.000000	na
53.812622	0.049830	58.000000	nontarget	4.000000	na
53.862452	0.050059	58.000000	nontarget	5.000000	na
53.912511	0.050444	58.000000	nontarget	6.000000	na
53.962955	0.049443	58.000000	nontarget	7.000000	na
54.012398	0.049762	58.000000	nontarget	8.000000	54.019001
54.062160	0.050710	58.000000	nontarget	9.000000	na
54.112869	0.049908	58.000000	nontarget	10.000000	na
54.162777	0.049738	58.000000	nontarget	11.000000	na
54.212515	0.050619	58.000000	nontarget	12.000000	na
54.263134	0.049803	58.000000	nontarget	13.000000	na
54.312938	0.049966	58.000000	nontarget	14.000000	na
54.362903	0.050324	58.000000	nontarget	15.000000	na
54.413228	0.049676	58.000000	nontarget	16.000000	na
54.462904	0.049630	59.000000	nontarget	1.000000	na
54.512534	0.050377	59.000000	nontarget	2.000000	na
54.562911	0.049613	59.000000	nontarget	3.000000	na
54.612524	0.050077	59.000000	nontarget	4.000000	na
54.662601	0.050502	59.000000	nontarget	5.000000	na
54.713103	0.049406	59.000000	nontarget	6.000000	na
54.762509	0.049709	59.000000	nontarget	7.000000	na
54.812218	0.049937	59.000000	nontarget	8.000000	na
54.862155	0.050519	59.000000	nontarget	9.000000	na
54.912674	0.050213	59.000000	nontarget	10.000000	na
54.962887	0.049837	59.000000	nontarget	11.000000	na
55.012725	0.049649	59.000000	nontarget	12.000000	na
55.062373	0.050242	59.000000	nontarget	13.000000	55.068925
55.112615	0.050300	59.000000	nontarget	14.000000	na
55.162916	0.049305	59.000000	nontarget	15.000000	na
55.212221	0.050754	59.000000	nontarget	16.000000	na
55.262975	0.049938	60.000000	nontarget	1.000000	na
55.312913	0.049436	60.000000	nontarget	2.000000	na
55.362349	0.050501	60.000000	nontarget	3.000000	na
55.412850	0.050083	60.000000	nontarget	4.000000	na
55.462933	0.049225	60.000000	nontarget	5.000000	na
55.512159	0.050723	60.000000	nontarget	6.000000	na
55.562882	0.049988	60.000000	nontarget	7.000000	na
55.612870	0.049572	60.000000	nontarget	8.000000	na
55.662442	0.050307	60.000000	nontarget	9.000000	na
55.712749	0.049484	60.000000	nontarget	10.000000	na
55.762233	0.050035	60.000000	nontarget	11.000000	na
55.812268	0.050754	60.000000	nontarget	12.000000	na
55.863022	0.049365	60.000000	nontarget	13.000000	na
55.912387	0.050399	60.000000	nontarget	14.000000	na
55.962786	0.049736	60.000000	nontarget	15.000000	55.978422
56.012523	0.050280	60.000000	nontarget	16.000000	na
56.062802	0.050084	61.000000	nontarget	1.000000	56.069415
56.112886	0.049588	61.000000	nontarget	2.000000	na
56.162475	0.049684	61.000000	nontarget	3.000000	na
56.212159	0.050457	61.000000	nontarget	4.000000	na
56.262615	0.049682	61.000000	nontarget	5.000000	na
56.312297	0.050384	61.000000	nontarget	6.000000	na
56.362681	0.050138	61.000000	nontarget	7.000000	na
56.412819	0.050035	61.000000	nontarget	8.000000	na
56.462854	0.049710	61.000000	nontarget	9.000000	na
56.512564	0.050214	61.000000	nontarget	10.000000	na
56.562778	0.050058	61.000000	nontarget	11.000000	na
56.612836	0.049920	61.000000	nontarget	12.000000	na
56.662756	0.050128	61.000000	nontarget	13.000000	na
56.712883	0.050009	61.000000	nontarget	14.000000	na
56.762892	0.049080	61.000000	nontarget	15.000000	na
56.811972	0.051029	61.000000	nontarget	16.000000	56.818355
56.863001	0.049767	62.000000	nontarget	1.000000	56.869548
56.912768	0.050059	62.000000	nontarget	2.000000	na
56.962826	0.049919	62.000000	nontarget	3.000000	na
57.012745	0.050126	62.000000	nontarget	4.000000	na
57.062872	0.049850	62.000000	nontarget	5.000000	na
57.112722	0.049605	62.000000	nontarget	6.000000	na
57.162326	0.049822	62.000000	nontarget	7.000000	na
57.212148	0.050024	62.000000	nontarget	8.000000	na
57.262172	0.050635	62.000000	nontarget	9.000000	na
57.312807	0.050007	62.000000	nontarget	10.000000	na
57.362814	0.049719	62.000000	nontarget	11.000000	na
57.412533	0.049924	62.000000	nontarget	12.000000	na
57.462457	0.050363	62.000000	nontarget	13.000000	na
57.512820	0.049278	62.000000	nontarget	14.000000	na
57.562098	0.050707	62.000000	nontarget	15.000000	na
57.612805	0.049948	62.000000	nontarget	16.000000	na
57.662754	0.049178	63.000000	nontarget	1.000000	na
57.711932	0.050861	63.000000	nontarget	2.000000	na
57.762793	0.049917	63.000000	nontarget	3.000000	57.771276
57.812709	0.049908	63.000000	nontarget	4.000000	na
57.862617	0.050052	63.000000	nontarget	5.000000	na
57.912670	0.049495	63.000000	nontarget	6.000000	na
57.962165	0.050295	63.000000	nontarget	7.000000	na
58.012460	0.050255	63.000000	nontarget	8.000000	na
58.062715	0.050018	63.000000	nontarget	9.000000	na
58.112733	0.049928	63.000000	nontarget	10.000000	na
58.162660	0.049814	63.000000	nontarget	11.000000	na
58.212474	0.050248	63.000000	nontarget	12.000000	na
58.262722	0.050274	63.000000	nontarget	13.000000	na
58.312996	0.049701	63.000000	nontarget	14.000000	na
58.362696	0.050020	63.000000	nontarget	15.000000	na
58.412716	0.049551	63.000000	nontarget	16.000000	na
58.462268	0.050563	64.000000	nontarget	1.000000	na
58.512831	0.049891	64.000000	nontarget	2.000000	na
58.562722	0.049987	64.000000	nontarget	3.000000	na
58.612709	0.049507	64.000000	nontarget	4.000000	na
58.662216	0.050497	64.000000	nontarget	5.000000	na
58.712713	0.049259	64.000000	nontarget	6.000000	na
58.761972	0.050716	64.000000	nontarget	7.000000	na
58.812687	0.049449	64.000000	nontarget	8.000000	58.844551
58.862136	0.050725	64.000000	nontarget	9.000000	na
58.912861	0.049684	64.000000	nontarget	10.000000	na
58.962545	0.050379	64.000000	nontarget	11.000000	na
59.012924	0.049783	64.000000	nontarget	12.000000	na
59.062707	0.049834	64.000000	nontarget	13.000000	na
59.112541	0.049841	64.000000	nontarget	14.000000	na
59.162382	0.050394	64.000000	nontarget	15.000000	na
59.212776	0.049884	64.000000	nontarget	16.000000	na
59.262660	0.049568	65.000000	nontarget	1.000000	na
59.312228	0.050601	65.000000	nontarget	2.000000	na
59.362830	0.049742	65.000000	nontarget	3.000000	na
59.412572	0.050264	65.000000	nontarget	4.000000	na
59.462836	0.049707	65.000000	nontarget	5.000000	na
59.512543	0.049484	65.000000	nontarget	6.000000	na
59.562027	0.050806	65.000000	nontarget	7.000000	na
59.612833	0.049803	65.000000	nontarget	8.000000	na
59.662636	0.049892	65.000000	nontarget	9.000000	na
59.712528	0.050251	65.000000	nontarget	10.000000	na
59.762779	0.049386	65.000000	nontarget	11.000000	na
59.812165	0.049986	65.000000	nontarget	12.000000	na
59.862151	0.050503	65.000000	nontarget	13.000000	na
59.912654	0.050076	65.000000	nontarget	14.000000	na
59.962731	0.050141	65.000000	nontarget	15.000000	na
60.012872	0.049679	65.000000	nontarget	16.000000	na
60.062551	0.049582	66.000000	nontarget	1.000000	60.093875
60.112133	0.050402	66.000000	nontarget	2.000000	na
60.162535	0.049669	66.000000	nontarget	3.000000	na
60.212204	0.050503	66.000000	nontarget	4.000000	na
60.262707	0.049912	66.000000	nontarget	5.000000	na
60.312619	0.050036	66.000000	nontarget	6.000000	na
60.362655	0.050054	66.000000	nontarget	7.000000	na
60.412709	0.049375	66.000000	nontarget	8.000000	na
60.462083	0.050755	66.000000	nontarget	9.000000	na
60.512839	0.049212	66.000000	nontarget	10.000000	na
60.562051	0.050553	66.000000	nontarget	11.000000	na
60.612604	0.049845	66.000000	nontarget	12.000000	na
60.662448	0.049688	66.000000	nontarget	13.000000	na
60.712137	0.050187	66.000000	nontarget	14.000000	na
60.762324	0.050353	66.000000	nontarget	15.000000	na
60.812677	0.049895	66.000000	nontarget	16.000000	na
60.862572	0.050014	67.000000	nontarget	1.000000	na
60.912586	0.049574	67.000000	nontarget	2.000000	na
60.962160	0.050089	67.000000	nontarget	3.000000	na
61.012249	0.050305	67.000000	nontarget	4.000000	61.044260
61.062554	0.049859	67.000000	nontarget	5.000000	na
61.112412	0.050282	67.000000	nontarget	6.000000	na
61.162695	0.049237	67.000000	nontarget	7.000000	na
61.211931	0.050237	67.000000	nontarget	8.000000	na
61.262168	0.049993	67.000000	nontarget	9.000000	na
61.312162	0.050455	67.000000	nontarget	10.000000	na
61.362617	0.049986	67.000000	nontarget	11.000000	na
61.412603	0.049979	67.000000	nontarget	12.000000	na
61.462582	0.049826	67.000000	nontarget	13.000000	na
61.512408	0.049421	67.000000	nontarget	14.000000	na
61.561829	0.050941	67.000000	nontarget	15.000000	na
61.612770	0.049778	67.000000	nontarget	16.000000	na
61.662548	0.049956	68.000000	nontarget	1.000000	na
61.712504	0.049913	68.000000	nontarget	2.000000	na
61.762417	0.049906	68.000000	nontarget	3.000000	na
61.812323	0.050119	68.000000	nontarget	4.000000	na
61.862442	0.050006	68.000000	nontarget	5.000000	na
61.912447	0.050277	68.000000	nontarget	6.000000	na
61.962725	0.049513	68.000000	nontarget	7.000000	na
62.012238	0.049877	68.000000	nontarget	8.000000	na
62.062114	0.049875	68.000000	nontarget	9.000000	62.068593
62.111989	0.050303	68.000000	nontarget	10.000000	na
62.162293	0.049595	68.000000	nontarget	11.000000	na
62.211888	0.050511	68.000000	nontarget	12.000000	na
62.262398	0.050250	68.000000	nontarget	13.000000	na
62.312648	0.049491	68.000000	nontarget	14.000000	na
62.362140	0.050429	68.000000	nontarget	15.000000	na
62.412569	0.049472	68.000000	nontarget	16.000000	na
62.462041	0.050188	69.000000	nontarget	1.000000	na
62.512229	0.050253	69.000000	nontarget	2.000000	na
62.562482	0.049310	69.000000	nontarget	3.000000	na
62.611791	0.050149	69.000000	nontarget	4.000000	na
62.661940	0.050580	69.000000	nontarget	5.000000	na
62.712520	0.049278	69.000000	nontarget	6.000000	na
62.761798	0.050439	69.000000	nontarget	7.000000	na
62.812237	0.049831	69.000000	nontarget	8.000000	na
62.862069	0.050664	69.000000	nontarget	9.000000	na
62.912733	0.049747	69.000000	nontarget	10.000000	na
62.962479	0.049874	69.000000	nontarget	11.000000	na
63.012354	0.050025	69.000000	nontarget	12.000000	na
63.062379	0.049959	69.000000	nontarget	13.000000	na
63.112338	0.049532	69.000000	nontarget	14.000000	na
63.161871	0.050716	69.000000	nontarget	15.000000	na
63.212587	0.049868	69.000000	nontarget	16.000000	63.246581
63.262454	0.049765	70.000000	nontarget	1.000000	63.268661
63.312219	0.050147	70.000000	nontarget	2.000000	na
63.362366	0.050136	70.000000	nontarget	3.000000	na
63.412502	0.050254	70.000000	nontarget	4.000000	na
63.462756	0.049401	70.000000	nontarget	5.000000	na
63.512157	0.050258	70.000000	nontarget	6.000000	na
63.562415	0.049845	70.000000	nontarget	7.000000	na
63.612260	0.049892	70.000000	nontarget	8.000000	na
63.662151	0.050167	70.000000	nontarget	9.000000	na
63.712318	0.050012	70.000000	nontarget	10.000000	na
63.762330	0.049468	70.000000	nontarget	11.000000	na
63.811799	0.050720	70.000000	nontarget	12.000000	na
63.862518	0.049519	70.000000	nontarget	13.000000	na
63.912037	0.050548	70.000000	nontarget	14.000000	na
63.962585	0.049844	70.000000	nontarget	15.000000	na
64.012429	0.049372	70.000000	nontarget	16.000000	na
64.061801	0.050785	71.000000	nontarget	1.000000	na
64.112586	0.050026	71.000000	nontarget	2.000000	na
64.162612	0.049577	71.000000	nontarget	3.000000	na
64.212189	0.050147	71.000000	nontarget	4.000000	na
64.262336	0.049477	71.000000	nontarget	5.000000	na
64.311813	0.050658	71.000000	nontarget	6.000000	64.339945
64.362472	0.049754	71.000000	nontarget	7.000000	na
64.412226	0.050538	71.000000	nontarget	8.000000	na
64.462764	0.049699	71.000000	nontarget	9.000000	na
64.512463	0.049940	71.000000	nontarget	10.000000	na
64.562402	0.050198	71.000000	nontarget	11.000000	na
64.612600	0.049783	71.000000	nontarget	12.000000	na
64.662383	0.050129	71.000000	nontarget	13.000000	na
64.712512	0.049843	71.000000	nontarget	14.000000	na
64.762355	0.049721	71.000000	nontarget	15.000000	na
64.812076	0.049862	71.000000	nontarget	16.000000	na
64.861937	0.050403	72.000000	nontarget	1.000000	na
64.912341	0.049680	72.000000	nontarget	2.000000	na
64.962020	0.050312	72.000000	nontarget	3.000000	na
65.012333	0.049945	72.000000	nontarget	4.000000	na
65.062278	0.049748	72.000000	nontarget	5.000000	na
65.112026	0.049964	72.000000	nontarget	6.000000	na
65.161989	0.037280	72.000000	nontarget	7.000000	na
65.199270	0.046443	72.000000	nontarget	8.000000	na
65.245713	0.049233	72.000000	nontarget	9.000000	na
65.294946	0.049840	72.000000	nontarget	10.000000	na
65.344786	0.050788	72.000000	nontarget	11.000000	65.354668
65.395574	0.049847	72.000000	nontarget	12.000000	na
65.445421	0.050266	72.000000	nontarget	13.000000	na
65.495687	0.049790	72.000000	nontarget	14.000000	na
65.545478	0.050119	72.000000	nontarget	15.000000	na
65.595596	0.050026	72.000000	nontarget	16.000000	na
65.645622	0.049682	73.000000	nontarget	1.000000	na
65.695304	0.049886	73.000000	nontarget	2.000000	na
65.745191	0.050572	73.000000	nontarget	3.000000	na
65.795762	0.049677	73.000000	nontarget	4.000000	na
65.845440	0.050182	73.000000	nontarget	5.000000	na
65.895622	0.049543	73.000000	nontarget	6.000000	na
65.945165	0.050587	73.000000	nontarget	7.000000	na
65.995752	0.049822	73.000000	nontarget	8.000000	na
66.045574	0.049868	73.000000	nontarget	9.000000	na
66.095442	0.049539	73.000000	nontarget	10.000000	na
66.144981	0.050697	73.000000	nontarget	11.000000	na
66.195678	0.049836	73.000000	nontarget	12.000000	na
66.245514	0.050315	73.000000	nontarget	13.000000	na
66.295828	0.049591	73.000000	nontarget	14.000000	na
66.345419	0.050174	73.000000	nontarget	15.000000	na
66.395593	0.050183	73.000000	nontarget	16.000000	na
66.445776	0.049905	74.000000	nontarget	1.000000	66.452282
66.495681	0.049274	74.000000	nontarget	2.000000	na
66.544956	0.050536	74.000000	nontarget	3.000000	na
66.595491	0.050073	74.000000	nontarget	4.000000	na
66.645564	0.050001	74.000000	nontarget	5.000000	na
66.695565	0.049546	74.000000	nontarget	6.000000	na
66.745110	0.050612	74.000000	nontarget	7.000000	na
66.795722	0.049834	74.000000	nontarget	8.000000	na
66.845556	0.049889	74.000000	nontarget	9.000000	na
66.895445	0.049354	74.000000	nontarget	10.000000	na
66.944799	0.050858	74.000000	nontarget	11.000000	na
66.995657	0.049863	74.000000	nontarget	12.000000	na
67.045521	0.050028	74.000000	nontarget	13.000000	na
67.095548	0.050301	74.000000	nontarget	14.000000	na
67.145850	0.049697	74.000000	nontarget	15.000000	na
67.195547	0.050005	74.000000	nontarget	16.000000	na
67.245552	0.050073	75.000000	nontarget	1.000000	na
67.295625	0.049890	75.000000	nontarget	2.000000	na
67.345515	0.050266	75.000000	nontarget	3.000000	na
67.395782	0.049958	75.000000	nontarget	4.000000	67.407522
67.445740	0.049964	75.000000	nontarget	5.000000	na
67.495703	0.050098	75.000000	nontarget	6.000000	na
67.545801	0.049962	75.000000	nontarget	7.000000	na
67.595763	0.048627	75.000000	nontarget	8.000000	na
67.644390	0.051378	75.000000	nontarget	9.000000	na
67.695769	0.049480	75.000000	nontarget	10.000000	na
67.745249	0.049622	75.000000	nontarget	11.000000	na
67.794870	0.050063	75.000000	nontarget	12.000000	na
67.844933	0.050562	75.000000	nontarget	13.000000	na
67.895495	0.049691	75.000000	nontarget	14.000000	na
67.945186	0.049422	75.000000	nontarget	15.000000	na
67.994608	0.051018	75.000000	nontarget	16.000000	na
68.045626	0.049917	76.000000	nontarget	1.000000	na
68.095543	0.049939	76.000000	nontarget	2.000000	na
68.145482	0.049480	76.000000	nontarget	3.000000	na
68.194961	0.050531	76.000000	nontarget	4.000000	na
68.245493	0.049839	76.000000	nontarget	5.000000	na
68.295331	0.050120	76.000000	nontarget	6.000000	na
68.345451	0.049328	76.000000	nontarget	7.000000	68.371931
68.394779	0.050002	76.000000	nontarget	8.000000	na
68.444781	0.050565	76.000000	nontarget	9.000000	na
68.495347	0.049142	76.000000	nontarget	10.000000	na
68.544489	0.050981	76.000000	nontarget	11.000000	na
68.595469	0.049239	76.000000	nontarget	12.000000	na
68.644708	0.050680	76.000000	nontarget	13.000000	na
68.695388	0.049482	76.000000	nontarget	14.000000	na
68.744870	0.050555	76.000000	nontarget	15.000000	na
68.795426	0.049993	76.000000	nontarget	16.000000	na
68.845419	0.049876	77.000000	nontarget	1.000000	na
68.895294	0.050090	77.000000	nontarget	2.000000	na
68.945384	0.049258	77.000000	nontarget	3.000000	na
68.994642	0.050775	77.000000	nontarget	4.000000	na
69.045416	0.049929	77.000000	nontarget	5.000000	na
69.095346	0.050223	77.000000	nontarget	6.000000	na
69.145569	0.049452	77.000000	nontarget	7.000000	na
69.195020	0.050350	77.000000	nontarget	8.000000	na
69.245371	0.050062	77.000000	nontarget	9.000000	69.280251
69.295432	0.049602	77.000000	nontarget	10.000000	na
69.345035	0.050383	77.000000	nontarget	11.000000	na
69.395417	0.049668	77.000000	nontarget	12.000000	na
69.445086	0.050411	77.000000	nontarget	13.000000	na
69.495497	0.049676	77.000000	nontarget	14.000000	na
69.545172	0.049697	77.000000	nontarget	15.000000	na
69.594869	0.050440	77.000000	nontarget	16.000000	na
69.645309	0.050047	78.000000	nontarget	1.000000	na
69.695356	0.050118	78.000000	nontarget	2.000000	na
69.745474	0.049650	78.000000	nontarget	3.000000	na
69.795124	0.049448	78.000000	nontarget	4.000000	na
69.844572	0.050761	78.000000	nontarget	5.000000	na
69.895333	0.049937	78.000000	nontarget	6.000000	na
69.945270	0.049350	78.000000	nontarget	7.000000	na
69.994620	0.050767	78.000000	nontarget	8.000000	na
70.045387	0.049379	78.000000	nontarget	9.000000	na
70.094766	0.050077	78.000000	nontarget	10.000000	na
70.144843	0.050341	78.000000	nontarget	11.000000	na
70.195184	0.050229	78.000000	nontarget	12.000000	na
70.245413	0.050157	78.000000	nontarget	13.000000	na
70.295570	0.049705	78.000000	nontarget	14.000000	70.302101
70.345275	0.049780	78.000000	nontarget	15.000000	na
70.395055	0.050272	78.000000	nontarget	16.000000	na
70.445328	0.049799	79.000000	nontarget	1.000000	na
70.495127	0.050249	79.000000	nontarget	2.000000	na
70.545376	0.049797	79.000000	nontarget	3.000000	na
70.595173	0.050130	79.000000	nontarget	4.000000	na
70.645303	0.049794	79.000000	nontarget	5.000000	na
70.695097	0.050200	79.000000	nontarget	6.000000	na
70.745297	0.049131	79.000000	nontarget	7.000000	na
70.794428	0.050832	79.000000	nontarget	8.000000	na
70.845260	0.049092	79.000000	nontarget	9.000000	na
70.894352	0.050925	79.000000	nontarget	10.000000	na
70.945278	0.049321	79.000000	nontarget	11.000000	na
70.994598	0.050247	79.000000	nontarget	12.000000	na
71.044846	0.050102	79.000000	nontarget	13.000000	na
71.094947	0.049974	79.000000	nontarget	14.000000	na
71.144921	0.050344	79.000000	nontarget	15.000000	na
71.195266	0.049872	79.000000	nontarget	16.000000	na
71.245137	0.049136	80.000000	nontarget	1.000000	na
71.294274	0.050636	80.000000	nontarget	2.000000	na
71.344910	0.050485	80.000000	nontarget	3.000000	71.364417
71.395395	0.049531	80.000000	nontarget	4.000000	na
71.444926	0.050196	80.000000	nontarget	5.000000	na
71.495122	0.050137	80.000000	nontarget	6.000000	na
71.545258	0.050004	80.000000	nontarget	7.000000	na
71.595263	0.050058	80.000000	nontarget	8.000000	na
71.645320	0.050044	80.000000	nontarget	9.000000	na
71.695365	0.049538	80.000000	nontarget	10.000000	na
71.744903	0.050374	80.000000	nontarget	11.000000	na
71.795277	0.050025	80.000000	nontarget	12.000000	na
71.845302	0.049937	80.000000	nontarget	13.000000	na
71.895239	0.049923	80.000000	nontarget	14.000000	na
71.945163	0.049846	80.000000	nontarget	15.000000	na
71.995008	0.050044	80.000000	nontarget	16.000000	na
72.045052	0.050190	81.000000	nontarget	1.000000	na
72.095243	0.049145	81.000000	nontarget	2.000000	na
72.144388	0.050456	81.000000	nontarget	3.000000	na
72.194844	0.050362	81.000000	nontarget	4.000000	na
72.245206	0.049543	81.000000	nontarget	5.000000	na
72.294748	0.049652	81.000000	nontarget	6.000000	na
72.344401	0.037508	81.000000	nontarget	7.000000	72.372543
72.381908	0.046603	81.000000	nontarget	8.000000	na
72.428511	0.050005	81.000000	nontarget	9.000000	na
72.478517	0.049255	81.000000	nontarget	10.000000	na
72.527772	0.050878	81.000000	nontarget	11.000000	na
72.578650	0.049835	81.000000	nontarget	12.000000	na
72.628485	0.049362	81.000000	nontarget	13.000000	na
72.677847	0.050663	81.000000	nontarget	14.000000	na
72.728510	0.049774	81.000000	nontarget	15.000000	na
72.778284	0.050388	81.000000	nontarget	16.000000	na
72.828672	0.049439	82.000000	nontarget	1.000000	na
72.878111	0.050368	82.000000	nontarget	2.000000	na
72.928480	0.049441	82.000000	nontarget	3.000000	na
72.977921	0.037435	82.000000	nontarget	4.000000	na
73.015356	0.046428	82.000000	nontarget	5.000000	na
73.061784	0.050031	82.000000	nontarget	6.000000	na
73.111815	0.049641	82.000000	nontarget	7.000000	na
73.161457	0.049767	82.000000	nontarget	8.000000	na
73.211224	0.049989	82.000000	nontarget	9.000000	na
73.261213	0.050451	82.000000	nontarget	10.000000	na
73.311664	0.049635	82.000000	nontarget	11.000000	na
73.361299	0.050270	82.000000	nontarget	12.000000	na
73.411569	0.050208	82.000000	nontarget	13.000000	na
73.461778	0.050078	82.000000	nontarget	14.000000	73.472939
73.511855	0.049281	82.000000	nontarget	15.000000	na
73.561137	0.050313	82.000000	nontarget	16.000000	na
73.611450	0.050213	83.000000	nontarget	1.000000	73.618013
73.661662	0.049347	83.000000	nontarget	2.000000	na
73.711010	0.050158	83.000000	nontarget	3.000000	na
73.761167	0.050530	83.000000	nontarget	4.000000	na
73.811697	0.049496	83.000000	nontarget	5.000000	na
73.861193	0.050571	83.000000	nontarget	6.000000	na
73.911764	0.049935	83.000000	nontarget	7.000000	na
73.961698	0.049929	83.000000	nontarget	8.000000	na
74.011627	0.050209	83.000000	nontarget	9.000000	na
74.061837	0.049864	83.000000	nontarget	10.000000	na
74.111701	0.049847	83.000000	nontarget	11.000000	na
74.161548	0.049871	83.000000	nontarget	12.000000	na
74.211419	0.050344	83.000000	nontarget	13.000000	na
74.261763	0.049207	83.000000	nontarget	14.000000	na
74.310970	0.050262	83.000000	nontarget	15.000000	na
74.361231	0.049985	83.000000	nontarget	16.000000	na
74.411216	0.050735	84.000000	target	1.000000	na
74.461951	0.049735	84.000000	target	2.000000	na
74.511686	0.049594	84.000000	target	3.000000	na
74.561279	0.049892	84.000000	target	4.000000	na
74.611172	0.050716	84.000000	target	5.000000	na
74.661887	0.049933	84.000000	target	6.000000	na
74.711820	0.049897	84.000000	target	7.000000	na
74.761717	0.049263	84.000000	target	8.000000	na
74.810980	0.050211	84.000000	target	9.000000	na
74.861192	0.050452	84.000000	target	10.000000	na
74.911644	0.050051	84.000000	target	11.000000	na
74.961694	0.050057	84.000000	target	12.000000	na
75.011751	0.049687	84.000000	target	13.000000	na
75.061438	0.050077	84.000000	target	14.000000	na
75.111515	0.049682	84.000000	target	15.000000	na
75.161197	0.050637	84.000000	target	16.000000	na
75.211834	0.049238	85.000000	nontarget	1.000000	na
75.261073	0.050225	85.000000	nontarget	2.000000	na
75.311298	0.037226	85.000000	nontarget	3.000000	75.317560
75.348524	0.046493	85.000000	nontarget	4.000000	na
75.395017	0.049904	85.000000	nontarget	5.000000	na
75.444921	0.049729	85.000000	nontarget	6.000000	na
75.494650	0.050177	85.000000	nontarget	7.000000	na
75.544826	0.049984	85.000000	nontarget	8.000000	na
75.594810	0.050276	85.000000	nontarget	9.000000	na
75.645086	0.049899	85.000000	nontarget	10.000000	na
75.694985	0.049603	85.000000	nontarget	11.000000	na
75.744588	0.050141	85.000000	nontarget	12.000000	na
75.794729	0.049528	85.000000	nontarget	13.000000	na
75.844257	0.050328	85.000000	nontarget	14.000000	na
75.894585	0.049649	85.000000	nontarget	15.000000	na
75.944234	0.050299	85.000000	nontarget	16.000000	na
75.994533	0.050268	86.000000	nontarget	1.000000	na
76.044801	0.050265	86.000000	nontarget	2.000000	na
76.095066	0.049545	86.000000	nontarget	3.000000	na
76.144611	0.049544	86.000000	nontarget	4.000000	na
76.194155	0.050756	86.000000	nontarget	5.000000	na
76.244911	0.049706	86.000000	nontarget	6.000000	na
76.294617	0.050341	86.000000	nontarget	7.000000	na
76.344958	0.049587	86.000000	nontarget	8.000000	na
76.394545	0.050252	86.000000	nontarget	9.000000	na
76.444797	0.050058	86.000000	nontarget	10.000000	na
76.494855	0.050181	86.000000	nontarget	11.000000	76.503525
76.545036	0.050021	86.000000	nontarget	12.000000	na
76.595057	0.049706	86.000000	nontarget	13.000000	na
76.644762	0.049849	86.000000	nontarget	14.000000	na
76.694611	0.050259	86.000000	nontarget	15.000000	na
76.744870	0.050093	86.000000	nontarget	16.000000	na
76.794963	0.050109	87.000000	nontarget	1.000000	na
76.845073	0.049589	87.000000	nontarget	2.000000	na
76.894661	0.049599	87.000000	nontarget	3.000000	na
76.944260	0.050361	87.000000	nontarget	4.000000	na
76.994621	0.049900	87.000000	nontarget	5.000000	na
77.044521	0.050380	87.000000	nontarget	6.000000	na
77.094902	0.049918	87.000000	nontarget	7.000000	na
77.144820	0.049277	87.000000	nontarget	8.000000	na
77.194097	0.050742	87.000000	nontarget	9.000000	na
77.244839	0.049222	87.000000	nontarget	10.000000	na
77.294062	0.050527	87.000000	nontarget	11.000000	na
77.344589	0.050293	87.000000	nontarget	12.000000	na
77.394881	0.049487	87.000000	nontarget	13.000000	na
77.444368	0.049972	87.000000	nontarget	14.000000	na
77.494340	0.049767	87.000000	nontarget	15.000000	na
77.544107	0.037750	87.000000	nontarget	16.000000	na
77.581857	0.046321	88.000000	target	1.000000	na
77.628177	0.049899	88.000000	target	2.000000	na
77.678076	0.049870	88.000000	target	3.000000	na
77.727946	0.050253	88.000000	target	4.000000	na
77.778199	0.050170	88.000000	target	5.000000	na
77.828369	0.050037	88.000000	target	6.000000	na
77.878405	0.049746	88.000000	target	7.000000	na
77.928151	0.050334	88.000000	target	8.000000	na
77.978486	0.049681	88.000000	target	9.000000	na
78.028167	0.049704	88.000000	target	10.000000	na
78.077871	0.050290	88.000000	target	11.000000	na
78.128161	0.049660	88.000000	target	12.000000	na
78.177821	0.049991	88.000000	target	13.000000	na
78.227812	0.050430	88.000000	target	14.000000	na
78.278242	0.049910	88.000000	target	15.000000	na
78.328152	0.049911	88.000000	target	16.000000	na
78.378063	0.050257	89.000000	nontarget	1.000000	na
78.428320	0.049722	89.000000	nontarget	2.000000	na
78.478042	0.050045	89.000000	nontarget	3.000000	na
78.528087	0.049917	89.000000	nontarget	4.000000	78.534641
78.578005	0.050180	89.000000	nontarget	5.000000	na
78.628185	0.049453	89.000000	nontarget	6.000000	na
78.677637	0.037300	89.000000	nontarget	7.000000	na
78.714937	0.045709	89.000000	nontarget	8.000000	na
78.760646	0.050551	89.000000	nontarget	9.000000	na
78.811197	0.050288	89.000000	nontarget	10.000000	na
78.861485	0.049646	89.000000	nontarget	11.000000	na
78.911131	0.050285	89.000000	nontarget	12.000000	na
78.961416	0.050049	89.000000	nontarget	13.000000	na
79.011465	0.050078	89.000000	nontarget	14.000000	na
79.061543	0.049884	89.000000	nontarget	15.000000	na
79.111426	0.049428	89.000000	nontarget	16.000000	na
79.160854	0.050116	90.000000	nontarget	1.000000	na
79.210971	0.037655	90.000000	nontarget	2.000000	na
79.248625	0.046117	90.000000	nontarget	3.000000	na
79.294742	0.050014	90.000000	nontarget	4.000000	na
79.344756	0.049356	90.000000	nontarget	5.000000	na
79.394112	0.050631	90.000000	nontarget	6.000000	na
79.444743	0.049978	90.000000	nontarget	7.000000	na
79.494721	0.049603	90.000000	nontarget	8.000000	na
79.544324	0.050458	90.000000	nontarget	9.000000	na
79.594781	0.049918	90.000000	nontarget	10.000000	na
79.644699	0.050155	90.000000	nontarget	11.000000	na
79.694854	0.049810	90.000000	nontarget	12.000000	na
79.744664	0.049857	90.000000	nontarget	13.000000	na
79.794521	0.037315	90.000000	nontarget	14.000000	79.801348
79.831836	0.046556	90.000000	nontarget	15.000000	na
79.878392	0.049805	90.000000	nontarget	16.000000	na
79.928197	0.049113	91.000000	nontarget	1.000000	79.934797
79.977310	0.050733	91.000000	nontarget	2.000000	na
80.028043	0.049945	91.000000	nontarget	3.000000	na
80.077988	0.049539	91.000000	nontarget	4.000000	na
80.127528	0.050523	91.000000	nontarget	5.000000	na
80.178051	0.050168	91.000000	nontarget	6.000000	na
80.228218	0.049741	91.000000	nontarget	7.000000	na
80.277959	0.049286	91.000000	nontarget	8.000000	na
80.327246	0.050350	91.000000	nontarget	9.000000	na
80.377596	0.050294	91.000000	nontarget	10.000000	na
80.427890	0.050106	91.000000	nontarget	11.000000	na
80.477996	0.049995	91.000000	nontarget	12.000000	na
80.527991	0.050195	91.000000	nontarget	13.000000	na
80.578187	0.050075	91.000000	nontarget	14.000000	na
80.628261	0.049720	91.000000	nontarget	15.000000	na
80.677982	0.050110	91.000000	nontarget	16.000000	na
80.728091	0.049616	92.000000	nontarget	1.000000	80.756192
80.777707	0.050322	92.000000	nontarget	2.000000	na
80.828029	0.049957	92.000000	nontarget	3.000000	na
80.877986	0.049977	92.000000	nontarget	4.000000	na
80.927963	0.050069	92.000000	nontarget	5.000000	na
80.978033	0.049771	92.000000	nontarget	6.000000	na
81.027803	0.037184	92.000000	nontarget	7.000000	na
81.064987	0.045681	92.000000	nontarget	8.000000	na
81.110668	0.050411	92.000000	nontarget	9.000000	na
81.161079	0.049971	92.000000	nontarget	10.000000	na
81.211050	0.050377	92.000000	nontarget	11.000000	na
81.261427	0.049761	92.000000	nontarget	12.000000	na
81.311188	0.049443	92.000000	nontarget	13.000000	na
81.360631	0.037773	92.000000	nontarget	14.000000	na
81.398404	0.045779	92.000000	nontarget	15.000000	na
81.444183	0.050451	92.000000	nontarget	16.000000	na
81.494634	0.049999	93.000000	nontarget	1.000000	na
81.544633	0.049425	93.000000	nontarget	2.000000	na
81.594058	0.050423	93.000000	nontarget	3.000000	na
81.644481	0.050266	93.000000	nontarget	4.000000	na
81.694747	0.049753	93.000000	nontarget	5.000000	na
81.744500	0.049272	93.000000	nontarget	6.000000	na
81.793773	0.050427	93.000000	nontarget	7.000000	na
81.844200	0.050384	93.000000	nontarget	8.000000	na
81.894584	0.037365	93.000000	nontarget	9.000000	81.901105
81.931950	0.045677	93.000000	nontarget	10.000000	na
81.977626	0.050527	93.000000	nontarget	11.000000	na
82.028153	0.049727	93.000000	nontarget	12.000000	na
82.077880	0.050276	93.000000	nontarget	13.000000	na
82.128156	0.049644	93.000000	nontarget	14.000000	na
82.177800	0.049987	93.000000	nontarget	15.000000	na
82.227787	0.049463	93.000000	nontarget	16.000000	na
82.277251	0.037976	94.000000	nontarget	1.000000	na
82.315227	0.046042	94.000000	nontarget	2.000000	na
82.361269	0.049683	94.000000	nontarget	3.000000	na
82.410951	0.050284	94.000000	nontarget	4.000000	na
82.461235	0.050111	94.000000	nontarget	5.000000	na
82.511346	0.049099	94.000000	nontarget	6.000000	na
82.560446	0.038152	94.000000	nontarget	7.000000	na
82.598598	0.045647	94.000000	nontarget	8.000000	na
82.644245	0.049742	94.000000	nontarget	9.000000	na
82.693987	0.050596	94.000000	nontarget	10.000000	na
82.744583	0.050001	94.000000	nontarget	11.000000	na
82.794584	0.049855	94.000000	nontarget	12.000000	na
82.844439	0.049544	94.000000	nontarget	13.000000	na
82.893983	0.050724	94.000000	nontarget	14.000000	na
82.944707	0.049693	94.000000	nontarget	15.000000	82.950899
82.994401	0.049802	94.000000	nontarget	16.000000	na
83.044202	0.050307	95.000000	nontarget	1.000000	83.050778
83.094509	0.050031	95.000000	nontarget	2.000000	na
83.144541	0.049998	95.000000	nontarget	3.000000	na
83.194539	0.049608	95.000000	nontarget	4.000000	na
83.244147	0.049450	95.000000	nontarget	5.000000	na
83.293597	0.050404	95.000000	nontarget	6.000000	na
83.344001	0.049850	95.000000	nontarget	7.000000	na
83.393850	0.050680	95.000000	nontarget	8.000000	na
83.444530	0.049981	95.000000	nontarget	9.000000	na
83.494511	0.049239	95.000000	nontarget	10.000000	na
83.543750	0.050061	95.000000	nontarget	11.000000	na
83.593811	0.050604	95.000000	nontarget	12.000000	na
83.644415	0.049590	95.000000	nontarget	13.000000	na
83.694005	0.050442	95.000000	nontarget	14.000000	na
83.744448	0.050030	95.000000	nontarget	15.000000	na
83.794478	0.049626	95.000000	nontarget	16.000000	na
83.844103	0.050385	96.000000	nontarget	1.000000	na
83.894488	0.049958	96.000000	nontarget	2.000000	na
83.944446	0.049246	96.000000	nontarget	3.000000	na
83.993691	0.038719	96.000000	nontarget	4.000000	na
84.032410	0.044909	96.000000	nontarget	5.000000	na
84.077319	0.037790	96.000000	nontarget	6.000000	na
84.115110	0.045539	96.000000	nontarget	7.000000	na
84.160648	0.050422	96.000000	nontarget	8.000000	84.166481
84.211071	0.049823	96.000000	nontarget	9.000000	na
84.260893	0.049201	96.000000	nontarget	10.000000	na
84.310095	0.050920	96.000000	nontarget	11.000000	na
84.361015	0.050012	96.000000	nontarget	12.000000	na
84.411027	0.050041	96.000000	nontarget	13.000000	na
84.461068	0.050172	96.000000	nontarget	14.000000	na
84.511240	0.049823	96.000000	nontarget	15.000000	na
84.561062	0.050026	96.000000	nontarget	16.000000	na
84.611088	0.049320	97.000000	nontarget	1.000000	na
84.660408	0.050673	97.000000	nontarget	2.000000	na
84.711080	0.049957	97.000000	nontarget	3.000000	na
84.761037	0.049379	97.000000	nontarget	4.000000	na
84.810416	0.050669	97.000000	nontarget	5.000000	na
84.861086	0.050275	97.000000	nontarget	6.000000	na
84.911361	0.049507	97.000000	nontarget	7.000000	na
84.960868	0.049583	97.000000	nontarget	8.000000	na
85.010451	0.050638	97.000000	nontarget	9.000000	na
85.061089	0.049951	97.000000	nontarget	10.000000	na
85.111040	0.049905	97.000000	nontarget	11.000000	na
85.160944	0.049827	97.000000	nontarget	12.000000	na
85.210772	0.037643	97.000000	nontarget	13.000000	85.217523
85.248414	0.045543	97.000000	nontarget	14.000000	na
85.293958	0.037754	97.000000	nontarget	15.000000	na
85.331711	0.045952	97.000000	nontarget	16.000000	na
85.377663	0.049701	98.000000	nontarget	1.000000	85.383919
85.427364	0.049688	98.000000	nontarget	2.000000	na
85.477052	0.050569	98.000000	nontarget	3.000000	na
85.527620	0.049820	98.000000	nontarget	4.000000	na
85.577440	0.050293	98.000000	nontarget	5.000000	na
85.627733	0.049980	98.000000	nontarget	6.000000	na
85.677714	0.048965	98.000000	nontarget	7.000000	na
85.726679	0.050497	98.000000	nontarget	8.000000	na
85.777175	0.050565	98.000000	nontarget	9.000000	na
85.827740	0.049878	98.000000	nontarget	10.000000	na
85.877618	0.049970	98.000000	nontarget	11.000000	na
85.927588	0.050102	98.000000	nontarget	12.000000	na
85.977691	0.049252	98.000000	nontarget	13.000000	na
86.026943	0.050762	98.000000	nontarget	14.000000	na
86.077705	0.049616	98.000000	nontarget	15.000000	na
86.127321	0.050261	98.000000	nontarget	16.000000	na
86.177582	0.037718	99.000000	nontarget	1.000000	86.184295
86.215300	0.045114	99.000000	nontarget	2.000000	na
86.260414	0.038137	99.000000	nontarget	3.000000	na
86.298551	0.045758	99.000000	nontarget	4.000000	na
86.344309	0.049450	99.000000	nontarget	5.000000	na
86.393759	0.050547	99.000000	nontarget	6.000000	na
86.444306	0.049647	99.000000	nontarget	7.000000	na
86.493953	0.049728	99.000000	nontarget	8.000000	na
86.543681	0.050004	99.000000	nontarget	9.000000	na
86.593685	0.050612	99.000000	nontarget	10.000000	na
86.644297	0.050015	99.000000	nontarget	11.000000	na
86.694313	0.049296	99.000000	nontarget	12.000000	na
86.743609	0.050812	99.000000	nontarget	13.000000	na
86.794421	0.049486	99.000000	nontarget	14.000000	na
86.843907	0.050108	99.000000	nontarget	15.000000	na
86.894015	0.049437	99.000000	nontarget	16.000000	na
86.943452	0.038468	100.000000	nontarget	1.000000	na
86.981920	0.045606	100.000000	nontarget	2.000000	na
87.027526	0.050062	100.000000	nontarget	3.000000	na
87.077588	0.050138	100.000000	nontarget	4.000000	na
87.127726	0.049947	100.000000	nontarget	5.000000	na
87.177672	0.050084	100.000000	nontarget	6.000000	na
87.227756	0.049564	100.000000	nontarget	7.000000	87.258135
87.277320	0.050154	100.000000	nontarget	8.000000	na
87.327475	0.050244	100.000000	nontarget	9.000000	na
87.377719	0.049939	100.000000	nontarget	10.000000	na
87.427658	0.049604	100.000000	nontarget	11.000000	na
87.477261	0.050047	100.000000	nontarget	12.000000	na
87.527308	0.049597	100.000000	nontarget	13.000000	na
87.576905	0.050463	100.000000	nontarget	14.000000	na
87.627368	0.050153	100.000000	nontarget	15.000000	na
87.677521	0.049902	100.000000	nontarget	16.000000	na
87.727422	0.049767	101.000000	nontarget	1.000000	na
87.777189	0.049834	101.000000	nontarget	2.000000	na
87.827023	0.049961	101.000000	nontarget	3.000000	na
87.876984	0.050729	101.000000	nontarget	4.000000	na
87.927712	0.049841	101.000000	nontarget	5.000000	na
87.977553	0.037306	101.000000	nontarget	6.000000	na
88.014859	0.045509	101.000000	nontarget	7.000000	na
88.060368	0.038171	101.000000	nontarget	8.000000	na
88.098538	0.045753	101.000000	nontarget	9.000000	na
88.144292	0.049984	101.000000	nontarget	10.000000	na
88.194275	0.049999	101.000000	nontarget	11.000000	na
88.244275	0.049948	101.000000	nontarget	12.000000	na
88.294223	0.049819	101.000000	nontarget	13.000000	na
88.344041	0.050203	101.000000	nontarget	14.000000	na
88.394244	0.049908	101.000000	nontarget	15.000000	na
88.444152	0.050172	101.000000	nontarget	16.000000	na
88.494324	0.049956	102.000000	nontarget	1.000000	88.512353
88.544280	0.050109	102.000000	nontarget	2.000000	na
88.594389	0.049694	102.000000	nontarget	3.000000	na
88.644082	0.049441	102.000000	nontarget	4.000000	na
88.693524	0.050618	102.000000	nontarget	5.000000	na
88.744142	0.049639	102.000000	nontarget	6.000000	na
88.793781	0.050600	102.000000	nontarget	7.000000	na
88.844381	0.049428	102.000000	nontarget	8.000000	na
88.893809	0.050004	102.000000	nontarget	9.000000	na
88.943813	0.050320	102.000000	nontarget	10.000000	na
88.994134	0.050134	102.000000	nontarget	11.000000	na
89.044268	0.049875	102.000000	nontarget	12.000000	na
89.094143	0.050214	102.000000	nontarget	13.000000	na
89.144357	0.049757	102.000000	nontarget	14.000000	na
89.194115	0.049561	102.000000	nontarget	15.000000	na
89.243676	0.049865	102.000000	nontarget	16.000000	na
89.293541	0.038398	103.000000	nontarget	1.000000	na
89.331939	0.044876	103.000000	nontarget	2.000000	na
89.376816	0.038365	103.000000	nontarget	3.000000	na
89.415181	0.044615	103.000000	nontarget	4.000000	89.434847
89.459796	0.039019	103.000000	nontarget	5.000000	na
89.498815	0.044681	103.000000	nontarget	6.000000	na
89.543496	0.038102	103.000000	nontarget	7.000000	na
89.581599	0.045745	103.000000	nontarget	8.000000	na
89.627344	0.050263	103.000000	nontarget	9.000000	na
89.677607	0.049378	103.000000	nontarget	10.000000	na
89.726985	0.050081	103.000000	nontarget	11.000000	na
89.777066	0.049648	103.000000	nontarget	12.000000	na
89.826713	0.050848	103.000000	nontarget	13.000000	na
89.877561	0.049840	103.000000	nontarget	14.000000	na
89.927401	0.050016	103.000000	nontarget	15.000000	na
89.977417	0.049998	103.000000	nontarget	16.000000	na
90.027415	0.049873	104.000000	nontarget	1.000000	na
90.077288	0.050010	104.000000	nontarget	2.000000	na
90.127298	0.049476	104.000000	nontarget	3.000000	na
90.176774	0.050267	104.000000	nontarget	4.000000	na
90.227041	0.050146	104.000000	nontarget	5.000000	na
90.277187	0.049595	104.000000	nontarget	6.000000	na
90.326782	0.050604	104.000000	nontarget	7.000000	na
90.377385	0.049608	104.000000	nontarget	8.000000	90.383873
90.426994	0.050418	104.000000	nontarget	9.000000	na
90.477412	0.049828	104.000000	nontarget	10.000000	na
90.527240	0.049410	104.000000	nontarget	11.000000	na
90.576650	0.038259	104.000000	nontarget	12.000000	na
90.614909	0.045401	104.000000	nontarget	13.000000	na
90.660311	0.037831	104.000000	nontarget	14.000000	na
90.698142	0.045898	104.000000	nontarget	15.000000	na
90.744039	0.050101	104.000000	nontarget	16.000000	na
90.794140	0.049850	105.000000	nontarget	1.000000	na
90.843991	0.050006	105.000000	nontarget	2.000000	na
90.893997	0.049318	105.000000	nontarget	3.000000	na
90.943315	0.050718	105.000000	nontarget	4.000000	na
90.994033	0.050110	105.000000	nontarget	5.000000	na
91.044143	0.049021	105.000000	nontarget	6.000000	na
91.093164	0.050715	105.000000	nontarget	7.000000	na
91.143878	0.049860	105.000000	nontarget	8.000000	na
91.193738	0.050331	105.000000	nontarget	9.000000	na
91.244070	0.049847	105.000000	nontarget	10.000000	na
91.293917	0.049956	105.000000	nontarget	11.000000	na
91.343873	0.049826	105.000000	nontarget	12.000000	na
91.393699	0.037986	105.000000	nontarget	13.000000	na
91.431685	0.045889	105.000000	nontarget	14.000000	na
91.477573	0.049674	105.000000	nontarget	15.000000	na
91.527247	0.050071	105.000000	nontarget	16.000000	91.533715
91.577318	0.050035	106.000000	nontarget	1.000000	91.584170
91.627353	0.050162	106.000000	nontarget	2.000000	na
91.677515	0.049749	106.000000	nontarget	3.000000	na
91.727264	0.049645	106.000000	nontarget	4.000000	na
91.776909	0.049598	106.000000	nontarget	5.000000	na
91.826508	0.050777	106.000000	nontarget	6.000000	na
91.877285	0.049394	106.000000	nontarget	7.000000	na
91.926678	0.050603	106.000000	nontarget	8.000000	na
91.977282	0.049746	106.000000	nontarget	9.000000	na
92.027028	0.050284	106.000000	nontarget	10.000000	na
92.077312	0.049757	106.000000	nontarget	11.000000	na
92.127069	0.050199	106.000000	nontarget	12.000000	na
92.177268	0.049512	106.000000	nontarget	13.000000	na
92.226780	0.050445	106.000000	nontarget	14.000000	na
92.277225	0.050026	106.000000	nontarget	15.000000	na
92.327251	0.049440	106.000000	nontarget	16.000000	na
92.376691	0.049941	107.000000	nontarget	1.000000	na
92.426631	0.050457	107.000000	nontarget	2.000000	92.453445
92.477088	0.037891	107.000000	nontarget	3.000000	na
92.514979	0.044680	107.000000	nontarget	4.000000	na
92.559660	0.038362	107.000000	nontarget	5.000000	na
92.598021	0.045592	107.000000	nontarget	6.000000	na
92.643614	0.038165	107.000000	nontarget	7.000000	na
92.681779	0.044589	107.000000	nontarget	8.000000	na
92.726368	0.038364	107.000000	nontarget	9.000000	na
92.764731	0.044959	107.000000	nontarget	10.000000	na
92.809690	0.039078	107.000000	nontarget	11.000000	na
92.848768	0.045128	107.000000	nontarget	12.000000	na
92.893897	0.037653	107.000000	nontarget	13.000000	na
92.931550	0.045664	107.000000	nontarget	14.000000	na
92.977214	0.037295	107.000000	nontarget	15.000000	na
93.014509	0.046032	107.000000	nontarget	16.000000	na
93.060541	0.037793	108.000000	nontarget	1.000000	na
93.098334	0.045757	108.000000	nontarget	2.000000	na
93.144091	0.049728	108.000000	nontarget	3.000000	na
93.193819	0.050044	108.000000	nontarget	4.000000	na
93.243863	0.049436	108.000000	nontarget	5.000000	na
93.293299	0.038339	108.000000	nontarget	6.000000	na
93.331637	0.044962	108.000000	nontarget	7.000000	na
93.376599	0.037951	108.000000	nontarget	8.000000	na
93.414550	0.045972	108.000000	nontarget	9.000000	93.419277
93.460522	0.050238	108.000000	nontarget	10.000000	na
93.510760	0.049513	108.000000	nontarget	11.000000	na
93.560273	0.050103	108.000000	nontarget	12.000000	na
93.610376	0.050278	108.000000	nontarget	13.000000	na
93.660654	0.049318	108.000000	nontarget	14.000000	na
93.709972	0.050866	108.000000	nontarget	15.000000	na
93.760838	0.049080	108.000000	nontarget	16.000000	na
93.809918	0.050263	109.000000	nontarget	1.000000	na
93.860181	0.038221	109.000000	nontarget	2.000000	na
93.898403	0.045589	109.000000	nontarget	3.000000	na
93.943992	0.049744	109.000000	nontarget	4.000000	na
93.993736	0.049921	109.000000	nontarget	5.000000	na
94.043657	0.049783	109.000000	nontarget	6.000000	na
94.093439	0.049940	109.000000	nontarget	7.000000	na
94.143380	0.050583	109.000000	nontarget	8.000000	na
94.193963	0.049705	109.000000	nontarget	9.000000	na
94.243668	0.049977	109.000000	nontarget	10.000000	na
94.293645	0.049612	109.000000	nontarget	11.000000	na
94.343256	0.037912	109.000000	nontarget	12.000000	na
94.381168	0.045827	109.000000	nontarget	13.000000	na
94.426996	0.038042	109.000000	nontarget	14.000000	na
94.465038	0.045428	109.000000	nontarget	15.000000	na
94.510466	0.049742	109.000000	nontarget	16.000000	94.516979
94.560208	0.050262	110.000000	nontarget	1.000000	94.566773
94.610470	0.049797	110.000000	nontarget	2.000000	na
94.660267	0.050539	110.000000	nontarget	3.000000	na
94.710806	0.049153	110.000000	nontarget	4.000000	na
94.759960	0.050513	110.000000	nontarget	5.000000	na
94.810473	0.050293	110.000000	nontarget	6.000000	na
94.860766	0.049674	110.000000	nontarget	7.000000	na
94.910440	0.049683	110.000000	nontarget	8.000000	na
94.960123	0.050370	110.000000	nontarget	9.000000	na
95.010493	0.049768	110.000000	nontarget	10.000000	na
95.060261	0.049651	110.000000	nontarget	11.000000	na
95.109913	0.050598	110.000000	nontarget	12.000000	na
95.160511	0.049829	110.000000	nontarget	13.000000	na
95.210340	0.050103	110.000000	nontarget	14.000000	na
95.260442	0.049968	110.000000	nontarget	15.000000	na
95.310411	0.049916	110.000000	nontarget	16.000000	na
95.360327	0.049626	111.000000	nontarget	1.000000	na
95.409953	0.050522	111.000000	nontarget	2.000000	na
95.460475	0.050083	111.000000	nontarget	3.000000	95.487779
95.510558	0.049773	111.000000	nontarget	4.000000	na
95.560330	0.050086	111.000000	nontarget	5.000000	na
95.610417	0.049555	111.000000	nontarget	6.000000	na
95.659972	0.050324	111.000000	nontarget	7.000000	na
95.710296	0.037950	111.000000	nontarget	8.000000	na
95.748246	0.045594	111.000000	nontarget	9.000000	na
95.793840	0.049858	111.000000	nontarget	10.000000	na
95.843699	0.049994	111.000000	nontarget	11.000000	na
95.893693	0.049614	111.000000	nontarget	12.000000	na
95.943307	0.038213	111.000000	nontarget	13.000000	na
95.981520	0.045611	111.000000	nontarget	14.000000	na
96.027132	0.049839	111.000000	nontarget	15.000000	na
96.076971	0.050052	111.000000	nontarget	16.000000	na
96.127023	0.049452	112.000000	nontarget	1.000000	na
96.176475	0.038426	112.000000	nontarget	2.000000	na
96.214901	0.045696	112.000000	nontarget	3.000000	na
96.260597	0.049713	112.000000	nontarget	4.000000	na
96.310310	0.049769	112.000000	nontarget	5.000000	na
96.360079	0.050084	112.000000	nontarget	6.000000	na
96.410164	0.049731	112.000000	nontarget	7.000000	na
96.459894	0.050547	112.000000	nontarget	8.000000	na
96.510441	0.050281	112.000000	nontarget	9.000000	96.537438
96.560723	0.049441	112.000000	nontarget	10.000000	na
96.610163	0.038338	112.000000	nontarget	11.000000	na
96.648502	0.044443	112.000000	nontarget	12.000000	na
96.692945	0.038112	112.000000	nontarget	13.000000	na
96.731057	0.045886	112.000000	nontarget	14.000000	na
96.776944	0.037867	112.000000	nontarget	15.000000	na
96.814811	0.045567	112.000000	nontarget	16.000000	na
96.860378	0.049615	113.000000	nontarget	1.000000	na
96.909993	0.038394	113.000000	nontarget	2.000000	na
96.948388	0.045042	113.000000	nontarget	3.000000	na
96.993430	0.050125	113.000000	nontarget	4.000000	na
97.043555	0.050218	113.000000	nontarget	5.000000	na
97.093773	0.049206	113.000000	nontarget	6.000000	na
97.142979	0.050630	113.000000	nontarget	7.000000	na
97.193609	0.049927	113.000000	nontarget	8.000000	na
97.243536	0.049710	113.000000	nontarget	9.000000	na
97.293245	0.050351	113.000000	nontarget	10.000000	na
97.343597	0.049993	113.000000	nontarget	11.000000	na
97.393590	0.050022	113.000000	nontarget	12.000000	na
97.443612	0.049357	113.000000	nontarget	13.000000	na
97.492969	0.050260	113.000000	nontarget	14.000000	na
97.543229	0.049825	113.000000	nontarget	15.000000	na
97.593054	0.049878	113.000000	nontarget	16.000000	na
97.642933	0.038161	114.000000	nontarget	1.000000	na
97.681094	0.046243	114.000000	nontarget	2.000000	na
97.727337	0.049184	114.000000	nontarget	3.000000	97.746923
97.776521	0.050352	114.000000	nontarget	4.000000	na
97.826873	0.037780	114.000000	nontarget	5.000000	na
97.864653	0.045564	114.000000	nontarget	6.000000	na
97.910217	0.050047	114.000000	nontarget	7.000000	na
97.960265	0.050009	114.000000	nontarget	8.000000	na
98.010274	0.050106	114.000000	nontarget	9.000000	na
98.060380	0.050180	114.000000	nontarget	10.000000	na
98.110560	0.049677	114.000000	nontarget	11.000000	na
98.160237	0.049531	114.000000	nontarget	12.000000	na
98.209768	0.050464	114.000000	nontarget	13.000000	na
98.260231	0.049798	114.000000	nontarget	14.000000	na
98.310029	0.038154	114.000000	nontarget	15.000000	na
98.348183	0.045209	114.000000	nontarget	16.000000	na
98.393392	0.038229	115.000000	nontarget	1.000000	na
98.431621	0.044855	115.000000	nontarget	2.000000	na
98.476476	0.038248	115.000000	nontarget	3.000000	na
98.514723	0.045711	115.000000	nontarget	4.000000	na
98.560434	0.049343	115.000000	nontarget	5.000000	na
98.609778	0.050304	115.000000	nontarget	6.000000	na
98.660081	0.049981	115.000000	nontarget	7.000000	na
98.710062	0.050127	115.000000	nontarget	8.000000	na
98.760189	0.049857	115.000000	nontarget	9.000000	na
98.810046	0.050435	115.000000	nontarget	10.000000	98.816547
98.860481	0.049562	115.000000	nontarget	11.000000	na
98.910043	0.049740	115.000000	nontarget	12.000000	na
98.959784	0.037972	115.000000	nontarget	13.000000	na
98.997755	0.045475	115.000000	nontarget	14.000000	na
99.043231	0.049887	115.000000	nontarget	15.000000	na
99.093118	0.050337	115.000000	nontarget	16.000000	na
99.143455	0.050032	116.000000	nontarget	1.000000	na
99.193487	0.049779	116.000000	nontarget	2.000000	na
99.243266	0.050112	116.000000	nontarget	3.000000	na
99.293378	0.049812	116.000000	nontarget	4.000000	na
99.343190	0.050307	116.000000	nontarget	5.000000	na
99.393497	0.050074	116.000000	nontarget	6.000000	na
99.443571	0.049223	116.000000	nontarget	7.000000	na
99.492794	0.038488	116.000000	nontarget	8.000000	na
99.531282	0.045505	116.000000	nontarget	9.000000	na
99.576786	0.037781	116.000000	nontarget	10.000000	na
99.614567	0.045393	116.000000	nontarget	11.000000	na
99.659960	0.050071	116.000000	nontarget	12.000000	na
99.710031	0.049814	116.000000	nontarget	13.000000	na
99.759845	0.050128	116.000000	nontarget	14.000000	na
99.809973	0.050162	116.000000	nontarget	15.000000	99.829319
99.860135	0.050024	116.000000	nontarget	16.000000	na
99.910159	0.049941	117.000000	nontarget	1.000000	99.916626
99.960100	0.050003	117.000000	nontarget	2.000000	na
100.010104	0.050226	117.000000	nontarget	3.000000	na
100.060330	0.049485	117.000000	nontarget	4.000000	na
100.109814	0.050275	117.000000	nontarget	5.000000	na
100.160090	0.049993	117.000000	nontarget	6.000000	na
100.210082	0.050061	117.000000	nontarget	7.000000	na
100.260144	0.050075	117.000000	nontarget	8.000000	na
100.310219	0.050030	117.000000	nontarget	9.000000	na
100.360249	0.049823	117.000000	nontarget	10.000000	na
100.410072	0.038549	117.000000	nontarget	11.000000	na
100.448621	0.045050	117.000000	nontarget	12.000000	na
100.493671	0.049159	117.000000	nontarget	13.000000	na
100.542830	0.050265	117.000000	nontarget	14.000000	na
100.593095	0.049783	117.000000	nontarget	15.000000	na
100.642878	0.050296	117.000000	nontarget	16.000000	na
100.693174	0.050022	118.000000	nontarget	1.000000	na
100.743196	0.038405	118.000000	nontarget	2.000000	na
100.781601	0.045086	118.000000	nontarget	3.000000	na
100.826687	0.050334	118.000000	nontarget	4.000000	100.853169
100.877021	0.049684	118.000000	nontarget	5.000000	na
100.926705	0.050009	118.000000	nontarget	6.000000	na
100.976713	0.049939	118.000000	nontarget	7.000000	na
101.026652	0.049623	118.000000	nontarget	8.000000	na
101.076275	0.049915	118.000000	nontarget	9.000000	na
101.126189	0.050585	118.000000	nontarget	10.000000	na
101.176774	0.049909	118.000000	nontarget	11.000000	na
101.226683	0.050351	118.000000	nontarget	12.000000	na
101.277034	0.048860	118.000000	nontarget	13.000000	na
101.325894	0.038615	118.000000	nontarget	14.000000	na
101.364509	0.045528	118.000000	nontarget	15.000000	na
101.410036	0.038262	118.000000	nontarget	16.000000	na
101.448298	0.044845	119.000000	nontarget	1.000000	na
101.493143	0.038351	119.000000	nontarget	2.000000	na
101.531494	0.045071	119.000000	nontarget	3.000000	na
101.576566	0.038138	119.000000	nontarget	4.000000	na
101.614704	0.045244	119.000000	nontarget	5.000000	na
101.659948	0.038262	119.000000	nontarget	6.000000	na
101.698210	0.044990	119.000000	nontarget	7.000000	na
101.743200	0.038396	119.000000	nontarget	8.000000	na
101.781597	0.044750	119.000000	nontarget	9.000000	na
101.826347	0.050177	119.000000	nontarget	10.000000	na
101.876524	0.037978	119.000000	nontarget	11.000000	101.887904
101.914502	0.045422	119.000000	nontarget	12.000000	na
101.959924	0.049483	119.000000	nontarget	13.000000	na
102.009407	0.050517	119.000000	nontarget	14.000000	na
102.059924	0.049549	119.000000	nontarget	15.000000	na
102.109472	0.038160	119.000000	nontarget	16.000000	na
102.147632	0.045008	120.000000	nontarget	1.000000	na
102.192640	0.038600	120.000000	nontarget	2.000000	na
102.231239	0.045333	120.000000	nontarget	3.000000	na
102.276572	0.049978	120.000000	nontarget	4.000000	na
102.326550	0.049920	120.000000	nontarget	5.000000	na
102.376470	0.038181	120.000000	nontarget	6.000000	na
102.414651	0.045181	120.000000	nontarget	7.000000	na
102.459832	0.038520	120.000000	nontarget	8.000000	na
102.498352	0.044797	120.000000	nontarget	9.000000	na
102.543149	0.038408	120.000000	nontarget	10.000000	na
102.581558	0.044819	120.000000	nontarget	11.000000	na
102.626376	0.037902	120.000000	nontarget	12.000000	na
102.664279	0.045793	120.000000	nontarget	13.000000	na
102.710072	0.037804	120.000000	nontarget	14.000000	na
102.747876	0.045454	120.000000	nontarget	15.000000	na
102.793330	0.037828	120.000000	nontarget	16.000000	na
102.831158	0.044941	121.000000	target	1.000000	na
102.876099	0.039148	121.000000	target	2.000000	na
102.915248	0.044292	121.000000	target	3.000000	na
102.959539	0.038885	121.000000	target	4.000000	na
102.998425	0.044176	121.000000	target	5.000000	na
103.042601	0.038750	121.000000	target	6.000000	na
103.081351	0.045248	121.000000	target	7.000000	na
103.126599	0.038469	121.000000	target	8.000000	na
103.165068	0.044286	121.000000	target	9.000000	na
103.209354	0.039377	121.000000	target	10.000000	na
103.248731	0.044730	121.000000	target	11.000000	na
103.293461	0.049724	121.000000	target	12.000000	na
