onset	duration	trial_number	trial_type	frame_number	time_of_response
8.066020	0.049897	1.000000	nontarget	1.000000	na
8.115918	0.049995	1.000000	nontarget	2.000000	na
8.165913	0.049997	1.000000	nontarget	3.000000	na
8.215909	0.049996	1.000000	nontarget	4.000000	na
8.265905	0.049996	1.000000	nontarget	5.000000	na
8.315902	0.049994	1.000000	nontarget	6.000000	na
8.365896	0.049998	1.000000	nontarget	7.000000	na
8.415894	0.050000	1.000000	nontarget	8.000000	na
8.465894	0.049993	1.000000	nontarget	9.000000	na
8.515887	0.049996	1.000000	nontarget	10.000000	na
8.565883	0.049995	1.000000	nontarget	11.000000	na
8.615878	0.049999	1.000000	nontarget	12.000000	na
8.665876	0.049993	1.000000	nontarget	13.000000	na
8.715870	0.049997	1.000000	nontarget	14.000000	na
8.765867	0.049995	1.000000	nontarget	15.000000	na
8.815862	0.049999	1.000000	nontarget	16.000000	8.843071
8.865861	0.049995	2.000000	nontarget	1.000000	8.866830
8.915856	0.049997	2.000000	nontarget	2.000000	na
8.965853	0.049994	2.000000	nontarget	3.000000	na
9.015846	0.049996	2.000000	nontarget	4.000000	na
9.065843	0.049998	2.000000	nontarget	5.000000	na
9.115841	0.049996	2.000000	nontarget	6.000000	na
9.165836	0.049996	2.000000	nontarget	7.000000	na
9.215833	0.049997	2.000000	nontarget	8.000000	na
9.265830	0.049996	2.000000	nontarget	9.000000	na
9.315826	0.049996	2.000000	nontarget	10.000000	na
9.365821	0.049996	2.000000	nontarget	11.000000	na
9.415818	0.049996	2.000000	nontarget	12.000000	na
9.465813	0.049998	2.000000	nontarget	13.000000	na
9.515811	0.049996	2.000000	nontarget	14.000000	na
9.565807	0.049995	2.000000	nontarget	15.000000	9.592012
9.615803	0.050002	2.000000	nontarget	16.000000	na
9.665804	0.049993	3.000000	nontarget	1.000000	9.666690
9.715797	0.049995	3.000000	nontarget	2.000000	na
9.765792	0.049997	3.000000	nontarget	3.000000	na
9.815790	0.049996	3.000000	nontarget	4.000000	na
9.865785	0.049995	3.000000	nontarget	5.000000	na
9.915780	0.049996	3.000000	nontarget	6.000000	na
9.965776	0.049999	3.000000	nontarget	7.000000	na
10.015775	0.049992	3.000000	nontarget	8.000000	na
10.065767	0.049996	3.000000	nontarget	9.000000	na
10.115764	0.049994	3.000000	nontarget	10.000000	na
10.165758	0.049999	3.000000	nontarget	11.000000	na
10.215757	0.049996	3.000000	nontarget	12.000000	na
10.265753	0.049998	3.000000	nontarget	13.000000	na
10.315751	0.049994	3.000000	nontarget	14.000000	10.316494
10.365745	0.049996	3.000000	nontarget	15.000000	na
10.415741	0.050006	3.000000	nontarget	16.000000	na
10.465747	0.049986	4.000000	nontarget	1.000000	10.466807
10.515732	0.049998	4.000000	nontarget	2.000000	na
10.565731	0.049995	4.000000	nontarget	3.000000	na
10.615725	0.049998	4.000000	nontarget	4.000000	na
10.665723	0.049984	4.000000	nontarget	5.000000	na
10.715707	0.050009	4.000000	nontarget	6.000000	na
10.765716	0.049996	4.000000	nontarget	7.000000	na
10.815712	0.049996	4.000000	nontarget	8.000000	na
10.865708	0.049996	4.000000	nontarget	9.000000	na
10.915703	0.049997	4.000000	nontarget	10.000000	na
10.965701	0.049972	4.000000	nontarget	11.000000	na
11.015673	0.050021	4.000000	nontarget	12.000000	na
11.065694	0.049995	4.000000	nontarget	13.000000	na
11.115689	0.049996	4.000000	nontarget	14.000000	na
11.165685	0.049997	4.000000	nontarget	15.000000	11.166507
11.215682	0.049994	4.000000	nontarget	16.000000	na
11.265676	0.049997	5.000000	nontarget	1.000000	11.266727
11.315672	0.049999	5.000000	nontarget	2.000000	na
11.365671	0.049995	5.000000	nontarget	3.000000	na
11.415666	0.050000	5.000000	nontarget	4.000000	na
11.465666	0.049992	5.000000	nontarget	5.000000	na
11.515658	0.049997	5.000000	nontarget	6.000000	na
11.565655	0.049994	5.000000	nontarget	7.000000	na
11.615649	0.049997	5.000000	nontarget	8.000000	na
11.665647	0.050000	5.000000	nontarget	9.000000	na
11.715647	0.049992	5.000000	nontarget	10.000000	na
11.765639	0.049996	5.000000	nontarget	11.000000	na
11.815635	0.049994	5.000000	nontarget	12.000000	na
11.865629	0.049995	5.000000	nontarget	13.000000	na
11.915624	0.050002	5.000000	nontarget	14.000000	na
11.965626	0.049998	5.000000	nontarget	15.000000	na
12.015624	0.049994	5.000000	nontarget	16.000000	na
12.065617	0.049996	6.000000	target	1.000000	na
12.115614	0.049998	6.000000	target	2.000000	na
12.165612	0.049993	6.000000	target	3.000000	na
12.215605	0.049997	6.000000	target	4.000000	na
12.265601	0.049995	6.000000	target	5.000000	na
12.315597	0.049996	6.000000	target	6.000000	na
12.365593	0.049996	6.000000	target	7.000000	na
12.415590	0.050002	6.000000	target	8.000000	na
12.465591	0.049993	6.000000	target	9.000000	na
12.515584	0.049993	6.000000	target	10.000000	na
12.565577	0.049999	6.000000	target	11.000000	na
12.615577	0.049995	6.000000	target	12.000000	na
12.665572	0.049997	6.000000	target	13.000000	na
12.715569	0.049998	6.000000	target	14.000000	na
12.765567	0.049992	6.000000	target	15.000000	na
12.815560	0.050000	6.000000	target	16.000000	na
12.865559	0.049994	7.000000	nontarget	1.000000	12.866316
12.915553	0.049997	7.000000	nontarget	2.000000	na
12.965551	0.050000	7.000000	nontarget	3.000000	na
13.015551	0.049992	7.000000	nontarget	4.000000	na
13.065543	0.049996	7.000000	nontarget	5.000000	na
13.115538	0.049996	7.000000	nontarget	6.000000	na
13.165534	0.049996	7.000000	nontarget	7.000000	na
13.215531	0.049995	7.000000	nontarget	8.000000	na
13.265526	0.049996	7.000000	nontarget	9.000000	na
13.315522	0.049998	7.000000	nontarget	10.000000	na
13.365520	0.049995	7.000000	nontarget	11.000000	na
13.415515	0.049997	7.000000	nontarget	12.000000	na
13.465512	0.049997	7.000000	nontarget	13.000000	na
13.515509	0.049992	7.000000	nontarget	14.000000	na
13.565501	0.050001	7.000000	nontarget	15.000000	na
13.615502	0.049994	7.000000	nontarget	16.000000	13.616231
13.665497	0.049997	8.000000	nontarget	1.000000	13.666234
13.715494	0.049993	8.000000	nontarget	2.000000	na
13.765487	0.049996	8.000000	nontarget	3.000000	na
13.815483	0.049999	8.000000	nontarget	4.000000	na
13.865482	0.049993	8.000000	nontarget	5.000000	na
13.915475	0.049997	8.000000	nontarget	6.000000	na
13.965473	0.049993	8.000000	nontarget	7.000000	na
14.015466	0.049998	8.000000	nontarget	8.000000	na
14.065464	0.050001	8.000000	nontarget	9.000000	na
14.115465	0.049993	8.000000	nontarget	10.000000	na
14.165459	0.049996	8.000000	nontarget	11.000000	na
14.215455	0.049994	8.000000	nontarget	12.000000	na
14.265449	0.049998	8.000000	nontarget	13.000000	na
14.315446	0.049997	8.000000	nontarget	14.000000	14.338980
14.365443	0.049995	8.000000	nontarget	15.000000	na
14.415438	0.049996	8.000000	nontarget	16.000000	na
14.465435	0.049999	9.000000	nontarget	1.000000	14.466131
14.515433	0.049994	9.000000	nontarget	2.000000	na
14.565428	0.049997	9.000000	nontarget	3.000000	na
14.615425	0.049996	9.000000	nontarget	4.000000	na
14.665421	0.049999	9.000000	nontarget	5.000000	na
14.715420	0.049997	9.000000	nontarget	6.000000	na
14.765417	0.049992	9.000000	nontarget	7.000000	na
14.815409	0.049996	9.000000	nontarget	8.000000	na
14.865405	0.049996	9.000000	nontarget	9.000000	na
14.915401	0.049999	9.000000	nontarget	10.000000	na
14.965400	0.049996	9.000000	nontarget	11.000000	na
15.015397	0.049992	9.000000	nontarget	12.000000	na
15.065388	0.049998	9.000000	nontarget	13.000000	na
15.115386	0.049997	9.000000	nontarget	14.000000	15.148827
15.165383	0.049995	9.000000	nontarget	15.000000	na
15.215378	0.049996	9.000000	nontarget	16.000000	na
15.265374	0.049999	10.000000	nontarget	1.000000	15.266059
15.315373	0.049996	10.000000	nontarget	2.000000	na
15.365369	0.049996	10.000000	nontarget	3.000000	na
15.415364	0.049999	10.000000	nontarget	4.000000	na
15.465364	0.049992	10.000000	nontarget	5.000000	na
15.515356	0.049995	10.000000	nontarget	6.000000	na
15.565351	0.050007	10.000000	nontarget	7.000000	na
15.615358	0.049996	10.000000	nontarget	8.000000	na
15.665353	0.050025	10.000000	nontarget	9.000000	na
15.715379	0.049979	10.000000	nontarget	10.000000	na
15.765358	0.050032	10.000000	nontarget	11.000000	na
15.815390	0.049952	10.000000	nontarget	12.000000	na
15.865341	0.050000	10.000000	nontarget	13.000000	15.895885
15.915341	0.050003	10.000000	nontarget	14.000000	na
15.965345	0.049978	10.000000	nontarget	15.000000	na
16.015322	0.050001	10.000000	nontarget	16.000000	na
16.065323	0.049999	11.000000	nontarget	1.000000	na
16.115323	0.049997	11.000000	nontarget	2.000000	na
16.165320	0.049996	11.000000	nontarget	3.000000	na
16.215316	0.049996	11.000000	nontarget	4.000000	na
16.265311	0.049990	11.000000	nontarget	5.000000	na
16.315302	0.049990	11.000000	nontarget	6.000000	na
16.365292	0.049993	11.000000	nontarget	7.000000	na
16.415285	0.050015	11.000000	nontarget	8.000000	na
16.465300	0.049981	11.000000	nontarget	9.000000	na
16.515281	0.050000	11.000000	nontarget	10.000000	na
16.565281	0.049998	11.000000	nontarget	11.000000	na
16.615279	0.049983	11.000000	nontarget	12.000000	na
16.665262	0.050023	11.000000	nontarget	13.000000	na
16.715285	0.049973	11.000000	nontarget	14.000000	16.739858
16.765258	0.050001	11.000000	nontarget	15.000000	na
16.815259	0.049996	11.000000	nontarget	16.000000	na
16.865255	0.049996	12.000000	nontarget	1.000000	16.865972
16.915251	0.049996	12.000000	nontarget	2.000000	na
16.965246	0.049998	12.000000	nontarget	3.000000	na
17.015244	0.049995	12.000000	nontarget	4.000000	na
17.065239	0.049997	12.000000	nontarget	5.000000	na
17.115236	0.049996	12.000000	nontarget	6.000000	na
17.165232	0.049996	12.000000	nontarget	7.000000	na
17.215228	0.050000	12.000000	nontarget	8.000000	na
17.265228	0.049992	12.000000	nontarget	9.000000	na
17.315220	0.049998	12.000000	nontarget	10.000000	na
17.365218	0.049994	12.000000	nontarget	11.000000	na
17.415212	0.049985	12.000000	nontarget	12.000000	na
17.465197	0.050008	12.000000	nontarget	13.000000	na
17.515205	0.049996	12.000000	nontarget	14.000000	17.536733
17.565201	0.049996	12.000000	nontarget	15.000000	na
17.615198	0.049995	12.000000	nontarget	16.000000	na
17.665193	0.049996	13.000000	nontarget	1.000000	17.665899
17.715189	0.049977	13.000000	nontarget	2.000000	na
17.765166	0.050017	13.000000	nontarget	3.000000	na
17.815183	0.049996	13.000000	nontarget	4.000000	na
17.865179	0.049996	13.000000	nontarget	5.000000	na
17.915175	0.049995	13.000000	nontarget	6.000000	na
17.965170	0.049999	13.000000	nontarget	7.000000	na
18.015170	0.049994	13.000000	nontarget	8.000000	na
18.065164	0.049997	13.000000	nontarget	9.000000	na
18.115161	0.049996	13.000000	nontarget	10.000000	na
18.165157	0.049995	13.000000	nontarget	11.000000	na
18.215152	0.049995	13.000000	nontarget	12.000000	na
18.265147	0.049998	13.000000	nontarget	13.000000	na
18.315145	0.049996	13.000000	nontarget	14.000000	na
18.365141	0.049996	13.000000	nontarget	15.000000	na
18.415137	0.050000	13.000000	nontarget	16.000000	18.415872
18.465137	0.049993	14.000000	nontarget	1.000000	18.466016
18.515130	0.049990	14.000000	nontarget	2.000000	na
18.565121	0.050001	14.000000	nontarget	3.000000	na
18.615122	0.049998	14.000000	nontarget	4.000000	na
18.665120	0.050001	14.000000	nontarget	5.000000	na
18.715121	0.049990	14.000000	nontarget	6.000000	na
18.765110	0.050002	14.000000	nontarget	7.000000	na
18.815112	0.049996	14.000000	nontarget	8.000000	na
18.865108	0.049989	14.000000	nontarget	9.000000	na
18.915097	0.049997	14.000000	nontarget	10.000000	na
18.965094	0.049998	14.000000	nontarget	11.000000	na
19.015092	0.049995	14.000000	nontarget	12.000000	na
19.065087	0.049996	14.000000	nontarget	13.000000	na
19.115083	0.049996	14.000000	nontarget	14.000000	na
19.165079	0.049998	14.000000	nontarget	15.000000	na
19.215077	0.049996	14.000000	nontarget	16.000000	na
19.265074	0.049995	15.000000	nontarget	1.000000	19.295890
19.315068	0.049996	15.000000	nontarget	2.000000	na
19.365065	0.049996	15.000000	nontarget	3.000000	na
19.415060	0.049996	15.000000	nontarget	4.000000	na
19.465057	0.049996	15.000000	nontarget	5.000000	na
19.515053	0.049996	15.000000	nontarget	6.000000	na
19.565048	0.049998	15.000000	nontarget	7.000000	na
19.615046	0.049996	15.000000	nontarget	8.000000	na
19.665043	0.050000	15.000000	nontarget	9.000000	na
19.715042	0.049992	15.000000	nontarget	10.000000	na
19.765035	0.049985	15.000000	nontarget	11.000000	na
19.815019	0.050009	15.000000	nontarget	12.000000	na
19.865028	0.049995	15.000000	nontarget	13.000000	na
19.915023	0.049995	15.000000	nontarget	14.000000	na
19.965018	0.049998	15.000000	nontarget	15.000000	na
20.015016	0.049996	15.000000	nontarget	16.000000	na
20.065012	0.049994	16.000000	nontarget	1.000000	na
20.115007	0.049997	16.000000	nontarget	2.000000	na
20.165004	0.049996	16.000000	nontarget	3.000000	na
20.215000	0.049995	16.000000	nontarget	4.000000	20.230763
20.264995	0.049997	16.000000	nontarget	5.000000	na
20.314992	0.049996	16.000000	nontarget	6.000000	na
20.364988	0.049995	16.000000	nontarget	7.000000	na
20.414983	0.049980	16.000000	nontarget	8.000000	na
20.464963	0.050016	16.000000	nontarget	9.000000	na
20.514979	0.049993	16.000000	nontarget	10.000000	na
20.564972	0.049998	16.000000	nontarget	11.000000	na
20.614970	0.049996	16.000000	nontarget	12.000000	na
20.664966	0.050001	16.000000	nontarget	13.000000	na
20.714967	0.049993	16.000000	nontarget	14.000000	na
20.764960	0.049993	16.000000	nontarget	15.000000	na
20.814953	0.050000	16.000000	nontarget	16.000000	na
20.864953	0.049995	17.000000	nontarget	1.000000	na
20.914948	0.049995	17.000000	nontarget	2.000000	na
20.964943	0.049998	17.000000	nontarget	3.000000	20.968668
21.014941	0.049995	17.000000	nontarget	4.000000	na
21.064936	0.049996	17.000000	nontarget	5.000000	na
21.114933	0.049997	17.000000	nontarget	6.000000	na
21.164930	0.049994	17.000000	nontarget	7.000000	na
21.214924	0.049996	17.000000	nontarget	8.000000	na
21.264919	0.049999	17.000000	nontarget	9.000000	na
21.314919	0.049995	17.000000	nontarget	10.000000	na
21.364914	0.049995	17.000000	nontarget	11.000000	na
21.414909	0.049998	17.000000	nontarget	12.000000	na
21.464907	0.049995	17.000000	nontarget	13.000000	na
21.514902	0.049994	17.000000	nontarget	14.000000	na
21.564896	0.049998	17.000000	nontarget	15.000000	na
21.614894	0.049994	17.000000	nontarget	16.000000	na
21.664888	0.050001	18.000000	target	1.000000	na
21.714888	0.049994	18.000000	target	2.000000	na
21.764882	0.049995	18.000000	target	3.000000	na
21.814877	0.050003	18.000000	target	4.000000	na
21.864879	0.049993	18.000000	target	5.000000	na
21.914872	0.049997	18.000000	target	6.000000	na
21.964869	0.049997	18.000000	target	7.000000	na
22.014866	0.049995	18.000000	target	8.000000	na
22.064861	0.049996	18.000000	target	9.000000	na
22.114857	0.049996	18.000000	target	10.000000	na
22.164853	0.049995	18.000000	target	11.000000	na
22.214848	0.049997	18.000000	target	12.000000	na
22.264845	0.049996	18.000000	target	13.000000	na
22.314841	0.049996	18.000000	target	14.000000	na
22.364836	0.049997	18.000000	target	15.000000	na
22.414833	0.049998	18.000000	target	16.000000	na
22.464831	0.049994	19.000000	target	1.000000	na
22.514825	0.049996	19.000000	target	2.000000	na
22.564821	0.049997	19.000000	target	3.000000	na
22.614818	0.049996	19.000000	target	4.000000	na
22.664814	0.049999	19.000000	target	5.000000	na
22.714813	0.049993	19.000000	target	6.000000	na
22.764807	0.049998	19.000000	target	7.000000	na
22.814804	0.049999	19.000000	target	8.000000	na
22.864803	0.049993	19.000000	target	9.000000	na
22.914796	0.049996	19.000000	target	10.000000	na
22.964792	0.049999	19.000000	target	11.000000	na
23.014791	0.049995	19.000000	target	12.000000	na
23.064785	0.049996	19.000000	target	13.000000	na
23.114782	0.049994	19.000000	target	14.000000	na
23.164776	0.049998	19.000000	target	15.000000	23.165496
23.214774	0.049997	19.000000	target	16.000000	na
23.264771	0.049996	20.000000	nontarget	1.000000	23.265477
23.314767	0.049996	20.000000	nontarget	2.000000	na
23.364762	0.049995	20.000000	nontarget	3.000000	na
23.414757	0.049998	20.000000	nontarget	4.000000	na
23.464755	0.049996	20.000000	nontarget	5.000000	na
23.514751	0.049996	20.000000	nontarget	6.000000	na
23.564747	0.049993	20.000000	nontarget	7.000000	na
23.614740	0.049999	20.000000	nontarget	8.000000	na
23.664739	0.049997	20.000000	nontarget	9.000000	na
23.714736	0.049996	20.000000	nontarget	10.000000	na
23.764732	0.049996	20.000000	nontarget	11.000000	na
23.814728	0.049998	20.000000	nontarget	12.000000	na
23.864726	0.049996	20.000000	nontarget	13.000000	na
23.914722	0.049993	20.000000	nontarget	14.000000	na
23.964715	0.049998	20.000000	nontarget	15.000000	na
24.014713	0.049996	20.000000	nontarget	16.000000	na
24.064709	0.049996	21.000000	nontarget	1.000000	24.065419
24.114705	0.049997	21.000000	nontarget	2.000000	na
24.164702	0.049995	21.000000	nontarget	3.000000	na
24.214697	0.049997	21.000000	nontarget	4.000000	na
24.264695	0.049994	21.000000	nontarget	5.000000	na
24.314689	0.049997	21.000000	nontarget	6.000000	na
24.364686	0.049995	21.000000	nontarget	7.000000	na
24.414681	0.049998	21.000000	nontarget	8.000000	na
24.464679	0.049996	21.000000	nontarget	9.000000	na
24.514675	0.049996	21.000000	nontarget	10.000000	na
24.564671	0.049995	21.000000	nontarget	11.000000	na
24.614666	0.049996	21.000000	nontarget	12.000000	na
24.664662	0.050001	21.000000	nontarget	13.000000	na
24.714663	0.049993	21.000000	nontarget	14.000000	na
24.764656	0.049996	21.000000	nontarget	15.000000	na
24.814652	0.049996	21.000000	nontarget	16.000000	na
24.864648	0.050000	22.000000	nontarget	1.000000	na
24.914648	0.049992	22.000000	nontarget	2.000000	na
24.964641	0.049997	22.000000	nontarget	3.000000	na
25.014638	0.049996	22.000000	nontarget	4.000000	na
25.064634	0.050005	22.000000	nontarget	5.000000	na
25.114639	0.049995	22.000000	nontarget	6.000000	na
25.164634	0.050020	22.000000	nontarget	7.000000	na
25.214654	0.050000	22.000000	nontarget	8.000000	25.215350
25.264654	0.049958	22.000000	nontarget	9.000000	na
25.314612	0.050044	22.000000	nontarget	10.000000	na
25.364657	0.049964	22.000000	nontarget	11.000000	na
25.414621	0.050004	22.000000	nontarget	12.000000	na
25.464624	0.049975	22.000000	nontarget	13.000000	na
25.514600	0.050004	22.000000	nontarget	14.000000	na
25.564603	0.049999	22.000000	nontarget	15.000000	na
25.614602	0.049995	22.000000	nontarget	16.000000	na
25.664597	0.050001	23.000000	nontarget	1.000000	na
25.714598	0.049993	23.000000	nontarget	2.000000	na
25.764591	0.049996	23.000000	nontarget	3.000000	na
25.814588	0.049993	23.000000	nontarget	4.000000	na
25.864580	0.049990	23.000000	nontarget	5.000000	na
25.914570	0.050001	23.000000	nontarget	6.000000	na
25.964571	0.050003	23.000000	nontarget	7.000000	na
26.014574	0.049996	23.000000	nontarget	8.000000	na
26.064570	0.049989	23.000000	nontarget	9.000000	na
26.114559	0.049997	23.000000	nontarget	10.000000	na
26.164557	0.049984	23.000000	nontarget	11.000000	na
26.214540	0.049996	23.000000	nontarget	12.000000	26.215622
26.264536	0.050003	23.000000	nontarget	13.000000	na
26.314539	0.049996	23.000000	nontarget	14.000000	na
26.364535	0.049996	23.000000	nontarget	15.000000	na
26.414531	0.049995	23.000000	nontarget	16.000000	na
26.464526	0.049998	24.000000	nontarget	1.000000	na
26.514524	0.049996	24.000000	nontarget	2.000000	na
26.564520	0.049996	24.000000	nontarget	3.000000	na
26.614515	0.049997	24.000000	nontarget	4.000000	na
26.664512	0.049998	24.000000	nontarget	5.000000	na
26.714510	0.049993	24.000000	nontarget	6.000000	na
26.764504	0.049998	24.000000	nontarget	7.000000	na
26.814502	0.049994	24.000000	nontarget	8.000000	na
26.864496	0.050001	24.000000	nontarget	9.000000	na
26.914497	0.049993	24.000000	nontarget	10.000000	na
26.964490	0.049996	24.000000	nontarget	11.000000	na
27.014486	0.049994	24.000000	nontarget	12.000000	na
27.064480	0.049998	24.000000	nontarget	13.000000	na
27.114478	0.049994	24.000000	nontarget	14.000000	na
27.164472	0.049998	24.000000	nontarget	15.000000	na
27.214470	0.049995	24.000000	nontarget	16.000000	na
27.264465	0.049998	25.000000	nontarget	1.000000	na
27.314463	0.049996	25.000000	nontarget	2.000000	27.337772
27.364458	0.049997	25.000000	nontarget	3.000000	na
27.414456	0.049999	25.000000	nontarget	4.000000	na
27.464454	0.049993	25.000000	nontarget	5.000000	na
27.514447	0.049994	25.000000	nontarget	6.000000	na
27.564441	0.049999	25.000000	nontarget	7.000000	na
27.614440	0.049998	25.000000	nontarget	8.000000	na
27.664438	0.049996	25.000000	nontarget	9.000000	na
27.714434	0.049995	25.000000	nontarget	10.000000	na
27.764429	0.049994	25.000000	nontarget	11.000000	na
27.814423	0.049998	25.000000	nontarget	12.000000	na
27.864421	0.049997	25.000000	nontarget	13.000000	na
27.914418	0.049997	25.000000	nontarget	14.000000	na
27.964415	0.049996	25.000000	nontarget	15.000000	na
28.014411	0.049993	25.000000	nontarget	16.000000	na
28.064404	0.049998	26.000000	nontarget	1.000000	na
28.114402	0.049997	26.000000	nontarget	2.000000	na
28.164399	0.049995	26.000000	nontarget	3.000000	na
28.214394	0.049997	26.000000	nontarget	4.000000	28.245503
28.264391	0.049996	26.000000	nontarget	5.000000	na
28.314386	0.049996	26.000000	nontarget	6.000000	na
28.364382	0.049996	26.000000	nontarget	7.000000	na
28.414378	0.050001	26.000000	nontarget	8.000000	na
28.464379	0.049994	26.000000	nontarget	9.000000	na
28.514373	0.049994	26.000000	nontarget	10.000000	na
28.564367	0.049997	26.000000	nontarget	11.000000	na
28.614364	0.049995	26.000000	nontarget	12.000000	na
28.664359	0.050002	26.000000	nontarget	13.000000	na
28.714361	0.049993	26.000000	nontarget	14.000000	na
28.764353	0.049996	26.000000	nontarget	15.000000	na
28.814349	0.049995	26.000000	nontarget	16.000000	na
28.864344	0.049998	27.000000	nontarget	1.000000	na
28.914342	0.050000	27.000000	nontarget	2.000000	na
28.964342	0.049994	27.000000	nontarget	3.000000	na
29.014335	0.049993	27.000000	nontarget	4.000000	na
29.064328	0.049998	27.000000	nontarget	5.000000	na
29.114327	0.049997	27.000000	nontarget	6.000000	na
29.164324	0.049994	27.000000	nontarget	7.000000	29.165047
29.214318	0.049997	27.000000	nontarget	8.000000	na
29.264315	0.049996	27.000000	nontarget	9.000000	na
29.314311	0.049996	27.000000	nontarget	10.000000	na
29.364307	0.049996	27.000000	nontarget	11.000000	na
29.414302	0.049993	27.000000	nontarget	12.000000	na
29.464295	0.050002	27.000000	nontarget	13.000000	na
29.514296	0.049995	27.000000	nontarget	14.000000	na
29.564291	0.049997	27.000000	nontarget	15.000000	na
29.614288	0.049995	27.000000	nontarget	16.000000	na
29.664283	0.049998	28.000000	nontarget	1.000000	na
29.714281	0.049996	28.000000	nontarget	2.000000	na
29.764277	0.049996	28.000000	nontarget	3.000000	na
29.814273	0.049997	28.000000	nontarget	4.000000	na
29.864270	0.049996	28.000000	nontarget	5.000000	na
29.914265	0.049998	28.000000	nontarget	6.000000	29.921599
29.964264	0.049995	28.000000	nontarget	7.000000	na
30.014258	0.049996	28.000000	nontarget	8.000000	na
30.064254	0.049995	28.000000	nontarget	9.000000	na
30.114250	0.049996	28.000000	nontarget	10.000000	na
30.164245	0.049997	28.000000	nontarget	11.000000	na
30.214242	0.049997	28.000000	nontarget	12.000000	na
30.264239	0.049995	28.000000	nontarget	13.000000	na
30.314234	0.049997	28.000000	nontarget	14.000000	na
30.364231	0.049996	28.000000	nontarget	15.000000	na
30.414227	0.049999	28.000000	nontarget	16.000000	na
30.464227	0.049994	29.000000	nontarget	1.000000	na
30.514221	0.049995	29.000000	nontarget	2.000000	na
30.564216	0.049992	29.000000	nontarget	3.000000	na
30.614208	0.050000	29.000000	nontarget	4.000000	na
30.664208	0.049997	29.000000	nontarget	5.000000	na
30.714205	0.049997	29.000000	nontarget	6.000000	na
30.764202	0.049996	29.000000	nontarget	7.000000	30.778385
30.814197	0.049996	29.000000	nontarget	8.000000	na
30.864193	0.049996	29.000000	nontarget	9.000000	na
30.914188	0.049993	29.000000	nontarget	10.000000	na
30.964182	0.050001	29.000000	nontarget	11.000000	na
31.014183	0.049996	29.000000	nontarget	12.000000	na
31.064179	0.049997	29.000000	nontarget	13.000000	na
31.114176	0.049996	29.000000	nontarget	14.000000	na
31.164172	0.049995	29.000000	nontarget	15.000000	na
31.214167	0.049996	29.000000	nontarget	16.000000	na
31.264164	0.049996	30.000000	nontarget	1.000000	na
31.314159	0.049996	30.000000	nontarget	2.000000	na
31.364155	0.049996	30.000000	nontarget	3.000000	na
31.414152	0.050044	30.000000	nontarget	4.000000	na
31.464195	0.049949	30.000000	nontarget	5.000000	31.470454
31.514144	0.049997	30.000000	nontarget	6.000000	na
31.564141	0.049996	30.000000	nontarget	7.000000	na
31.614137	0.049995	30.000000	nontarget	8.000000	na
31.664132	0.049998	30.000000	nontarget	9.000000	na
31.714130	0.049994	30.000000	nontarget	10.000000	na
31.764124	0.049998	30.000000	nontarget	11.000000	na
31.814122	0.049996	30.000000	nontarget	12.000000	na
31.864118	0.049996	30.000000	nontarget	13.000000	na
31.914114	0.049997	30.000000	nontarget	14.000000	na
31.964111	0.049997	30.000000	nontarget	15.000000	na
32.014107	0.049996	30.000000	nontarget	16.000000	na
32.064104	0.049993	31.000000	nontarget	1.000000	na
32.114097	0.049998	31.000000	nontarget	2.000000	na
32.164095	0.049996	31.000000	nontarget	3.000000	na
32.214091	0.049996	31.000000	nontarget	4.000000	na
32.264087	0.049995	31.000000	nontarget	5.000000	na
32.314083	0.049997	31.000000	nontarget	6.000000	32.319364
32.364080	0.049997	31.000000	nontarget	7.000000	na
32.414077	0.049997	31.000000	nontarget	8.000000	na
32.464073	0.049993	31.000000	nontarget	9.000000	na
32.514067	0.049997	31.000000	nontarget	10.000000	na
32.564064	0.049995	31.000000	nontarget	11.000000	na
32.614060	0.049999	31.000000	nontarget	12.000000	na
32.664059	0.049999	31.000000	nontarget	13.000000	na
32.714058	0.049990	31.000000	nontarget	14.000000	na
32.764048	0.049999	31.000000	nontarget	15.000000	na
32.814048	0.049993	31.000000	nontarget	16.000000	na
32.864041	0.049996	32.000000	target	1.000000	na
32.914037	0.049998	32.000000	target	2.000000	na
32.964035	0.049995	32.000000	target	3.000000	na
33.014029	0.049998	32.000000	target	4.000000	na
33.064028	0.049996	32.000000	target	5.000000	na
33.114024	0.049996	32.000000	target	6.000000	na
33.164020	0.049995	32.000000	target	7.000000	na
33.214015	0.049996	32.000000	target	8.000000	na
33.264011	0.049997	32.000000	target	9.000000	na
33.314008	0.049996	32.000000	target	10.000000	na
33.364004	0.049998	32.000000	target	11.000000	na
33.414001	0.049998	32.000000	target	12.000000	na
33.464000	0.049994	32.000000	target	13.000000	na
33.513994	0.049997	32.000000	target	14.000000	na
33.563991	0.049995	32.000000	target	15.000000	33.584354
33.613986	0.049995	32.000000	target	16.000000	na
33.663981	0.049999	33.000000	nontarget	1.000000	33.664662
33.713980	0.049994	33.000000	nontarget	2.000000	na
33.763974	0.049996	33.000000	nontarget	3.000000	na
33.813970	0.049996	33.000000	nontarget	4.000000	na
33.863965	0.049997	33.000000	nontarget	5.000000	na
33.913963	0.049996	33.000000	nontarget	6.000000	na
33.963958	0.050000	33.000000	nontarget	7.000000	na
34.013958	0.049995	33.000000	nontarget	8.000000	na
34.063953	0.049995	33.000000	nontarget	9.000000	na
34.113948	0.049996	33.000000	nontarget	10.000000	na
34.163945	0.049996	33.000000	nontarget	11.000000	na
34.213941	0.049996	33.000000	nontarget	12.000000	na
34.263937	0.049995	33.000000	nontarget	13.000000	na
34.313932	0.049997	33.000000	nontarget	14.000000	na
34.363929	0.049996	33.000000	nontarget	15.000000	na
34.413925	0.050010	33.000000	nontarget	16.000000	na
34.463935	0.049982	34.000000	nontarget	1.000000	34.491435
34.513918	0.049995	34.000000	nontarget	2.000000	na
34.563912	0.050001	34.000000	nontarget	3.000000	na
34.613913	0.050012	34.000000	nontarget	4.000000	na
34.663925	0.050011	34.000000	nontarget	5.000000	na
34.713936	0.049975	34.000000	nontarget	6.000000	na
34.763911	0.049983	34.000000	nontarget	7.000000	na
34.813895	0.050018	34.000000	nontarget	8.000000	na
34.863913	0.049987	34.000000	nontarget	9.000000	na
34.913900	0.049983	34.000000	nontarget	10.000000	na
34.963883	0.050003	34.000000	nontarget	11.000000	na
35.013886	0.049983	34.000000	nontarget	12.000000	na
35.063869	0.050022	34.000000	nontarget	13.000000	na
35.113891	0.049988	34.000000	nontarget	14.000000	na
35.163879	0.049997	34.000000	nontarget	15.000000	na
35.213876	0.049996	34.000000	nontarget	16.000000	na
35.263872	0.049985	35.000000	nontarget	1.000000	na
35.313857	0.050004	35.000000	nontarget	2.000000	na
35.363861	0.049987	35.000000	nontarget	3.000000	35.364544
35.413848	0.050009	35.000000	nontarget	4.000000	na
35.463857	0.049995	35.000000	nontarget	5.000000	na
35.513852	0.049986	35.000000	nontarget	6.000000	na
35.563838	0.050012	35.000000	nontarget	7.000000	na
35.613849	0.049984	35.000000	nontarget	8.000000	na
35.663834	0.050002	35.000000	nontarget	9.000000	na
35.713836	0.049982	35.000000	nontarget	10.000000	na
35.763818	0.050000	35.000000	nontarget	11.000000	na
35.813818	0.049997	35.000000	nontarget	12.000000	na
35.863814	0.049996	35.000000	nontarget	13.000000	na
35.913810	0.049994	35.000000	nontarget	14.000000	na
35.963804	0.050005	35.000000	nontarget	15.000000	na
36.013809	0.049990	35.000000	nontarget	16.000000	na
36.063799	0.049997	36.000000	nontarget	1.000000	na
36.113796	0.049997	36.000000	nontarget	2.000000	na
36.163793	0.049995	36.000000	nontarget	3.000000	na
36.213788	0.049995	36.000000	nontarget	4.000000	na
36.263783	0.049996	36.000000	nontarget	5.000000	na
36.313780	0.049995	36.000000	nontarget	6.000000	na
36.363775	0.049998	36.000000	nontarget	7.000000	36.364490
36.413773	0.049998	36.000000	nontarget	8.000000	na
36.463771	0.049995	36.000000	nontarget	9.000000	na
36.513766	0.049994	36.000000	nontarget	10.000000	na
36.563760	0.049999	36.000000	nontarget	11.000000	na
36.613759	0.049995	36.000000	nontarget	12.000000	na
36.663754	0.049996	36.000000	nontarget	13.000000	na
36.713751	0.049995	36.000000	nontarget	14.000000	na
36.763746	0.049997	36.000000	nontarget	15.000000	na
36.813743	0.049995	36.000000	nontarget	16.000000	na
36.863738	0.049997	37.000000	nontarget	1.000000	na
36.913734	0.049996	37.000000	nontarget	2.000000	na
36.963731	0.050000	37.000000	nontarget	3.000000	na
37.013731	0.049993	37.000000	nontarget	4.000000	na
37.063724	0.049996	37.000000	nontarget	5.000000	na
37.113720	0.049996	37.000000	nontarget	6.000000	na
37.163716	0.049996	37.000000	nontarget	7.000000	na
37.213712	0.049997	37.000000	nontarget	8.000000	na
37.263709	0.049995	37.000000	nontarget	9.000000	na
37.313704	0.049997	37.000000	nontarget	10.000000	37.328341
37.363701	0.049995	37.000000	nontarget	11.000000	na
37.413696	0.049998	37.000000	nontarget	12.000000	na
37.463694	0.049996	37.000000	nontarget	13.000000	na
37.513690	0.049996	37.000000	nontarget	14.000000	na
37.563685	0.049996	37.000000	nontarget	15.000000	na
37.613681	0.049997	37.000000	nontarget	16.000000	na
37.663678	0.049996	38.000000	nontarget	1.000000	na
37.713675	0.049997	38.000000	nontarget	2.000000	na
37.763672	0.049995	38.000000	nontarget	3.000000	na
37.813667	0.049996	38.000000	nontarget	4.000000	na
37.863663	0.049996	38.000000	nontarget	5.000000	na
37.913660	0.049995	38.000000	nontarget	6.000000	na
37.963654	0.049997	38.000000	nontarget	7.000000	na
38.013652	0.049998	38.000000	nontarget	8.000000	na
38.063650	0.049992	38.000000	nontarget	9.000000	na
38.113642	0.049999	38.000000	nontarget	10.000000	na
38.163640	0.049995	38.000000	nontarget	11.000000	na
38.213635	0.049998	38.000000	nontarget	12.000000	na
38.263633	0.049996	38.000000	nontarget	13.000000	na
38.313629	0.049996	38.000000	nontarget	14.000000	na
38.363625	0.049996	38.000000	nontarget	15.000000	na
38.413621	0.049996	38.000000	nontarget	16.000000	na
38.463617	0.049993	39.000000	nontarget	1.000000	38.488467
38.513610	0.049999	39.000000	nontarget	2.000000	na
38.563609	0.049996	39.000000	nontarget	3.000000	na
38.613605	0.049996	39.000000	nontarget	4.000000	na
38.663601	0.049999	39.000000	nontarget	5.000000	na
38.713600	0.049994	39.000000	nontarget	6.000000	na
38.763594	0.049997	39.000000	nontarget	7.000000	na
38.813591	0.049996	39.000000	nontarget	8.000000	na
38.863587	0.049995	39.000000	nontarget	9.000000	na
38.913582	0.049998	39.000000	nontarget	10.000000	na
38.963580	0.049997	39.000000	nontarget	11.000000	na
39.013577	0.049997	39.000000	nontarget	12.000000	na
39.063574	0.049993	39.000000	nontarget	13.000000	na
39.113567	0.049997	39.000000	nontarget	14.000000	na
39.163564	0.049996	39.000000	nontarget	15.000000	na
39.213560	0.049996	39.000000	nontarget	16.000000	na
39.263556	0.049997	40.000000	nontarget	1.000000	na
39.313554	0.049998	40.000000	nontarget	2.000000	na
39.363552	0.049993	40.000000	nontarget	3.000000	39.364258
39.413545	0.049999	40.000000	nontarget	4.000000	na
39.463544	0.049994	40.000000	nontarget	5.000000	na
39.513538	0.049995	40.000000	nontarget	6.000000	na
39.563533	0.049998	40.000000	nontarget	7.000000	na
39.613531	0.049997	40.000000	nontarget	8.000000	na
39.663528	0.049998	40.000000	nontarget	9.000000	na
39.713526	0.049992	40.000000	nontarget	10.000000	na
39.763518	0.049997	40.000000	nontarget	11.000000	na
39.813515	0.049998	40.000000	nontarget	12.000000	na
39.863513	0.049995	40.000000	nontarget	13.000000	na
39.913508	0.049995	40.000000	nontarget	14.000000	na
39.963503	0.049998	40.000000	nontarget	15.000000	na
40.013501	0.049997	40.000000	nontarget	16.000000	na
40.063498	0.049995	41.000000	nontarget	1.000000	na
40.113493	0.049996	41.000000	nontarget	2.000000	na
40.163490	0.049995	41.000000	nontarget	3.000000	40.164192
40.213485	0.049996	41.000000	nontarget	4.000000	na
40.263481	0.049997	41.000000	nontarget	5.000000	na
40.313478	0.049996	41.000000	nontarget	6.000000	na
40.363473	0.049996	41.000000	nontarget	7.000000	na
40.413469	0.050000	41.000000	nontarget	8.000000	na
40.463469	0.049993	41.000000	nontarget	9.000000	na
40.513462	0.049995	41.000000	nontarget	10.000000	na
40.563457	0.050003	41.000000	nontarget	11.000000	na
40.613460	0.049992	41.000000	nontarget	12.000000	na
40.663452	0.050000	41.000000	nontarget	13.000000	na
40.713451	0.049993	41.000000	nontarget	14.000000	na
40.763445	0.049996	41.000000	nontarget	15.000000	na
40.813440	0.049995	41.000000	nontarget	16.000000	na
40.863435	0.049997	42.000000	target	1.000000	na
40.913433	0.049996	42.000000	target	2.000000	na
40.963429	0.049998	42.000000	target	3.000000	na
41.013427	0.049998	42.000000	target	4.000000	na
41.063424	0.049997	42.000000	target	5.000000	na
41.113422	0.049994	42.000000	target	6.000000	na
41.163415	0.049995	42.000000	target	7.000000	na
41.213410	0.049997	42.000000	target	8.000000	na
41.263408	0.049995	42.000000	target	9.000000	na
41.313403	0.049996	42.000000	target	10.000000	na
41.363399	0.049996	42.000000	target	11.000000	na
41.413395	0.049996	42.000000	target	12.000000	na
41.463391	0.049998	42.000000	target	13.000000	na
41.513389	0.049996	42.000000	target	14.000000	na
41.563385	0.049995	42.000000	target	15.000000	41.564110
41.613380	0.049997	42.000000	target	16.000000	na
41.663377	0.049999	43.000000	nontarget	1.000000	41.664099
41.713376	0.049991	43.000000	nontarget	2.000000	na
41.763367	0.049999	43.000000	nontarget	3.000000	na
41.813367	0.049994	43.000000	nontarget	4.000000	na
41.863361	0.049998	43.000000	nontarget	5.000000	na
41.913359	0.049994	43.000000	nontarget	6.000000	na
41.963353	0.049998	43.000000	nontarget	7.000000	na
42.013351	0.049993	43.000000	nontarget	8.000000	na
42.063344	0.050001	43.000000	nontarget	9.000000	na
42.113345	0.049993	43.000000	nontarget	10.000000	na
42.163338	0.049996	43.000000	nontarget	11.000000	na
42.213333	0.049996	43.000000	nontarget	12.000000	na
42.263329	0.049998	43.000000	nontarget	13.000000	na
42.313327	0.049996	43.000000	nontarget	14.000000	na
42.363323	0.049997	43.000000	nontarget	15.000000	na
42.413320	0.049995	43.000000	nontarget	16.000000	na
42.463314	0.049997	44.000000	nontarget	1.000000	na
42.513312	0.049997	44.000000	nontarget	2.000000	42.514004
42.563308	0.049996	44.000000	nontarget	3.000000	na
42.613305	0.049995	44.000000	nontarget	4.000000	na
42.663300	0.049999	44.000000	nontarget	5.000000	na
42.713299	0.049992	44.000000	nontarget	6.000000	na
42.763291	0.049998	44.000000	nontarget	7.000000	na
42.813289	0.049997	44.000000	nontarget	8.000000	na
42.863286	0.049996	44.000000	nontarget	9.000000	na
42.913281	0.049996	44.000000	nontarget	10.000000	na
42.963277	0.049997	44.000000	nontarget	11.000000	na
43.013274	0.049996	44.000000	nontarget	12.000000	na
43.063270	0.049999	44.000000	nontarget	13.000000	na
43.113269	0.050007	44.000000	nontarget	14.000000	na
43.163276	0.049983	44.000000	nontarget	15.000000	na
43.213258	0.049995	44.000000	nontarget	16.000000	na
43.263253	0.049997	45.000000	nontarget	1.000000	na
43.313250	0.049997	45.000000	nontarget	2.000000	na
43.363247	0.049995	45.000000	nontarget	3.000000	na
43.413242	0.049997	45.000000	nontarget	4.000000	na
43.463239	0.049996	45.000000	nontarget	5.000000	43.491183
43.513235	0.049997	45.000000	nontarget	6.000000	na
43.563232	0.049997	45.000000	nontarget	7.000000	na
43.613229	0.049996	45.000000	nontarget	8.000000	na
43.663224	0.049997	45.000000	nontarget	9.000000	na
43.713221	0.049996	45.000000	nontarget	10.000000	na
43.763217	0.049996	45.000000	nontarget	11.000000	na
43.813213	0.049994	45.000000	nontarget	12.000000	na
43.863207	0.049998	45.000000	nontarget	13.000000	na
43.913204	0.049999	45.000000	nontarget	14.000000	na
43.963203	0.050004	45.000000	nontarget	15.000000	na
44.013208	0.049985	45.000000	nontarget	16.000000	na
44.063193	0.050015	46.000000	nontarget	1.000000	na
44.113208	0.050013	46.000000	nontarget	2.000000	na
44.163221	0.049970	46.000000	nontarget	3.000000	na
44.213191	0.050008	46.000000	nontarget	4.000000	na
44.263199	0.049974	46.000000	nontarget	5.000000	na
44.313173	0.050030	46.000000	nontarget	6.000000	na
44.363203	0.050009	46.000000	nontarget	7.000000	44.363899
44.413212	0.049959	46.000000	nontarget	8.000000	na
44.463171	0.050031	46.000000	nontarget	9.000000	na
44.513202	0.049975	46.000000	nontarget	10.000000	na
44.563177	0.049991	46.000000	nontarget	11.000000	na
44.613168	0.049996	46.000000	nontarget	12.000000	na
44.663164	0.049992	46.000000	nontarget	13.000000	na
44.713156	0.049995	46.000000	nontarget	14.000000	na
44.763151	0.049996	46.000000	nontarget	15.000000	na
44.813147	0.049991	46.000000	nontarget	16.000000	na
44.863138	0.049991	47.000000	nontarget	1.000000	na
44.913129	0.049988	47.000000	nontarget	2.000000	na
44.963117	0.050005	47.000000	nontarget	3.000000	na
45.013122	0.049990	47.000000	nontarget	4.000000	na
45.063112	0.050016	47.000000	nontarget	5.000000	na
45.113128	0.049988	47.000000	nontarget	6.000000	na
45.163116	0.049998	47.000000	nontarget	7.000000	na
45.213114	0.049982	47.000000	nontarget	8.000000	na
45.263096	0.049996	47.000000	nontarget	9.000000	45.279951
45.313092	0.050003	47.000000	nontarget	10.000000	na
45.363095	0.049996	47.000000	nontarget	11.000000	na
45.413091	0.049994	47.000000	nontarget	12.000000	na
45.463085	0.049998	47.000000	nontarget	13.000000	na
45.513083	0.049998	47.000000	nontarget	14.000000	na
45.563081	0.049995	47.000000	nontarget	15.000000	na
45.613075	0.049996	47.000000	nontarget	16.000000	na
45.663071	0.049999	48.000000	nontarget	1.000000	na
45.713070	0.049995	48.000000	nontarget	2.000000	na
45.763064	0.049996	48.000000	nontarget	3.000000	na
45.813060	0.049997	48.000000	nontarget	4.000000	na
45.863058	0.049996	48.000000	nontarget	5.000000	na
45.913053	0.049995	48.000000	nontarget	6.000000	na
45.963048	0.049998	48.000000	nontarget	7.000000	na
46.013046	0.049994	48.000000	nontarget	8.000000	na
46.063040	0.050005	48.000000	nontarget	9.000000	na
46.113045	0.049988	48.000000	nontarget	10.000000	na
46.163033	0.049999	48.000000	nontarget	11.000000	na
46.213032	0.049994	48.000000	nontarget	12.000000	na
46.263025	0.049997	48.000000	nontarget	13.000000	na
46.313022	0.049996	48.000000	nontarget	14.000000	na
46.363018	0.049999	48.000000	nontarget	15.000000	na
46.413016	0.049997	48.000000	nontarget	16.000000	46.413734
46.463013	0.049995	49.000000	nontarget	1.000000	46.463881
46.513008	0.049991	49.000000	nontarget	2.000000	na
46.562999	0.050001	49.000000	nontarget	3.000000	na
46.613000	0.049996	49.000000	nontarget	4.000000	na
46.662996	0.049997	49.000000	nontarget	5.000000	na
46.712993	0.049994	49.000000	nontarget	6.000000	na
46.762987	0.049996	49.000000	nontarget	7.000000	na
46.812983	0.049996	49.000000	nontarget	8.000000	na
46.862979	0.049998	49.000000	nontarget	9.000000	na
46.912977	0.049995	49.000000	nontarget	10.000000	na
46.962973	0.049997	49.000000	nontarget	11.000000	na
47.012970	0.049996	49.000000	nontarget	12.000000	na
47.062966	0.049996	49.000000	nontarget	13.000000	na
47.112961	0.049996	49.000000	nontarget	14.000000	na
47.162957	0.049999	49.000000	nontarget	15.000000	na
47.212956	0.049994	49.000000	nontarget	16.000000	na
47.262950	0.049996	50.000000	nontarget	1.000000	na
47.312947	0.049998	50.000000	nontarget	2.000000	na
47.362945	0.049994	50.000000	nontarget	3.000000	47.363675
47.412939	0.049982	50.000000	nontarget	4.000000	na
47.462921	0.050012	50.000000	nontarget	5.000000	na
47.512933	0.049995	50.000000	nontarget	6.000000	na
47.562927	0.049997	50.000000	nontarget	7.000000	na
47.612924	0.049995	50.000000	nontarget	8.000000	na
47.662920	0.049998	50.000000	nontarget	9.000000	na
47.712917	0.049995	50.000000	nontarget	10.000000	na
47.762912	0.049998	50.000000	nontarget	11.000000	na
47.812910	0.049995	50.000000	nontarget	12.000000	na
47.862905	0.049995	50.000000	nontarget	13.000000	na
47.912901	0.049996	50.000000	nontarget	14.000000	na
47.962896	0.049993	50.000000	nontarget	15.000000	na
48.012890	0.050000	50.000000	nontarget	16.000000	na
48.062889	0.049993	51.000000	nontarget	1.000000	na
48.112882	0.050004	51.000000	nontarget	2.000000	48.137906
48.162886	0.049993	51.000000	nontarget	3.000000	na
48.212879	0.049994	51.000000	nontarget	4.000000	na
48.262873	0.049999	51.000000	nontarget	5.000000	na
48.312872	0.049994	51.000000	nontarget	6.000000	na
48.362866	0.049998	51.000000	nontarget	7.000000	na
48.412865	0.050001	51.000000	nontarget	8.000000	na
48.462866	0.049990	51.000000	nontarget	9.000000	na
48.512856	0.049997	51.000000	nontarget	10.000000	na
48.562852	0.049996	51.000000	nontarget	11.000000	na
48.612848	0.049995	51.000000	nontarget	12.000000	na
48.662843	0.049995	51.000000	nontarget	13.000000	na
48.712838	0.049998	51.000000	nontarget	14.000000	na
48.762836	0.049996	51.000000	nontarget	15.000000	na
48.812832	0.049998	51.000000	nontarget	16.000000	na
48.862830	0.049995	52.000000	nontarget	1.000000	na
48.912825	0.049996	52.000000	nontarget	2.000000	48.940970
48.962822	0.049999	52.000000	nontarget	3.000000	na
49.012821	0.049994	52.000000	nontarget	4.000000	na
49.062815	0.049996	52.000000	nontarget	5.000000	na
49.112810	0.049995	52.000000	nontarget	6.000000	na
49.162806	0.049996	52.000000	nontarget	7.000000	na
49.212802	0.049999	52.000000	nontarget	8.000000	na
49.262801	0.049994	52.000000	nontarget	9.000000	na
49.312795	0.049997	52.000000	nontarget	10.000000	na
49.362792	0.049996	52.000000	nontarget	11.000000	na
49.412787	0.049983	52.000000	nontarget	12.000000	na
49.462771	0.050010	52.000000	nontarget	13.000000	na
49.512780	0.049996	52.000000	nontarget	14.000000	na
49.562776	0.049996	52.000000	nontarget	15.000000	na
49.612772	0.049994	52.000000	nontarget	16.000000	na
49.662766	0.050000	53.000000	nontarget	1.000000	na
49.712766	0.049994	53.000000	nontarget	2.000000	na
49.762760	0.049996	53.000000	nontarget	3.000000	na
49.812756	0.049997	53.000000	nontarget	4.000000	na
49.862753	0.049996	53.000000	nontarget	5.000000	na
49.912749	0.049995	53.000000	nontarget	6.000000	49.932159
49.962744	0.050000	53.000000	nontarget	7.000000	na
50.012744	0.049995	53.000000	nontarget	8.000000	na
50.062739	0.049995	53.000000	nontarget	9.000000	na
50.112734	0.049997	53.000000	nontarget	10.000000	na
50.162731	0.049996	53.000000	nontarget	11.000000	na
50.212727	0.049998	53.000000	nontarget	12.000000	na
50.262726	0.049993	53.000000	nontarget	13.000000	na
50.312719	0.049996	53.000000	nontarget	14.000000	na
50.362715	0.049997	53.000000	nontarget	15.000000	na
50.412712	0.050004	53.000000	nontarget	16.000000	na
50.462716	0.049989	54.000000	nontarget	1.000000	na
50.512705	0.049995	54.000000	nontarget	2.000000	na
50.562700	0.049996	54.000000	nontarget	3.000000	na
50.612696	0.049997	54.000000	nontarget	4.000000	na
50.662693	0.049999	54.000000	nontarget	5.000000	na
50.712693	0.049994	54.000000	nontarget	6.000000	na
50.762687	0.049995	54.000000	nontarget	7.000000	na
50.812682	0.049997	54.000000	nontarget	8.000000	na
50.862679	0.049995	54.000000	nontarget	9.000000	50.885009
50.912674	0.049998	54.000000	nontarget	10.000000	na
50.962672	0.049991	54.000000	nontarget	11.000000	na
51.012663	0.050002	54.000000	nontarget	12.000000	na
51.062665	0.049996	54.000000	nontarget	13.000000	na
51.112661	0.049993	54.000000	nontarget	14.000000	na
51.162654	0.049995	54.000000	nontarget	15.000000	na
51.212649	0.050000	54.000000	nontarget	16.000000	na
51.262650	0.049994	55.000000	nontarget	1.000000	na
51.312644	0.049995	55.000000	nontarget	2.000000	na
51.362639	0.049997	55.000000	nontarget	3.000000	na
51.412636	0.050001	55.000000	nontarget	4.000000	na
51.462637	0.049993	55.000000	nontarget	5.000000	na
51.512630	0.049994	55.000000	nontarget	6.000000	na
51.562624	0.049999	55.000000	nontarget	7.000000	na
51.612623	0.049997	55.000000	nontarget	8.000000	na
51.662621	0.049994	55.000000	nontarget	9.000000	na
51.712615	0.049995	55.000000	nontarget	10.000000	na
51.762610	0.049996	55.000000	nontarget	11.000000	na
51.812606	0.049998	55.000000	nontarget	12.000000	51.823888
51.862605	0.049993	55.000000	nontarget	13.000000	na
51.912598	0.049997	55.000000	nontarget	14.000000	na
51.962595	0.049993	55.000000	nontarget	15.000000	na
52.012588	0.050000	55.000000	nontarget	16.000000	na
52.062588	0.049995	56.000000	nontarget	1.000000	na
52.112583	0.049996	56.000000	nontarget	2.000000	na
52.162579	0.049998	56.000000	nontarget	3.000000	na
52.212577	0.049997	56.000000	nontarget	4.000000	na
52.262573	0.049995	56.000000	nontarget	5.000000	na
52.312568	0.049996	56.000000	nontarget	6.000000	na
52.362565	0.049996	56.000000	nontarget	7.000000	na
52.412561	0.049997	56.000000	nontarget	8.000000	na
52.462559	0.049997	56.000000	nontarget	9.000000	na
52.512555	0.049996	56.000000	nontarget	10.000000	na
52.562551	0.049996	56.000000	nontarget	11.000000	na
52.612547	0.049995	56.000000	nontarget	12.000000	na
52.662542	0.050002	56.000000	nontarget	13.000000	na
52.712544	0.049993	56.000000	nontarget	14.000000	na
52.762537	0.049993	56.000000	nontarget	15.000000	na
52.812529	0.049997	56.000000	nontarget	16.000000	na
52.862527	0.049998	57.000000	nontarget	1.000000	na
52.912524	0.049998	57.000000	nontarget	2.000000	na
52.962522	0.049995	57.000000	nontarget	3.000000	52.973729
53.012518	0.049993	57.000000	nontarget	4.000000	na
53.062511	0.049997	57.000000	nontarget	5.000000	na
53.112507	0.049996	57.000000	nontarget	6.000000	na
53.162503	0.049997	57.000000	nontarget	7.000000	na
53.212501	0.049996	57.000000	nontarget	8.000000	na
53.262497	0.050001	57.000000	nontarget	9.000000	na
53.312497	0.049992	57.000000	nontarget	10.000000	na
53.362489	0.049996	57.000000	nontarget	11.000000	na
53.412485	0.049983	57.000000	nontarget	12.000000	na
53.462468	0.050010	57.000000	nontarget	13.000000	na
53.512478	0.049995	57.000000	nontarget	14.000000	na
53.562473	0.049998	57.000000	nontarget	15.000000	na
53.612471	0.049994	57.000000	nontarget	16.000000	na
53.662465	0.050003	58.000000	target	1.000000	na
53.712468	0.049998	58.000000	target	2.000000	na
53.762466	0.049988	58.000000	target	3.000000	na
53.812454	0.049996	58.000000	target	4.000000	na
53.862450	0.050006	58.000000	target	5.000000	na
53.912457	0.049993	58.000000	target	6.000000	na
53.962449	0.050013	58.000000	target	7.000000	na
54.012462	0.049966	58.000000	target	8.000000	na
54.062428	0.050018	58.000000	target	9.000000	na
54.112446	0.049996	58.000000	target	10.000000	na
54.162442	0.050003	58.000000	target	11.000000	na
54.212445	0.049986	58.000000	target	12.000000	na
54.262431	0.049968	58.000000	target	13.000000	na
54.312399	0.050025	58.000000	target	14.000000	na
54.362425	0.049986	58.000000	target	15.000000	na
54.412410	0.050010	58.000000	target	16.000000	na
54.462420	0.049985	59.000000	nontarget	1.000000	54.464807
54.512405	0.049993	59.000000	nontarget	2.000000	na
54.562398	0.050013	59.000000	nontarget	3.000000	na
54.612411	0.049983	59.000000	nontarget	4.000000	na
54.662394	0.050010	59.000000	nontarget	5.000000	na
54.712404	0.049972	59.000000	nontarget	6.000000	na
54.762377	0.049998	59.000000	nontarget	7.000000	na
54.812374	0.050002	59.000000	nontarget	8.000000	na
54.862376	0.049995	59.000000	nontarget	9.000000	na
54.912371	0.049995	59.000000	nontarget	10.000000	na
54.962366	0.049994	59.000000	nontarget	11.000000	na
55.012360	0.050001	59.000000	nontarget	12.000000	na
55.062361	0.049998	59.000000	nontarget	13.000000	na
55.112359	0.049990	59.000000	nontarget	14.000000	na
55.162350	0.049999	59.000000	nontarget	15.000000	na
55.212349	0.049996	59.000000	nontarget	16.000000	na
55.262345	0.050003	60.000000	nontarget	1.000000	na
55.312348	0.049990	60.000000	nontarget	2.000000	na
55.362338	0.049997	60.000000	nontarget	3.000000	na
55.412335	0.049994	60.000000	nontarget	4.000000	na
55.462329	0.049998	60.000000	nontarget	5.000000	na
55.512327	0.049997	60.000000	nontarget	6.000000	55.539774
55.562324	0.049995	60.000000	nontarget	7.000000	na
55.612319	0.049997	60.000000	nontarget	8.000000	na
55.662316	0.050002	60.000000	nontarget	9.000000	na
55.712318	0.049989	60.000000	nontarget	10.000000	na
55.762307	0.049996	60.000000	nontarget	11.000000	na
55.812302	0.049999	60.000000	nontarget	12.000000	na
55.862301	0.049995	60.000000	nontarget	13.000000	na
55.912296	0.049993	60.000000	nontarget	14.000000	na
55.962289	0.050001	60.000000	nontarget	15.000000	na
56.012290	0.049992	60.000000	nontarget	16.000000	na
56.062282	0.049997	61.000000	target	1.000000	na
56.112279	0.049997	61.000000	target	2.000000	na
56.162276	0.049993	61.000000	target	3.000000	na
56.212269	0.050000	61.000000	target	4.000000	na
56.262269	0.049996	61.000000	target	5.000000	na
56.312265	0.049999	61.000000	target	6.000000	na
56.362264	0.049993	61.000000	target	7.000000	na
56.412256	0.049997	61.000000	target	8.000000	na
56.462254	0.049996	61.000000	target	9.000000	na
56.512249	0.049996	61.000000	target	10.000000	na
56.562245	0.049997	61.000000	target	11.000000	na
56.612242	0.049995	61.000000	target	12.000000	na
56.662237	0.049997	61.000000	target	13.000000	na
56.712235	0.049996	61.000000	target	14.000000	na
56.762231	0.049996	61.000000	target	15.000000	na
56.812227	0.049996	61.000000	target	16.000000	na
56.862223	0.049993	62.000000	nontarget	1.000000	56.893216
56.912215	0.049999	62.000000	nontarget	2.000000	na
56.962214	0.049999	62.000000	nontarget	3.000000	na
57.012213	0.049994	62.000000	nontarget	4.000000	na
57.062208	0.049997	62.000000	nontarget	5.000000	na
57.112205	0.049996	62.000000	nontarget	6.000000	na
57.162200	0.049996	62.000000	nontarget	7.000000	na
57.212196	0.049996	62.000000	nontarget	8.000000	na
57.262193	0.049996	62.000000	nontarget	9.000000	na
57.312189	0.049998	62.000000	nontarget	10.000000	na
57.362186	0.049996	62.000000	nontarget	11.000000	na
57.412183	0.049996	62.000000	nontarget	12.000000	na
57.462179	0.049995	62.000000	nontarget	13.000000	na
57.512175	0.049996	62.000000	nontarget	14.000000	na
57.562171	0.049996	62.000000	nontarget	15.000000	na
57.612167	0.049997	62.000000	nontarget	16.000000	na
57.662164	0.049999	63.000000	nontarget	1.000000	na
57.712164	0.049991	63.000000	nontarget	2.000000	na
57.762155	0.049996	63.000000	nontarget	3.000000	na
57.812152	0.049996	63.000000	nontarget	4.000000	na
57.862148	0.049996	63.000000	nontarget	5.000000	na
57.912144	0.049993	63.000000	nontarget	6.000000	na
57.962137	0.050000	63.000000	nontarget	7.000000	na
58.012137	0.049997	63.000000	nontarget	8.000000	58.037776
58.062134	0.049998	63.000000	nontarget	9.000000	na
58.112131	0.049996	63.000000	nontarget	10.000000	na
58.162128	0.050007	63.000000	nontarget	11.000000	na
58.212135	0.049988	63.000000	nontarget	12.000000	na
58.262123	0.049993	63.000000	nontarget	13.000000	na
58.312116	0.050001	63.000000	nontarget	14.000000	na
58.362117	0.049990	63.000000	nontarget	15.000000	na
58.412107	0.049995	63.000000	nontarget	16.000000	na
58.462102	0.049997	64.000000	nontarget	1.000000	na
58.512099	0.049996	64.000000	nontarget	2.000000	na
58.562096	0.049995	64.000000	nontarget	3.000000	na
58.612090	0.049995	64.000000	nontarget	4.000000	na
58.662086	0.049998	64.000000	nontarget	5.000000	na
58.712084	0.049995	64.000000	nontarget	6.000000	na
58.762079	0.049996	64.000000	nontarget	7.000000	na
58.812075	0.049996	64.000000	nontarget	8.000000	na
58.862071	0.050000	64.000000	nontarget	9.000000	na
58.912071	0.049994	64.000000	nontarget	10.000000	na
58.962065	0.049999	64.000000	nontarget	11.000000	na
59.012064	0.049995	64.000000	nontarget	12.000000	na
59.062058	0.049995	64.000000	nontarget	13.000000	na
59.112053	0.049996	64.000000	nontarget	14.000000	na
59.162049	0.049996	64.000000	nontarget	15.000000	59.162735
59.212045	0.049995	64.000000	nontarget	16.000000	na
59.262040	0.050004	65.000000	nontarget	1.000000	59.262764
59.312044	0.049991	65.000000	nontarget	2.000000	na
59.362035	0.049997	65.000000	nontarget	3.000000	na
59.412032	0.050000	65.000000	nontarget	4.000000	na
59.462032	0.049995	65.000000	nontarget	5.000000	na
59.512027	0.049991	65.000000	nontarget	6.000000	na
59.562019	0.049996	65.000000	nontarget	7.000000	na
59.612015	0.049996	65.000000	nontarget	8.000000	na
59.662011	0.049996	65.000000	nontarget	9.000000	na
59.712007	0.049997	65.000000	nontarget	10.000000	na
59.762004	0.049996	65.000000	nontarget	11.000000	na
59.812000	0.049994	65.000000	nontarget	12.000000	na
59.861995	0.049998	65.000000	nontarget	13.000000	na
59.911993	0.049995	65.000000	nontarget	14.000000	na
59.961988	0.050000	65.000000	nontarget	15.000000	59.982597
60.011988	0.049993	65.000000	nontarget	16.000000	na
60.061981	0.049995	66.000000	nontarget	1.000000	60.062685
60.111976	0.049997	66.000000	nontarget	2.000000	na
60.161973	0.049992	66.000000	nontarget	3.000000	na
60.211965	0.050002	66.000000	nontarget	4.000000	na
60.261967	0.049995	66.000000	nontarget	5.000000	na
60.311962	0.049995	66.000000	nontarget	6.000000	na
60.361957	0.050003	66.000000	nontarget	7.000000	na
60.411960	0.049995	66.000000	nontarget	8.000000	na
60.461955	0.049992	66.000000	nontarget	9.000000	na
60.511947	0.049995	66.000000	nontarget	10.000000	na
60.561942	0.049997	66.000000	nontarget	11.000000	na
60.611940	0.049995	66.000000	nontarget	12.000000	na
60.661935	0.050003	66.000000	nontarget	13.000000	na
60.711937	0.049994	66.000000	nontarget	14.000000	na
60.761932	0.049993	66.000000	nontarget	15.000000	na
60.811925	0.049995	66.000000	nontarget	16.000000	na
60.861920	0.049997	67.000000	nontarget	1.000000	na
60.911917	0.049995	67.000000	nontarget	2.000000	na
60.961913	0.049998	67.000000	nontarget	3.000000	na
61.011911	0.049996	67.000000	nontarget	4.000000	na
61.061907	0.049999	67.000000	nontarget	5.000000	na
61.111906	0.049991	67.000000	nontarget	6.000000	na
61.161898	0.049996	67.000000	nontarget	7.000000	61.188610
61.211894	0.049996	67.000000	nontarget	8.000000	na
61.261890	0.049999	67.000000	nontarget	9.000000	na
61.311889	0.050000	67.000000	nontarget	10.000000	na
61.361889	0.049991	67.000000	nontarget	11.000000	na
61.411880	0.049996	67.000000	nontarget	12.000000	na
61.461876	0.049996	67.000000	nontarget	13.000000	na
61.511872	0.049993	67.000000	nontarget	14.000000	na
61.561865	0.049999	67.000000	nontarget	15.000000	na
61.611864	0.049997	67.000000	nontarget	16.000000	na
61.661861	0.049999	68.000000	target	1.000000	na
61.711861	0.049992	68.000000	target	2.000000	na
61.761853	0.049997	68.000000	target	3.000000	na
61.811850	0.049994	68.000000	target	4.000000	na
61.861844	0.049996	68.000000	target	5.000000	na
61.911840	0.049997	68.000000	target	6.000000	na
61.961837	0.049999	68.000000	target	7.000000	na
62.011836	0.049994	68.000000	target	8.000000	na
62.061830	0.049994	68.000000	target	9.000000	na
62.111824	0.049998	68.000000	target	10.000000	na
62.161822	0.049996	68.000000	target	11.000000	na
62.211818	0.049996	68.000000	target	12.000000	na
62.261814	0.049995	68.000000	target	13.000000	na
62.311810	0.049996	68.000000	target	14.000000	na
62.361806	0.049997	68.000000	target	15.000000	na
62.411802	0.049996	68.000000	target	16.000000	na
62.461799	0.049998	69.000000	nontarget	1.000000	na
62.511797	0.049994	69.000000	nontarget	2.000000	62.512494
62.561791	0.049996	69.000000	nontarget	3.000000	na
62.611787	0.049998	69.000000	nontarget	4.000000	na
62.661784	0.049996	69.000000	nontarget	5.000000	na
62.711781	0.049995	69.000000	nontarget	6.000000	na
62.761776	0.049994	69.000000	nontarget	7.000000	na
62.811770	0.049998	69.000000	nontarget	8.000000	na
62.861769	0.049997	69.000000	nontarget	9.000000	na
62.911766	0.049994	69.000000	nontarget	10.000000	na
62.961760	0.050008	69.000000	nontarget	11.000000	na
63.011768	0.049985	69.000000	nontarget	12.000000	na
63.061753	0.049997	69.000000	nontarget	13.000000	na
63.111750	0.050001	69.000000	nontarget	14.000000	na
63.161751	0.050009	69.000000	nontarget	15.000000	na
63.211760	0.049989	69.000000	nontarget	16.000000	na
63.261748	0.050000	70.000000	nontarget	1.000000	na
63.311748	0.049981	70.000000	nontarget	2.000000	na
63.361730	0.050036	70.000000	nontarget	3.000000	na
63.411766	0.049972	70.000000	nontarget	4.000000	na
63.461738	0.050002	70.000000	nontarget	5.000000	na
63.511739	0.049966	70.000000	nontarget	6.000000	na
63.561706	0.050001	70.000000	nontarget	7.000000	na
63.611707	0.050012	70.000000	nontarget	8.000000	63.644617
63.661719	0.049998	70.000000	nontarget	9.000000	na
63.711717	0.049996	70.000000	nontarget	10.000000	na
63.761712	0.049975	70.000000	nontarget	11.000000	na
63.811688	0.050008	70.000000	nontarget	12.000000	na
63.861695	0.049996	70.000000	nontarget	13.000000	na
63.911691	0.049988	70.000000	nontarget	14.000000	na
63.961680	0.050006	70.000000	nontarget	15.000000	na
64.011686	0.049987	70.000000	nontarget	16.000000	na
64.061674	0.050013	71.000000	nontarget	1.000000	na
64.111687	0.049990	71.000000	nontarget	2.000000	na
64.161677	0.049995	71.000000	nontarget	3.000000	na
64.211672	0.049985	71.000000	nontarget	4.000000	na
64.261656	0.049997	71.000000	nontarget	5.000000	na
64.311653	0.050001	71.000000	nontarget	6.000000	na
64.361654	0.049997	71.000000	nontarget	7.000000	na
64.411651	0.050000	71.000000	nontarget	8.000000	na
64.461652	0.049992	71.000000	nontarget	9.000000	na
64.511644	0.049995	71.000000	nontarget	10.000000	na
64.561639	0.049996	71.000000	nontarget	11.000000	na
64.611635	0.049994	71.000000	nontarget	12.000000	na
64.661630	0.050003	71.000000	nontarget	13.000000	na
64.711633	0.049985	71.000000	nontarget	14.000000	na
64.761618	0.050004	71.000000	nontarget	15.000000	na
64.811622	0.049993	71.000000	nontarget	16.000000	64.812320
64.861616	0.049997	72.000000	nontarget	1.000000	64.862330
64.911613	0.049996	72.000000	nontarget	2.000000	na
64.961609	0.049999	72.000000	nontarget	3.000000	na
65.011608	0.049995	72.000000	nontarget	4.000000	na
65.061602	0.049995	72.000000	nontarget	5.000000	na
65.111597	0.049995	72.000000	nontarget	6.000000	na
65.161592	0.049997	72.000000	nontarget	7.000000	na
65.211589	0.049997	72.000000	nontarget	8.000000	na
65.261586	0.049994	72.000000	nontarget	9.000000	na
65.311580	0.049998	72.000000	nontarget	10.000000	na
65.361578	0.049998	72.000000	nontarget	11.000000	na
65.411577	0.049997	72.000000	nontarget	12.000000	na
65.461574	0.049995	72.000000	nontarget	13.000000	na
65.511568	0.049996	72.000000	nontarget	14.000000	na
65.561564	0.049995	72.000000	nontarget	15.000000	na
65.611559	0.049996	72.000000	nontarget	16.000000	na
65.661554	0.050002	73.000000	nontarget	1.000000	na
65.711556	0.049992	73.000000	nontarget	2.000000	na
65.761548	0.049995	73.000000	nontarget	3.000000	na
65.811543	0.049999	73.000000	nontarget	4.000000	na
65.861542	0.049995	73.000000	nontarget	5.000000	65.877428
65.911537	0.049997	73.000000	nontarget	6.000000	na
65.961534	0.049998	73.000000	nontarget	7.000000	na
66.011532	0.049993	73.000000	nontarget	8.000000	na
66.061525	0.049998	73.000000	nontarget	9.000000	na
66.111523	0.049995	73.000000	nontarget	10.000000	na
66.161518	0.049996	73.000000	nontarget	11.000000	na
66.211513	0.049997	73.000000	nontarget	12.000000	na
66.261510	0.049995	73.000000	nontarget	13.000000	na
66.311505	0.049998	73.000000	nontarget	14.000000	na
66.361504	0.049996	73.000000	nontarget	15.000000	na
66.411500	0.050001	73.000000	nontarget	16.000000	na
66.461500	0.049992	74.000000	nontarget	1.000000	na
66.511492	0.049996	74.000000	nontarget	2.000000	na
66.561488	0.049996	74.000000	nontarget	3.000000	na
66.611484	0.049997	74.000000	nontarget	4.000000	na
66.661481	0.049996	74.000000	nontarget	5.000000	na
66.711477	0.049996	74.000000	nontarget	6.000000	na
66.761472	0.049995	74.000000	nontarget	7.000000	na
66.811468	0.049997	74.000000	nontarget	8.000000	na
66.861464	0.049996	74.000000	nontarget	9.000000	na
66.911461	0.049997	74.000000	nontarget	10.000000	na
66.961458	0.049998	74.000000	nontarget	11.000000	na
67.011455	0.049993	74.000000	nontarget	12.000000	na
67.061449	0.049998	74.000000	nontarget	13.000000	na
67.111447	0.049996	74.000000	nontarget	14.000000	67.138545
67.161443	0.049997	74.000000	nontarget	15.000000	na
67.211440	0.049995	74.000000	nontarget	16.000000	na
67.261435	0.049998	75.000000	nontarget	1.000000	67.262116
67.311432	0.049994	75.000000	nontarget	2.000000	na
67.361427	0.049996	75.000000	nontarget	3.000000	na
67.411423	0.049997	75.000000	nontarget	4.000000	na
67.461420	0.049999	75.000000	nontarget	5.000000	na
67.511420	0.049993	75.000000	nontarget	6.000000	na
67.561412	0.049997	75.000000	nontarget	7.000000	na
67.611410	0.049996	75.000000	nontarget	8.000000	na
67.661405	0.049995	75.000000	nontarget	9.000000	na
67.711401	0.049996	75.000000	nontarget	10.000000	na
67.761397	0.049996	75.000000	nontarget	11.000000	na
67.811393	0.049996	75.000000	nontarget	12.000000	na
67.861390	0.049996	75.000000	nontarget	13.000000	na
67.911386	0.049996	75.000000	nontarget	14.000000	na
67.961381	0.049999	75.000000	nontarget	15.000000	na
68.011380	0.049995	75.000000	nontarget	16.000000	68.012121
68.061375	0.049996	76.000000	nontarget	1.000000	68.062094
68.111371	0.049996	76.000000	nontarget	2.000000	na
68.161367	0.049997	76.000000	nontarget	3.000000	na
68.211363	0.049996	76.000000	nontarget	4.000000	na
68.261360	0.049997	76.000000	nontarget	5.000000	na
68.311357	0.049995	76.000000	nontarget	6.000000	na
68.361352	0.049996	76.000000	nontarget	7.000000	na
68.411347	0.049995	76.000000	nontarget	8.000000	na
68.461342	0.050004	76.000000	nontarget	9.000000	na
68.511346	0.049991	76.000000	nontarget	10.000000	na
68.561337	0.049997	76.000000	nontarget	11.000000	na
68.611334	0.049994	76.000000	nontarget	12.000000	na
68.661327	0.049996	76.000000	nontarget	13.000000	na
68.711324	0.049996	76.000000	nontarget	14.000000	na
68.761320	0.049997	76.000000	nontarget	15.000000	na
68.811317	0.049995	76.000000	nontarget	16.000000	na
68.861313	0.049998	77.000000	nontarget	1.000000	na
68.911310	0.049987	77.000000	nontarget	2.000000	68.934857
68.961298	0.050005	77.000000	nontarget	3.000000	na
69.011303	0.049995	77.000000	nontarget	4.000000	na
69.061298	0.049996	77.000000	nontarget	5.000000	na
69.111294	0.049996	77.000000	nontarget	6.000000	na
69.161291	0.049996	77.000000	nontarget	7.000000	na
69.211287	0.049999	77.000000	nontarget	8.000000	na
69.261286	0.049994	77.000000	nontarget	9.000000	na
69.311280	0.049998	77.000000	nontarget	10.000000	na
69.361278	0.049995	77.000000	nontarget	11.000000	na
69.411273	0.049998	77.000000	nontarget	12.000000	na
69.461271	0.050002	77.000000	nontarget	13.000000	na
69.511273	0.049990	77.000000	nontarget	14.000000	na
69.561262	0.049997	77.000000	nontarget	15.000000	na
69.611260	0.049992	77.000000	nontarget	16.000000	na
69.661252	0.050001	78.000000	nontarget	1.000000	na
69.711253	0.049993	78.000000	nontarget	2.000000	na
69.761246	0.049996	78.000000	nontarget	3.000000	na
69.811242	0.049995	78.000000	nontarget	4.000000	na
69.861237	0.049996	78.000000	nontarget	5.000000	69.876465
69.911233	0.049997	78.000000	nontarget	6.000000	na
69.961230	0.049998	78.000000	nontarget	7.000000	na
70.011228	0.049994	78.000000	nontarget	8.000000	na
70.061222	0.049997	78.000000	nontarget	9.000000	na
70.111219	0.049996	78.000000	nontarget	10.000000	na
70.161215	0.049996	78.000000	nontarget	11.000000	na
70.211212	0.049996	78.000000	nontarget	12.000000	na
70.261208	0.049996	78.000000	nontarget	13.000000	na
70.311204	0.049996	78.000000	nontarget	14.000000	na
70.361200	0.050000	78.000000	nontarget	15.000000	na
70.411200	0.049995	78.000000	nontarget	16.000000	na
70.461194	0.049996	79.000000	nontarget	1.000000	na
70.511190	0.049998	79.000000	nontarget	2.000000	na
70.561188	0.049993	79.000000	nontarget	3.000000	na
70.611181	0.049997	79.000000	nontarget	4.000000	na
70.661178	0.049997	79.000000	nontarget	5.000000	70.689284
70.711175	0.049996	79.000000	nontarget	6.000000	na
70.761171	0.049997	79.000000	nontarget	7.000000	na
70.811168	0.049993	79.000000	nontarget	8.000000	na
70.861161	0.049997	79.000000	nontarget	9.000000	na
70.911159	0.049995	79.000000	nontarget	10.000000	na
70.961154	0.049997	79.000000	nontarget	11.000000	na
71.011151	0.049998	79.000000	nontarget	12.000000	na
71.061148	0.049998	79.000000	nontarget	13.000000	na
71.111147	0.049991	79.000000	nontarget	14.000000	na
71.161138	0.049997	79.000000	nontarget	15.000000	na
71.211135	0.049996	79.000000	nontarget	16.000000	na
71.261131	0.049996	80.000000	nontarget	1.000000	na
71.311127	0.049998	80.000000	nontarget	2.000000	na
71.361125	0.049996	80.000000	nontarget	3.000000	na
71.411121	0.049996	80.000000	nontarget	4.000000	na
71.461117	0.049994	80.000000	nontarget	5.000000	na
71.511111	0.049999	80.000000	nontarget	6.000000	na
71.561109	0.049994	80.000000	nontarget	7.000000	na
71.611103	0.049997	80.000000	nontarget	8.000000	na
71.661101	0.049997	80.000000	nontarget	9.000000	71.688337
71.711098	0.049996	80.000000	nontarget	10.000000	na
71.761094	0.049995	80.000000	nontarget	11.000000	na
71.811089	0.049996	80.000000	nontarget	12.000000	na
71.861085	0.049996	80.000000	nontarget	13.000000	na
71.911081	0.049997	80.000000	nontarget	14.000000	na
71.961078	0.049997	80.000000	nontarget	15.000000	na
72.011075	0.049996	80.000000	nontarget	16.000000	na
72.061071	0.049996	81.000000	nontarget	1.000000	na
72.111066	0.049997	81.000000	nontarget	2.000000	na
72.161063	0.049996	81.000000	nontarget	3.000000	na
72.211059	0.049997	81.000000	nontarget	4.000000	na
72.261055	0.049996	81.000000	nontarget	5.000000	na
72.311051	0.049996	81.000000	nontarget	6.000000	na
72.361047	0.049997	81.000000	nontarget	7.000000	na
72.411044	0.049996	81.000000	nontarget	8.000000	na
72.461040	0.049998	81.000000	nontarget	9.000000	na
72.511038	0.049995	81.000000	nontarget	10.000000	na
72.561034	0.049995	81.000000	nontarget	11.000000	na
72.611029	0.050002	81.000000	nontarget	12.000000	na
72.661031	0.050021	81.000000	nontarget	13.000000	na
72.711052	0.049977	81.000000	nontarget	14.000000	72.730457
72.761029	0.049985	81.000000	nontarget	15.000000	na
72.811014	0.049998	81.000000	nontarget	16.000000	na
72.861011	0.050033	82.000000	nontarget	1.000000	72.861697
72.911044	0.049971	82.000000	nontarget	2.000000	na
72.961016	0.050001	82.000000	nontarget	3.000000	na
73.011017	0.049968	82.000000	nontarget	4.000000	na
73.060986	0.050011	82.000000	nontarget	5.000000	na
73.110997	0.050001	82.000000	nontarget	6.000000	na
73.160998	0.049996	82.000000	nontarget	7.000000	na
73.210994	0.049998	82.000000	nontarget	8.000000	na
73.260991	0.049995	82.000000	nontarget	9.000000	na
73.310986	0.049997	82.000000	nontarget	10.000000	na
73.360983	0.049985	82.000000	nontarget	11.000000	na
73.410968	0.049999	82.000000	nontarget	12.000000	na
73.460966	0.049999	82.000000	nontarget	13.000000	na
73.510965	0.049995	82.000000	nontarget	14.000000	na
73.560960	0.049993	82.000000	nontarget	15.000000	na
73.610954	0.050012	82.000000	nontarget	16.000000	na
73.660966	0.049989	83.000000	nontarget	1.000000	na
73.710955	0.049981	83.000000	nontarget	2.000000	na
73.760936	0.049996	83.000000	nontarget	3.000000	na
73.810932	0.049996	83.000000	nontarget	4.000000	73.837897
73.860928	0.050004	83.000000	nontarget	5.000000	na
73.910933	0.049995	83.000000	nontarget	6.000000	na
73.960927	0.049996	83.000000	nontarget	7.000000	na
74.010924	0.049996	83.000000	nontarget	8.000000	na
74.060919	0.049995	83.000000	nontarget	9.000000	na
74.110915	0.049997	83.000000	nontarget	10.000000	na
74.160912	0.049996	83.000000	nontarget	11.000000	na
74.210908	0.049996	83.000000	nontarget	12.000000	na
74.260904	0.049995	83.000000	nontarget	13.000000	na
74.310900	0.049995	83.000000	nontarget	14.000000	na
74.360895	0.049997	83.000000	nontarget	15.000000	na
74.410892	0.049998	83.000000	nontarget	16.000000	na
74.460890	0.049996	84.000000	nontarget	1.000000	na
74.510886	0.049994	84.000000	nontarget	2.000000	na
74.560881	0.050000	84.000000	nontarget	3.000000	na
74.610881	0.049995	84.000000	nontarget	4.000000	na
74.660876	0.049996	84.000000	nontarget	5.000000	na
74.710872	0.049994	84.000000	nontarget	6.000000	na
74.760866	0.049996	84.000000	nontarget	7.000000	na
74.810862	0.049996	84.000000	nontarget	8.000000	74.811557
74.860857	0.049997	84.000000	nontarget	9.000000	na
74.910854	0.049996	84.000000	nontarget	10.000000	na
74.960850	0.049997	84.000000	nontarget	11.000000	na
75.010847	0.049993	84.000000	nontarget	12.000000	na
75.060841	0.049999	84.000000	nontarget	13.000000	na
75.110840	0.049995	84.000000	nontarget	14.000000	na
75.160835	0.049995	84.000000	nontarget	15.000000	na
75.210830	0.049996	84.000000	nontarget	16.000000	na
75.260827	0.049997	85.000000	nontarget	1.000000	na
75.310824	0.049997	85.000000	nontarget	2.000000	na
75.360821	0.049996	85.000000	nontarget	3.000000	na
75.410818	0.049998	85.000000	nontarget	4.000000	na
75.460815	0.049993	85.000000	nontarget	5.000000	na
75.510808	0.049998	85.000000	nontarget	6.000000	na
75.560806	0.049996	85.000000	nontarget	7.000000	na
75.610802	0.049996	85.000000	nontarget	8.000000	75.621263
75.660799	0.049996	85.000000	nontarget	9.000000	na
75.710794	0.049996	85.000000	nontarget	10.000000	na
75.760790	0.049996	85.000000	nontarget	11.000000	na
75.810786	0.049997	85.000000	nontarget	12.000000	na
75.860783	0.049994	85.000000	nontarget	13.000000	na
75.910777	0.049997	85.000000	nontarget	14.000000	na
75.960775	0.049997	85.000000	nontarget	15.000000	na
76.010772	0.049995	85.000000	nontarget	16.000000	na
76.060767	0.049996	86.000000	nontarget	1.000000	na
76.110763	0.049996	86.000000	nontarget	2.000000	na
76.160759	0.049996	86.000000	nontarget	3.000000	na
76.210755	0.049996	86.000000	nontarget	4.000000	na
76.260751	0.049988	86.000000	nontarget	5.000000	na
76.310739	0.050005	86.000000	nontarget	6.000000	76.311539
76.360744	0.049996	86.000000	nontarget	7.000000	na
76.410740	0.049999	86.000000	nontarget	8.000000	na
76.460739	0.049993	86.000000	nontarget	9.000000	na
76.510732	0.049995	86.000000	nontarget	10.000000	na
76.560727	0.050001	86.000000	nontarget	11.000000	na
76.610728	0.049993	86.000000	nontarget	12.000000	na
76.660721	0.050002	86.000000	nontarget	13.000000	na
76.710722	0.049992	86.000000	nontarget	14.000000	na
76.760714	0.049996	86.000000	nontarget	15.000000	na
76.810711	0.049996	86.000000	nontarget	16.000000	na
76.860707	0.049996	87.000000	nontarget	1.000000	na
76.910702	0.049996	87.000000	nontarget	2.000000	na
76.960699	0.049997	87.000000	nontarget	3.000000	na
77.010696	0.049996	87.000000	nontarget	4.000000	na
77.060692	0.049999	87.000000	nontarget	5.000000	na
77.110690	0.049994	87.000000	nontarget	6.000000	77.111417
77.160684	0.049996	87.000000	nontarget	7.000000	na
77.210680	0.049996	87.000000	nontarget	8.000000	na
77.260677	0.049997	87.000000	nontarget	9.000000	na
77.310674	0.049996	87.000000	nontarget	10.000000	na
77.360669	0.049995	87.000000	nontarget	11.000000	na
77.410664	0.049997	87.000000	nontarget	12.000000	na
77.460661	0.049996	87.000000	nontarget	13.000000	na
77.510658	0.049994	87.000000	nontarget	14.000000	na
77.560652	0.049998	87.000000	nontarget	15.000000	na
77.610649	0.050000	87.000000	nontarget	16.000000	na
77.660649	0.049998	88.000000	nontarget	1.000000	na
77.710647	0.049992	88.000000	nontarget	2.000000	77.711394
77.760639	0.049996	88.000000	nontarget	3.000000	na
77.810635	0.049998	88.000000	nontarget	4.000000	na
77.860633	0.049993	88.000000	nontarget	5.000000	na
77.910626	0.049997	88.000000	nontarget	6.000000	na
77.960623	0.049998	88.000000	nontarget	7.000000	na
78.010621	0.049995	88.000000	nontarget	8.000000	na
78.060616	0.049995	88.000000	nontarget	9.000000	na
78.110612	0.049998	88.000000	nontarget	10.000000	na
78.160609	0.049996	88.000000	nontarget	11.000000	na
78.210605	0.049996	88.000000	nontarget	12.000000	na
78.260601	0.049996	88.000000	nontarget	13.000000	na
78.310597	0.049997	88.000000	nontarget	14.000000	na
78.360595	0.049995	88.000000	nontarget	15.000000	na
78.410590	0.049997	88.000000	nontarget	16.000000	na
78.460587	0.049996	89.000000	target	1.000000	na
78.510583	0.049996	89.000000	target	2.000000	na
78.560579	0.049995	89.000000	target	3.000000	na
78.610574	0.049996	89.000000	target	4.000000	na
78.660569	0.049994	89.000000	target	5.000000	na
78.710564	0.049983	89.000000	target	6.000000	na
78.760546	0.050012	89.000000	target	7.000000	na
78.810559	0.049997	89.000000	target	8.000000	na
78.860556	0.049995	89.000000	target	9.000000	na
78.910552	0.049996	89.000000	target	10.000000	na
78.960547	0.049996	89.000000	target	11.000000	na
79.010544	0.049995	89.000000	target	12.000000	na
79.060539	0.049997	89.000000	target	13.000000	na
79.110536	0.049997	89.000000	target	14.000000	na
79.160532	0.049996	89.000000	target	15.000000	79.190390
79.210528	0.049996	89.000000	target	16.000000	na
79.260525	0.049997	90.000000	nontarget	1.000000	79.261228
79.310521	0.049996	90.000000	nontarget	2.000000	na
79.360518	0.049997	90.000000	nontarget	3.000000	na
79.410514	0.049980	90.000000	nontarget	4.000000	na
79.460494	0.050011	90.000000	nontarget	5.000000	na
79.510505	0.049996	90.000000	nontarget	6.000000	na
79.560501	0.049998	90.000000	nontarget	7.000000	na
79.610498	0.049997	90.000000	nontarget	8.000000	na
79.660496	0.049997	90.000000	nontarget	9.000000	na
79.710492	0.049996	90.000000	nontarget	10.000000	na
79.760488	0.049995	90.000000	nontarget	11.000000	na
79.810483	0.049996	90.000000	nontarget	12.000000	na
79.860480	0.049995	90.000000	nontarget	13.000000	na
79.910474	0.049999	90.000000	nontarget	14.000000	na
79.960474	0.049996	90.000000	nontarget	15.000000	79.961190
80.010470	0.049993	90.000000	nontarget	16.000000	na
80.060463	0.049996	91.000000	nontarget	1.000000	80.061176
80.110460	0.049998	91.000000	nontarget	2.000000	na
80.160458	0.049996	91.000000	nontarget	3.000000	na
80.210454	0.049995	91.000000	nontarget	4.000000	na
80.260449	0.049996	91.000000	nontarget	5.000000	na
80.310445	0.049999	91.000000	nontarget	6.000000	na
80.360443	0.049994	91.000000	nontarget	7.000000	na
80.410437	0.050000	91.000000	nontarget	8.000000	na
80.460438	0.049992	91.000000	nontarget	9.000000	na
80.510429	0.049996	91.000000	nontarget	10.000000	na
80.560425	0.049998	91.000000	nontarget	11.000000	na
80.610424	0.049999	91.000000	nontarget	12.000000	na
80.660422	0.049996	91.000000	nontarget	13.000000	na
80.710419	0.049996	91.000000	nontarget	14.000000	na
80.760414	0.049993	91.000000	nontarget	15.000000	80.761108
80.810408	0.049996	91.000000	nontarget	16.000000	na
80.860404	0.049997	92.000000	nontarget	1.000000	80.861083
80.910401	0.049994	92.000000	nontarget	2.000000	na
80.960395	0.049999	92.000000	nontarget	3.000000	na
81.010394	0.049995	92.000000	nontarget	4.000000	na
81.060389	0.049998	92.000000	nontarget	5.000000	na
81.110387	0.049995	92.000000	nontarget	6.000000	na
81.160382	0.049995	92.000000	nontarget	7.000000	na
81.210377	0.049997	92.000000	nontarget	8.000000	na
81.260374	0.049994	92.000000	nontarget	9.000000	na
81.310368	0.049997	92.000000	nontarget	10.000000	na
81.360365	0.049996	92.000000	nontarget	11.000000	na
81.410361	0.049999	92.000000	nontarget	12.000000	na
81.460360	0.049994	92.000000	nontarget	13.000000	na
81.510354	0.049988	92.000000	nontarget	14.000000	81.526781
81.560342	0.050005	92.000000	nontarget	15.000000	na
81.610347	0.049996	92.000000	nontarget	16.000000	na
81.660343	0.049999	93.000000	nontarget	1.000000	na
81.710342	0.049995	93.000000	nontarget	2.000000	na
81.760337	0.049994	93.000000	nontarget	3.000000	na
81.810331	0.049996	93.000000	nontarget	4.000000	na
81.860328	0.050000	93.000000	nontarget	5.000000	na
81.910328	0.049993	93.000000	nontarget	6.000000	na
81.960321	0.049996	93.000000	nontarget	7.000000	na
82.010317	0.049996	93.000000	nontarget	8.000000	na
82.060313	0.049996	93.000000	nontarget	9.000000	na
82.110309	0.050011	93.000000	nontarget	10.000000	na
82.160320	0.049991	93.000000	nontarget	11.000000	na
82.210311	0.049995	93.000000	nontarget	12.000000	na
82.260306	0.050024	93.000000	nontarget	13.000000	na
82.310330	0.049958	93.000000	nontarget	14.000000	na
82.360288	0.050055	93.000000	nontarget	15.000000	na
82.410344	0.049964	93.000000	nontarget	16.000000	na
82.460307	0.049990	94.000000	target	1.000000	na
82.510297	0.050005	94.000000	target	2.000000	na
82.560302	0.049971	94.000000	target	3.000000	na
82.610273	0.050026	94.000000	target	4.000000	na
82.660299	0.049977	94.000000	target	5.000000	na
82.710276	0.049996	94.000000	target	6.000000	na
82.760272	0.049995	94.000000	target	7.000000	na
82.810267	0.049996	94.000000	target	8.000000	na
82.860263	0.049990	94.000000	target	9.000000	na
82.910253	0.049995	94.000000	target	10.000000	na
82.960248	0.049988	94.000000	target	11.000000	na
83.010236	0.050001	94.000000	target	12.000000	na
83.060237	0.050008	94.000000	target	13.000000	na
83.110245	0.049990	94.000000	target	14.000000	na
83.160234	0.049997	94.000000	target	15.000000	na
83.210231	0.049984	94.000000	target	16.000000	na
83.260215	0.049997	95.000000	target	1.000000	na
83.310212	0.049996	95.000000	target	2.000000	na
83.360208	0.050002	95.000000	target	3.000000	na
83.410210	0.049999	95.000000	target	4.000000	na
83.460210	0.049993	95.000000	target	5.000000	na
83.510203	0.049996	95.000000	target	6.000000	na
83.560199	0.049996	95.000000	target	7.000000	na
83.610195	0.049997	95.000000	target	8.000000	na
83.660192	0.049999	95.000000	target	9.000000	na
83.710192	0.049994	95.000000	target	10.000000	na
83.760186	0.049993	95.000000	target	11.000000	na
83.810179	0.049997	95.000000	target	12.000000	na
83.860177	0.049995	95.000000	target	13.000000	na
83.910171	0.049998	95.000000	target	14.000000	na
83.960169	0.049988	95.000000	target	15.000000	83.960854
84.010157	0.050004	95.000000	target	16.000000	na
84.060161	0.049996	96.000000	nontarget	1.000000	84.060852
84.110157	0.049994	96.000000	nontarget	2.000000	na
84.160151	0.050001	96.000000	nontarget	3.000000	na
84.210152	0.049995	96.000000	nontarget	4.000000	na
84.260147	0.049995	96.000000	nontarget	5.000000	na
84.310142	0.049994	96.000000	nontarget	6.000000	na
84.360136	0.049999	96.000000	nontarget	7.000000	na
84.410135	0.049999	96.000000	nontarget	8.000000	na
84.460134	0.049993	96.000000	nontarget	9.000000	na
84.510126	0.049995	96.000000	nontarget	10.000000	na
84.560121	0.049997	96.000000	nontarget	11.000000	na
84.610119	0.049997	96.000000	nontarget	12.000000	na
84.660115	0.050000	96.000000	nontarget	13.000000	na
84.710116	0.049992	96.000000	nontarget	14.000000	na
84.760108	0.049996	96.000000	nontarget	15.000000	na
84.810104	0.049995	96.000000	nontarget	16.000000	na
84.860099	0.050000	97.000000	nontarget	1.000000	84.881932
84.910099	0.049994	97.000000	nontarget	2.000000	na
84.960094	0.049997	97.000000	nontarget	3.000000	na
85.010091	0.049995	97.000000	nontarget	4.000000	na
85.060086	0.049996	97.000000	nontarget	5.000000	na
85.110082	0.049994	97.000000	nontarget	6.000000	na
85.160077	0.049998	97.000000	nontarget	7.000000	na
85.210075	0.049995	97.000000	nontarget	8.000000	na
85.260070	0.049997	97.000000	nontarget	9.000000	na
85.310067	0.049996	97.000000	nontarget	10.000000	na
85.360063	0.049997	97.000000	nontarget	11.000000	na
85.410060	0.049996	97.000000	nontarget	12.000000	na
85.460056	0.049995	97.000000	nontarget	13.000000	na
85.510051	0.049996	97.000000	nontarget	14.000000	na
85.560047	0.049997	97.000000	nontarget	15.000000	na
85.610044	0.049996	97.000000	nontarget	16.000000	85.638913
85.660040	0.049993	98.000000	nontarget	1.000000	85.660740
85.710033	0.050000	98.000000	nontarget	2.000000	na
85.760032	0.049995	98.000000	nontarget	3.000000	na
85.810027	0.049996	98.000000	nontarget	4.000000	na
85.860023	0.049996	98.000000	nontarget	5.000000	na
85.910019	0.049997	98.000000	nontarget	6.000000	na
85.960016	0.049998	98.000000	nontarget	7.000000	na
86.010013	0.049994	98.000000	nontarget	8.000000	na
86.060008	0.049996	98.000000	nontarget	9.000000	na
86.110004	0.049996	98.000000	nontarget	10.000000	na
86.160000	0.049999	98.000000	nontarget	11.000000	na
86.209999	0.049992	98.000000	nontarget	12.000000	na
86.259991	0.049998	98.000000	nontarget	13.000000	na
86.309989	0.049995	98.000000	nontarget	14.000000	na
86.359984	0.049998	98.000000	nontarget	15.000000	na
86.409981	0.049998	98.000000	nontarget	16.000000	na
86.459980	0.049996	99.000000	nontarget	1.000000	86.460758
86.509975	0.049996	99.000000	nontarget	2.000000	na
86.559972	0.049996	99.000000	nontarget	3.000000	na
86.609967	0.049994	99.000000	nontarget	4.000000	na
86.659962	0.050001	99.000000	nontarget	5.000000	na
86.709963	0.049996	99.000000	nontarget	6.000000	na
86.759959	0.049994	99.000000	nontarget	7.000000	na
86.809953	0.049995	99.000000	nontarget	8.000000	na
86.859948	0.049996	99.000000	nontarget	9.000000	na
86.909944	0.049997	99.000000	nontarget	10.000000	na
86.959941	0.049996	99.000000	nontarget	11.000000	na
87.009937	0.049996	99.000000	nontarget	12.000000	na
87.059932	0.049997	99.000000	nontarget	13.000000	na
87.109929	0.049995	99.000000	nontarget	14.000000	na
87.159924	0.049997	99.000000	nontarget	15.000000	na
87.209922	0.049997	99.000000	nontarget	16.000000	na
87.259919	0.049996	100.000000	nontarget	1.000000	87.291078
87.309914	0.049994	100.000000	nontarget	2.000000	na
87.359908	0.049998	100.000000	nontarget	3.000000	na
87.409906	0.049982	100.000000	nontarget	4.000000	na
87.459888	0.050011	100.000000	nontarget	5.000000	na
87.509899	0.049996	100.000000	nontarget	6.000000	na
87.559895	0.049996	100.000000	nontarget	7.000000	na
87.609891	0.049997	100.000000	nontarget	8.000000	na
87.659888	0.049996	100.000000	nontarget	9.000000	na
87.709884	0.049980	100.000000	nontarget	10.000000	na
87.759865	0.050013	100.000000	nontarget	11.000000	na
87.809878	0.049995	100.000000	nontarget	12.000000	na
87.859873	0.049995	100.000000	nontarget	13.000000	na
87.909868	0.049997	100.000000	nontarget	14.000000	na
87.959865	0.049996	100.000000	nontarget	15.000000	na
88.009862	0.049994	100.000000	nontarget	16.000000	na
88.059856	0.049998	101.000000	target	1.000000	na
88.109854	0.049997	101.000000	target	2.000000	na
88.159851	0.049993	101.000000	target	3.000000	na
88.209844	0.049996	101.000000	target	4.000000	na
88.259841	0.049999	101.000000	target	5.000000	na
88.309840	0.049993	101.000000	target	6.000000	na
88.359833	0.049998	101.000000	target	7.000000	na
88.409831	0.049998	101.000000	target	8.000000	na
88.459829	0.049995	101.000000	target	9.000000	na
88.509824	0.049995	101.000000	target	10.000000	na
88.559819	0.049996	101.000000	target	11.000000	na
88.609814	0.049996	101.000000	target	12.000000	na
88.659811	0.049999	101.000000	target	13.000000	na
88.709810	0.049996	101.000000	target	14.000000	88.742864
88.759806	0.049995	101.000000	target	15.000000	na
88.809802	0.049996	101.000000	target	16.000000	na
88.859798	0.049996	102.000000	nontarget	1.000000	88.860482
88.909794	0.049995	102.000000	nontarget	2.000000	na
88.959789	0.049997	102.000000	nontarget	3.000000	na
89.009786	0.049996	102.000000	nontarget	4.000000	na
89.059782	0.049996	102.000000	nontarget	5.000000	na
89.109778	0.049997	102.000000	nontarget	6.000000	na
89.159774	0.049995	102.000000	nontarget	7.000000	na
89.209769	0.049996	102.000000	nontarget	8.000000	na
89.259765	0.049996	102.000000	nontarget	9.000000	na
89.309762	0.049999	102.000000	nontarget	10.000000	na
89.359761	0.049994	102.000000	nontarget	11.000000	na
89.409755	0.049996	102.000000	nontarget	12.000000	na
89.459751	0.049998	102.000000	nontarget	13.000000	na
89.509749	0.049995	102.000000	nontarget	14.000000	na
89.559744	0.049996	102.000000	nontarget	15.000000	na
89.609740	0.049996	102.000000	nontarget	16.000000	89.628066
89.659735	0.049995	103.000000	nontarget	1.000000	89.660435
89.709730	0.049998	103.000000	nontarget	2.000000	na
89.759729	0.049995	103.000000	nontarget	3.000000	na
89.809724	0.049996	103.000000	nontarget	4.000000	na
89.859719	0.049997	103.000000	nontarget	5.000000	na
89.909717	0.049996	103.000000	nontarget	6.000000	na
89.959713	0.049999	103.000000	nontarget	7.000000	na
90.009712	0.049994	103.000000	nontarget	8.000000	na
90.059706	0.049997	103.000000	nontarget	9.000000	na
90.109703	0.049996	103.000000	nontarget	10.000000	na
90.159699	0.049993	103.000000	nontarget	11.000000	na
90.209692	0.049999	103.000000	nontarget	12.000000	na
90.259691	0.049996	103.000000	nontarget	13.000000	na
90.309687	0.049994	103.000000	nontarget	14.000000	na
90.359681	0.049998	103.000000	nontarget	15.000000	90.369792
90.409679	0.049982	103.000000	nontarget	16.000000	na
90.459661	0.050011	104.000000	nontarget	1.000000	90.460582
90.509671	0.049996	104.000000	nontarget	2.000000	na
90.559667	0.049996	104.000000	nontarget	3.000000	na
90.609663	0.049996	104.000000	nontarget	4.000000	na
90.659659	0.049998	104.000000	nontarget	5.000000	na
90.709656	0.049996	104.000000	nontarget	6.000000	na
90.759653	0.049995	104.000000	nontarget	7.000000	na
90.809648	0.049999	104.000000	nontarget	8.000000	na
90.859647	0.049993	104.000000	nontarget	9.000000	na
90.909640	0.049997	104.000000	nontarget	10.000000	na
90.959638	0.049997	104.000000	nontarget	11.000000	na
91.009635	0.049997	104.000000	nontarget	12.000000	na
91.059632	0.049998	104.000000	nontarget	13.000000	na
91.109630	0.049994	104.000000	nontarget	14.000000	na
91.159624	0.049995	104.000000	nontarget	15.000000	na
91.209618	0.049996	104.000000	nontarget	16.000000	na
91.259615	0.049996	105.000000	nontarget	1.000000	na
91.309611	0.049996	105.000000	nontarget	2.000000	na
91.359607	0.049996	105.000000	nontarget	3.000000	na
91.409604	0.050003	105.000000	nontarget	4.000000	na
91.459606	0.049990	105.000000	nontarget	5.000000	91.460316
91.509596	0.049997	105.000000	nontarget	6.000000	na
91.559593	0.050006	105.000000	nontarget	7.000000	na
91.609599	0.049986	105.000000	nontarget	8.000000	na
91.659585	0.050007	105.000000	nontarget	9.000000	na
91.709591	0.049995	105.000000	nontarget	10.000000	na
91.759586	0.049999	105.000000	nontarget	11.000000	na
91.809586	0.049983	105.000000	nontarget	12.000000	na
91.859569	0.049997	105.000000	nontarget	13.000000	na
91.909566	0.050023	105.000000	nontarget	14.000000	na
91.959590	0.049987	105.000000	nontarget	15.000000	na
92.009576	0.049980	105.000000	nontarget	16.000000	na
92.059557	0.049987	106.000000	nontarget	1.000000	92.060255
92.109543	0.050012	106.000000	nontarget	2.000000	na
92.159555	0.049999	106.000000	nontarget	3.000000	na
92.209554	0.049998	106.000000	nontarget	4.000000	na
92.259551	0.049995	106.000000	nontarget	5.000000	na
92.309547	0.049987	106.000000	nontarget	6.000000	na
92.359533	0.050003	106.000000	nontarget	7.000000	na
92.409536	0.049999	106.000000	nontarget	8.000000	na
92.459535	0.049982	106.000000	nontarget	9.000000	na
92.509517	0.049998	106.000000	nontarget	10.000000	na
92.559515	0.049996	106.000000	nontarget	11.000000	na
92.609512	0.050001	106.000000	nontarget	12.000000	na
92.659513	0.049996	106.000000	nontarget	13.000000	na
92.709509	0.049989	106.000000	nontarget	14.000000	na
92.759498	0.049992	106.000000	nontarget	15.000000	na
92.809491	0.050000	106.000000	nontarget	16.000000	na
92.859490	0.049999	107.000000	target	1.000000	na
92.909490	0.049997	107.000000	target	2.000000	na
92.959487	0.049996	107.000000	target	3.000000	na
93.009483	0.049994	107.000000	target	4.000000	na
93.059477	0.049996	107.000000	target	5.000000	na
93.109474	0.049998	107.000000	target	6.000000	na
93.159472	0.049995	107.000000	target	7.000000	na
93.209467	0.049997	107.000000	target	8.000000	na
93.259463	0.049996	107.000000	target	9.000000	na
93.309459	0.049997	107.000000	target	10.000000	na
93.359456	0.049996	107.000000	target	11.000000	93.360140
93.409452	0.049996	107.000000	target	12.000000	na
93.459448	0.049997	107.000000	target	13.000000	na
93.509445	0.049994	107.000000	target	14.000000	na
93.559439	0.049998	107.000000	target	15.000000	na
93.609437	0.049995	107.000000	target	16.000000	na
93.659432	0.049996	108.000000	nontarget	1.000000	na
93.709429	0.049996	108.000000	nontarget	2.000000	na
93.759424	0.049995	108.000000	nontarget	3.000000	na
93.809419	0.050000	108.000000	nontarget	4.000000	na
93.859419	0.049993	108.000000	nontarget	5.000000	na
93.909413	0.049997	108.000000	nontarget	6.000000	na
93.959410	0.049998	108.000000	nontarget	7.000000	na
94.009408	0.049991	108.000000	nontarget	8.000000	na
94.059400	0.049999	108.000000	nontarget	9.000000	na
94.109398	0.049995	108.000000	nontarget	10.000000	na
94.159394	0.049996	108.000000	nontarget	11.000000	na
94.209390	0.049999	108.000000	nontarget	12.000000	na
94.259388	0.049993	108.000000	nontarget	13.000000	na
94.309382	0.049996	108.000000	nontarget	14.000000	na
94.359378	0.049994	108.000000	nontarget	15.000000	na
94.409372	0.050002	108.000000	nontarget	16.000000	94.410261
94.459374	0.049995	109.000000	nontarget	1.000000	94.460102
94.509369	0.049996	109.000000	nontarget	2.000000	na
94.559365	0.049997	109.000000	nontarget	3.000000	na
94.609362	0.049994	109.000000	nontarget	4.000000	na
94.659356	0.049998	109.000000	nontarget	5.000000	na
94.709354	0.049996	109.000000	nontarget	6.000000	na
94.759350	0.049996	109.000000	nontarget	7.000000	na
94.809346	0.050003	109.000000	nontarget	8.000000	na
94.859349	0.049989	109.000000	nontarget	9.000000	na
94.909338	0.049996	109.000000	nontarget	10.000000	na
94.959334	0.049996	109.000000	nontarget	11.000000	na
95.009330	0.049996	109.000000	nontarget	12.000000	na
95.059326	0.049997	109.000000	nontarget	13.000000	na
95.109323	0.049996	109.000000	nontarget	14.000000	na
95.159320	0.049993	109.000000	nontarget	15.000000	na
95.209313	0.049999	109.000000	nontarget	16.000000	na
95.259312	0.049996	110.000000	nontarget	1.000000	na
95.309307	0.049999	110.000000	nontarget	2.000000	na
95.359306	0.049995	110.000000	nontarget	3.000000	95.360014
95.409301	0.050002	110.000000	nontarget	4.000000	na
95.459303	0.049991	110.000000	nontarget	5.000000	na
95.509294	0.049996	110.000000	nontarget	6.000000	na
95.559290	0.049993	110.000000	nontarget	7.000000	na
95.609283	0.049998	110.000000	nontarget	8.000000	na
95.659281	0.049988	110.000000	nontarget	9.000000	na
95.709269	0.050007	110.000000	nontarget	10.000000	na
95.759276	0.049995	110.000000	nontarget	11.000000	na
95.809270	0.049996	110.000000	nontarget	12.000000	na
95.859266	0.050000	110.000000	nontarget	13.000000	na
95.909266	0.049993	110.000000	nontarget	14.000000	na
95.959259	0.049998	110.000000	nontarget	15.000000	na
96.009257	0.049994	110.000000	nontarget	16.000000	na
96.059251	0.049997	111.000000	nontarget	1.000000	na
96.109248	0.049995	111.000000	nontarget	2.000000	96.122774
96.159243	0.049996	111.000000	nontarget	3.000000	na
96.209239	0.049991	111.000000	nontarget	4.000000	na
96.259230	0.050002	111.000000	nontarget	5.000000	na
96.309232	0.049995	111.000000	nontarget	6.000000	na
96.359227	0.049996	111.000000	nontarget	7.000000	na
96.409223	0.050003	111.000000	nontarget	8.000000	na
96.459226	0.049992	111.000000	nontarget	9.000000	na
96.509217	0.049996	111.000000	nontarget	10.000000	na
96.559213	0.049997	111.000000	nontarget	11.000000	na
96.609210	0.049996	111.000000	nontarget	12.000000	na
96.659207	0.049996	111.000000	nontarget	13.000000	na
96.709203	0.049994	111.000000	nontarget	14.000000	na
96.759197	0.049996	111.000000	nontarget	15.000000	na
96.809194	0.049996	111.000000	nontarget	16.000000	na
96.859190	0.049997	112.000000	target	1.000000	na
96.909188	0.049994	112.000000	target	2.000000	na
96.959182	0.049999	112.000000	target	3.000000	na
97.009181	0.049994	112.000000	target	4.000000	na
97.059175	0.049996	112.000000	target	5.000000	na
97.109171	0.049996	112.000000	target	6.000000	na
97.159167	0.049998	112.000000	target	7.000000	na
97.209165	0.049995	112.000000	target	8.000000	na
97.259160	0.049995	112.000000	target	9.000000	na
97.309155	0.049994	112.000000	target	10.000000	na
97.359149	0.049999	112.000000	target	11.000000	na
97.409148	0.049997	112.000000	target	12.000000	na
97.459146	0.049995	112.000000	target	13.000000	na
97.509141	0.049998	112.000000	target	14.000000	na
97.559139	0.049997	112.000000	target	15.000000	na
97.609136	0.049993	112.000000	target	16.000000	97.609855
97.659129	0.049996	113.000000	nontarget	1.000000	97.659817
97.709125	0.049997	113.000000	nontarget	2.000000	na
97.759122	0.049995	113.000000	nontarget	3.000000	na
97.809117	0.049999	113.000000	nontarget	4.000000	na
97.859116	0.049996	113.000000	nontarget	5.000000	na
97.909111	0.049996	113.000000	nontarget	6.000000	na
97.959107	0.049996	113.000000	nontarget	7.000000	na
98.009104	0.049996	113.000000	nontarget	8.000000	na
98.059100	0.049996	113.000000	nontarget	9.000000	na
98.109095	0.049996	113.000000	nontarget	10.000000	na
98.159091	0.049995	113.000000	nontarget	11.000000	na
98.209086	0.049997	113.000000	nontarget	12.000000	na
98.259084	0.049996	113.000000	nontarget	13.000000	na
98.309079	0.049997	113.000000	nontarget	14.000000	na
98.359076	0.049997	113.000000	nontarget	15.000000	na
98.409073	0.049998	113.000000	nontarget	16.000000	98.409931
98.459071	0.049995	114.000000	nontarget	1.000000	98.459766
98.509066	0.049996	114.000000	nontarget	2.000000	na
98.559062	0.049994	114.000000	nontarget	3.000000	na
98.609057	0.049996	114.000000	nontarget	4.000000	na
98.659053	0.049996	114.000000	nontarget	5.000000	na
98.709049	0.049997	114.000000	nontarget	6.000000	na
98.759046	0.049996	114.000000	nontarget	7.000000	na
98.809043	0.049997	114.000000	nontarget	8.000000	na
98.859040	0.049999	114.000000	nontarget	9.000000	na
98.909039	0.049992	114.000000	nontarget	10.000000	na
98.959031	0.049998	114.000000	nontarget	11.000000	na
99.009030	0.049995	114.000000	nontarget	12.000000	na
99.059025	0.049995	114.000000	nontarget	13.000000	na
99.109019	0.049999	114.000000	nontarget	14.000000	na
99.159018	0.049993	114.000000	nontarget	15.000000	na
99.209011	0.049999	114.000000	nontarget	16.000000	na
99.259011	0.049994	115.000000	nontarget	1.000000	99.259706
99.309005	0.049996	115.000000	nontarget	2.000000	na
99.359000	0.049997	115.000000	nontarget	3.000000	na
99.408998	0.049995	115.000000	nontarget	4.000000	na
99.458992	0.049997	115.000000	nontarget	5.000000	na
99.508990	0.049994	115.000000	nontarget	6.000000	na
99.558984	0.049997	115.000000	nontarget	7.000000	na
99.608981	0.049994	115.000000	nontarget	8.000000	na
99.658975	0.050000	115.000000	nontarget	9.000000	na
99.708975	0.049995	115.000000	nontarget	10.000000	na
99.758970	0.049996	115.000000	nontarget	11.000000	na
99.808966	0.049997	115.000000	nontarget	12.000000	na
99.858964	0.049996	115.000000	nontarget	13.000000	na
99.908959	0.049997	115.000000	nontarget	14.000000	na
99.958957	0.049993	115.000000	nontarget	15.000000	na
100.008949	0.050001	115.000000	nontarget	16.000000	100.014494
100.058950	0.049994	116.000000	nontarget	1.000000	100.059651
100.108944	0.049996	116.000000	nontarget	2.000000	na
100.158939	0.049994	116.000000	nontarget	3.000000	na
100.208933	0.050000	116.000000	nontarget	4.000000	na
100.258933	0.049995	116.000000	nontarget	5.000000	na
100.308928	0.049996	116.000000	nontarget	6.000000	na
100.358925	0.049996	116.000000	nontarget	7.000000	na
100.408920	0.050000	116.000000	nontarget	8.000000	na
100.458920	0.049994	116.000000	nontarget	9.000000	na
100.508914	0.049995	116.000000	nontarget	10.000000	na
100.558909	0.049998	116.000000	nontarget	11.000000	na
100.608907	0.050004	116.000000	nontarget	12.000000	na
100.658911	0.049987	116.000000	nontarget	13.000000	na
100.708898	0.050011	116.000000	nontarget	14.000000	na
100.758909	0.050007	116.000000	nontarget	15.000000	na
100.808916	0.049978	116.000000	nontarget	16.000000	na
100.858894	0.050003	117.000000	nontarget	1.000000	100.876468
100.908898	0.050011	117.000000	nontarget	2.000000	na
100.958909	0.049974	117.000000	nontarget	3.000000	na
101.008883	0.050031	117.000000	nontarget	4.000000	na
101.058914	0.049989	117.000000	nontarget	5.000000	na
101.108903	0.049990	117.000000	nontarget	6.000000	na
101.158894	0.050004	117.000000	nontarget	7.000000	na
101.208898	0.050024	117.000000	nontarget	8.000000	na
101.258921	0.049959	117.000000	nontarget	9.000000	na
101.308880	0.050003	117.000000	nontarget	10.000000	na
101.358883	0.050000	117.000000	nontarget	11.000000	na
101.408883	0.049976	117.000000	nontarget	12.000000	na
101.458859	0.050006	117.000000	nontarget	13.000000	na
101.508865	0.050001	117.000000	nontarget	14.000000	na
101.558866	0.049978	117.000000	nontarget	15.000000	na
101.608845	0.050001	117.000000	nontarget	16.000000	na
101.658846	0.050004	118.000000	nontarget	1.000000	na
101.708850	0.049993	118.000000	nontarget	2.000000	101.709556
101.758843	0.049995	118.000000	nontarget	3.000000	na
101.808838	0.049995	118.000000	nontarget	4.000000	na
101.858832	0.049992	118.000000	nontarget	5.000000	na
101.908825	0.049983	118.000000	nontarget	6.000000	na
101.958807	0.049988	118.000000	nontarget	7.000000	na
102.008795	0.050003	118.000000	nontarget	8.000000	na
102.058799	0.049993	118.000000	nontarget	9.000000	na
102.108792	0.050002	118.000000	nontarget	10.000000	na
102.158794	0.049998	118.000000	nontarget	11.000000	na
102.208792	0.049997	118.000000	nontarget	12.000000	na
102.258789	0.049983	118.000000	nontarget	13.000000	na
102.308772	0.049996	118.000000	nontarget	14.000000	na
102.358768	0.050001	118.000000	nontarget	15.000000	na
102.408770	0.050012	118.000000	nontarget	16.000000	na
102.458782	0.049980	119.000000	nontarget	1.000000	na
102.508762	0.049996	119.000000	nontarget	2.000000	na
102.558759	0.049999	119.000000	nontarget	3.000000	na
102.608758	0.049993	119.000000	nontarget	4.000000	102.609501
102.658750	0.050000	119.000000	nontarget	5.000000	na
102.708750	0.049996	119.000000	nontarget	6.000000	na
102.758746	0.049993	119.000000	nontarget	7.000000	na
102.808739	0.049996	119.000000	nontarget	8.000000	na
102.858735	0.049996	119.000000	nontarget	9.000000	na
102.908730	0.049996	119.000000	nontarget	10.000000	na
102.958726	0.049999	119.000000	nontarget	11.000000	na
103.008725	0.049996	119.000000	nontarget	12.000000	na
103.058721	0.049995	119.000000	nontarget	13.000000	na
103.108716	0.049996	119.000000	nontarget	14.000000	na
103.158712	0.049997	119.000000	nontarget	15.000000	na
103.208709	0.049996	119.000000	nontarget	16.000000	na
103.258705	0.049996	120.000000	nontarget	1.000000	na
103.308700	0.049996	120.000000	nontarget	2.000000	na
103.358696	0.049997	120.000000	nontarget	3.000000	103.380539
103.408693	0.049996	120.000000	nontarget	4.000000	na
103.458689	0.049999	120.000000	nontarget	5.000000	na
103.508689	0.049994	120.000000	nontarget	6.000000	na
103.558683	0.049996	120.000000	nontarget	7.000000	na
103.608679	0.049996	120.000000	nontarget	8.000000	na
103.658675	0.049996	120.000000	nontarget	9.000000	na
103.708671	0.049998	120.000000	nontarget	10.000000	na
103.758669	0.049993	120.000000	nontarget	11.000000	na
103.808662	0.049997	120.000000	nontarget	12.000000	na
103.858659	0.049996	120.000000	nontarget	13.000000	na
103.908656	0.049995	120.000000	nontarget	14.000000	na
103.958650	0.050002	120.000000	nontarget	15.000000	na
104.008653	0.049989	120.000000	nontarget	16.000000	na
104.058642	0.050001	121.000000	nontarget	1.000000	na
104.108643	0.049992	121.000000	nontarget	2.000000	104.109384
104.158635	0.049997	121.000000	nontarget	3.000000	na
104.208632	0.049996	121.000000	nontarget	4.000000	na
104.258629	0.049996	121.000000	nontarget	5.000000	na
104.308625	0.049997	121.000000	nontarget	6.000000	na
104.358622	0.049995	121.000000	nontarget	7.000000	na
104.408617	0.049997	121.000000	nontarget	8.000000	na
104.458614	0.049997	121.000000	nontarget	9.000000	na
104.508610	0.049994	121.000000	nontarget	10.000000	na
104.558605	0.049996	121.000000	nontarget	11.000000	na
104.608601	0.049997	121.000000	nontarget	12.000000	na
104.658598	0.049996	121.000000	nontarget	13.000000	na
