onset	duration	event	trial_number	trial_type	requested_SOA	actual_SOA	accuracy	resp1	resp2	rt1	rt2
8.014358	0.502000	fixation	1.000000	na	na	na	na	na	na	na	na
8.516358	1.498000	stimulus	1.000000	no_signal	0.000000	0.000000	correct	left	no_response	0.594000	0.000000
10.014358	0.502000	fixation	2.000000	na	na	na	na	na	na	na	na
10.516358	1.498000	stimulus	2.000000	no_signal	0.000000	0.000000	correct	right	no_response	0.962000	0.000000
12.014358	0.501000	fixation	3.000000	na	na	na	na	na	na	na	na
12.515358	1.499000	stimulus	3.000000	no_signal	0.000000	0.000000	correct	right	no_response	0.972000	0.000000
14.014358	0.501000	fixation	4.000000	na	na	na	na	na	na	na	na
14.515358	1.499000	stimulus	4.000000	no_signal	0.000000	0.000000	correct	right	no_response	1.145000	0.000000
16.014358	0.501000	fixation	5.000000	na	na	na	na	na	na	na	na
16.515358	1.498000	stimulus	5.000000	no_signal	0.000000	0.000000	correct	right	no_response	1.029000	0.000000
18.013358	0.502000	fixation	6.000000	na	na	na	na	na	na	na	na
18.515358	1.498000	stimulus	6.000000	no_signal	0.000000	0.000000	correct	left	no_response	0.952000	0.000000
20.013358	0.502000	fixation	7.000000	na	na	na	na	na	na	na	na
20.515358	1.498000	stimulus	7.000000	no_signal	0.000000	0.000000	correct	left	no_response	0.977000	0.000000
22.013358	0.502000	fixation	8.000000	na	na	na	na	na	na	na	na
22.515358	1.498000	stimulus	8.000000	no_signal	0.000000	0.000000	correct	left	no_response	1.135000	0.000000
24.013358	0.502000	fixation	9.000000	na	na	na	na	na	na	na	na
24.515358	1.498000	stimulus	9.000000	no_signal	0.000000	0.000000	correct	left	no_response	1.047000	0.000000
26.013358	0.501000	fixation	10.000000	na	na	na	na	na	na	na	na
26.514358	1.499000	stimulus	10.000000	signal	0.550000	0.550000	correct	no_response	no_response	0.000000	0.000000
28.013358	0.501000	fixation	11.000000	na	na	na	na	na	na	na	na
28.514358	1.499000	stimulus	11.000000	no_signal	0.000000	0.000000	correct	right	no_response	0.879000	0.000000
30.013358	0.501000	fixation	12.000000	na	na	na	na	na	na	na	na
30.514358	1.498000	stimulus	12.000000	no_signal	0.000000	0.000000	correct	right	no_response	1.003000	0.000000
32.012358	0.502000	fixation	13.000000	na	na	na	na	na	na	na	na
32.514358	1.498000	stimulus	13.000000	no_signal	0.000000	0.000000	correct	left	no_response	1.135000	0.000000
34.012358	0.502000	fixation	14.000000	na	na	na	na	na	na	na	na
34.514358	1.498000	stimulus	14.000000	no_signal	0.000000	0.000000	correct	right	no_response	1.199000	0.000000
36.012358	0.502000	fixation	15.000000	na	na	na	na	na	na	na	na
36.514358	1.498000	stimulus	15.000000	no_signal	0.000000	0.000000	correct	left	no_response	1.228000	0.000000
38.012358	0.501000	fixation	16.000000	na	na	na	na	na	na	na	na
38.513358	1.499000	stimulus	16.000000	no_signal	0.000000	0.000000	correct	left	no_response	1.161000	0.000000
40.012358	0.501000	fixation	17.000000	na	na	na	na	na	na	na	na
40.513358	1.499000	stimulus	17.000000	signal	0.600000	0.600000	correct	no_response	no_response	0.000000	0.000000
42.012358	0.501000	fixation	18.000000	na	na	na	na	na	na	na	na
42.513358	1.499000	stimulus	18.000000	signal	0.650000	0.650000	correct	no_response	no_response	0.000000	0.000000
44.012358	0.501000	fixation	19.000000	na	na	na	na	na	na	na	na
44.513358	1.498000	stimulus	19.000000	no_signal	0.000000	0.000000	correct	left	no_response	1.150000	0.000000
46.011358	0.502000	fixation	20.000000	na	na	na	na	na	na	na	na
46.513358	1.498000	stimulus	20.000000	no_signal	0.000000	0.000000	not_quick_enough	no_response	no_response	0.000000	0.000000
48.011358	0.502000	fixation	21.000000	na	na	na	na	na	na	na	na
48.513358	1.498000	stimulus	21.000000	no_signal	0.000000	0.000000	correct	left	no_response	0.763000	0.000000
50.011358	0.502000	fixation	22.000000	na	na	na	na	na	na	na	na
50.513358	1.498000	stimulus	22.000000	no_signal	0.000000	0.000000	correct	left	no_response	0.882000	0.000000
52.011358	0.501000	fixation	23.000000	na	na	na	na	na	na	na	na
52.512358	1.499000	stimulus	23.000000	no_signal	0.000000	0.000000	correct	left	no_response	0.982000	0.000000
54.011358	0.501000	fixation	24.000000	na	na	na	na	na	na	na	na
54.512358	1.499000	stimulus	24.000000	no_signal	0.000000	0.000000	correct	right	no_response	1.044000	0.000000
56.011358	0.501000	fixation	25.000000	na	na	na	na	na	na	na	na
56.512358	1.498000	stimulus	25.000000	no_signal	0.000000	0.000000	not_quick_enough	no_response	no_response	0.000000	0.000000
58.010358	0.502000	fixation	26.000000	na	na	na	na	na	na	na	na
58.512358	1.498000	stimulus	26.000000	no_signal	0.000000	0.000000	correct	left	no_response	0.875000	0.000000
60.010358	0.502000	fixation	27.000000	na	na	na	na	na	na	na	na
60.512358	1.498000	stimulus	27.000000	no_signal	0.000000	0.000000	correct	right	no_response	0.874000	0.000000
62.010358	0.502000	fixation	28.000000	na	na	na	na	na	na	na	na
62.512358	1.498000	stimulus	28.000000	no_signal	0.000000	0.000000	correct	left	no_response	0.925000	0.000000
64.010358	0.502000	fixation	29.000000	na	na	na	na	na	na	na	na
64.512358	1.498000	stimulus	29.000000	no_signal	0.000000	0.000000	correct	right	no_response	0.934000	0.000000
66.010358	0.501000	fixation	30.000000	na	na	na	na	na	na	na	na
66.511358	1.499000	stimulus	30.000000	no_signal	0.000000	0.000000	correct	left	no_response	0.860000	0.000000
68.010358	0.501000	fixation	31.000000	na	na	na	na	na	na	na	na
68.511358	1.499000	stimulus	31.000000	signal	0.700000	0.700000	signal_respond	right	no_response	0.830000	0.000000
70.010358	0.501000	fixation	32.000000	na	na	na	na	na	na	na	na
70.511358	1.498000	stimulus	32.000000	no_signal	0.000000	0.000000	correct	right	no_response	1.353000	0.000000
72.009358	0.502000	fixation	33.000000	na	na	na	na	na	na	na	na
72.511358	1.498000	stimulus	33.000000	no_signal	0.000000	0.000000	correct	left	no_response	1.187000	0.000000
74.009358	0.502000	fixation	34.000000	na	na	na	na	na	na	na	na
74.511358	1.498000	stimulus	34.000000	no_signal	0.000000	0.000000	correct	left	no_response	1.125000	0.000000
76.009358	0.502000	fixation	35.000000	na	na	na	na	na	na	na	na
76.511358	1.498000	stimulus	35.000000	no_signal	0.000000	0.000000	correct	right	no_response	1.155000	0.000000
78.009358	0.501000	fixation	36.000000	na	na	na	na	na	na	na	na
78.510358	1.499000	stimulus	36.000000	no_signal	0.000000	0.000000	correct	left	no_response	1.095000	0.000000
80.009358	0.501000	fixation	37.000000	na	na	na	na	na	na	na	na
80.510358	1.499000	stimulus	37.000000	no_signal	0.000000	0.000000	correct	left	no_response	1.281000	0.000000
82.009358	0.501000	fixation	38.000000	na	na	na	na	na	na	na	na
82.510358	1.499000	stimulus	38.000000	no_signal	0.000000	0.000000	correct	left	no_response	1.140000	0.000000
84.009358	0.501000	fixation	39.000000	na	na	na	na	na	na	na	na
84.510358	1.498000	stimulus	39.000000	no_signal	0.000000	0.000000	correct	left	no_response	1.049000	0.000000
86.008358	0.502000	fixation	40.000000	na	na	na	na	na	na	na	na
86.510358	1.498000	stimulus	40.000000	no_signal	0.000000	0.000000	correct	left	no_response	1.170000	0.000000
88.008358	0.502000	fixation	41.000000	na	na	na	na	na	na	na	na
88.510358	1.498000	stimulus	41.000000	no_signal	0.000000	0.000000	correct	right	no_response	1.378000	0.000000
90.008358	0.502000	fixation	42.000000	na	na	na	na	na	na	na	na
90.510358	1.498000	stimulus	42.000000	signal	0.650000	0.650000	correct	no_response	no_response	0.000000	0.000000
92.008358	0.501000	fixation	43.000000	na	na	na	na	na	na	na	na
92.509358	1.499000	stimulus	43.000000	no_signal	0.000000	0.000000	correct	left	no_response	1.182000	0.000000
94.008358	0.501000	fixation	44.000000	na	na	na	na	na	na	na	na
94.509358	1.499000	stimulus	44.000000	no_signal	0.000000	0.000000	correct	right	no_response	1.192000	0.000000
96.008358	0.501000	fixation	45.000000	na	na	na	na	na	na	na	na
96.509358	1.498000	stimulus	45.000000	signal	0.700000	0.700000	correct	no_response	no_response	0.000000	0.000000
98.007358	0.502000	fixation	46.000000	na	na	na	na	na	na	na	na
98.509358	1.498000	stimulus	46.000000	signal	0.750000	0.750000	signal_respond	right	no_response	0.907000	0.000000
100.007358	0.502000	fixation	47.000000	na	na	na	na	na	na	na	na
100.509358	1.498000	stimulus	47.000000	signal	0.700000	0.700000	correct	no_response	no_response	0.000000	0.000000
102.007358	0.502000	fixation	48.000000	na	na	na	na	na	na	na	na
102.509358	1.498000	stimulus	48.000000	no_signal	0.000000	0.000000	correct	right	no_response	0.874000	0.000000
104.007358	0.501000	fixation	49.000000	na	na	na	na	na	na	na	na
104.508358	1.499000	stimulus	49.000000	signal	0.750000	0.750000	correct	no_response	no_response	0.000000	0.000000
106.007358	0.501000	fixation	50.000000	na	na	na	na	na	na	na	na
106.508358	1.499000	stimulus	50.000000	no_signal	0.000000	0.000000	correct	right	no_response	1.392000	0.000000
108.007358	0.501000	fixation	51.000000	na	na	na	na	na	na	na	na
108.508358	1.499000	stimulus	51.000000	no_signal	0.000000	0.000000	correct	right	no_response	1.249000	0.000000
110.007358	0.501000	fixation	52.000000	na	na	na	na	na	na	na	na
110.508358	1.498000	stimulus	52.000000	no_signal	0.000000	0.000000	correct	left	no_response	1.334000	0.000000
112.006358	0.502000	fixation	53.000000	na	na	na	na	na	na	na	na
112.508358	1.498000	stimulus	53.000000	no_signal	0.000000	0.000000	correct	left	no_response	0.965000	0.000000
114.006358	0.502000	fixation	54.000000	na	na	na	na	na	na	na	na
114.508358	1.498000	stimulus	54.000000	no_signal	0.000000	0.000000	correct	right	no_response	1.319000	0.000000
116.006358	0.502000	fixation	55.000000	na	na	na	na	na	na	na	na
116.508358	1.498000	stimulus	55.000000	signal	0.800000	0.800000	correct	no_response	no_response	0.000000	0.000000
118.006358	0.501000	fixation	56.000000	na	na	na	na	na	na	na	na
118.507358	1.499000	stimulus	56.000000	signal	0.850000	0.850000	signal_respond	right	no_response	1.072000	0.000000
120.006358	0.501000	fixation	57.000000	na	na	na	na	na	na	na	na
120.507358	1.499000	stimulus	57.000000	no_signal	0.000000	0.000000	correct	right	no_response	1.031000	0.000000
122.006358	0.501000	fixation	58.000000	na	na	na	na	na	na	na	na
122.507358	1.498000	stimulus	58.000000	no_signal	0.000000	0.000000	correct	left	no_response	1.318000	0.000000
124.005358	0.502000	fixation	59.000000	na	na	na	na	na	na	na	na
124.507358	1.498000	stimulus	59.000000	signal	0.800000	0.800000	correct	no_response	no_response	0.000000	0.000000
126.005358	0.502000	fixation	60.000000	na	na	na	na	na	na	na	na
126.507358	1.498000	stimulus	60.000000	no_signal	0.000000	0.000000	correct	left	no_response	0.782000	0.000000
128.005358	0.502000	fixation	61.000000	na	na	na	na	na	na	na	na
128.507358	1.498000	stimulus	61.000000	signal	0.850000	0.850000	correct	no_response	no_response	0.000000	0.000000
130.005358	0.502000	fixation	62.000000	na	na	na	na	na	na	na	na
130.507358	1.498000	stimulus	62.000000	no_signal	0.000000	0.000000	correct	right	no_response	0.948000	0.000000
132.005358	0.501000	fixation	63.000000	na	na	na	na	na	na	na	na
132.506358	1.499000	stimulus	63.000000	signal	0.900000	0.900000	correct	no_response	no_response	0.000000	0.000000
134.005358	0.501000	fixation	64.000000	na	na	na	na	na	na	na	na
134.506358	1.499000	stimulus	64.000000	signal	0.950000	0.950000	signal_respond	right	no_response	1.166000	0.000000
136.005358	0.501000	fixation	65.000000	na	na	na	na	na	na	na	na
136.506358	1.498000	stimulus	65.000000	no_signal	0.000000	0.000000	correct	left	no_response	0.962000	0.000000
138.004358	0.502000	fixation	66.000000	na	na	na	na	na	na	na	na
138.506358	1.498000	stimulus	66.000000	no_signal	0.000000	0.000000	correct	right	no_response	1.404000	0.000000
140.004358	0.502000	fixation	67.000000	na	na	na	na	na	na	na	na
140.506358	1.498000	stimulus	67.000000	no_signal	0.000000	0.000000	correct	left	no_response	1.282000	0.000000
142.004358	0.502000	fixation	68.000000	na	na	na	na	na	na	na	na
142.506358	1.498000	stimulus	68.000000	signal	0.900000	0.900000	correct	no_response	no_response	0.000000	0.000000
144.004358	0.501000	fixation	69.000000	na	na	na	na	na	na	na	na
144.505358	1.499000	stimulus	69.000000	no_signal	0.000000	0.000000	correct	right	no_response	1.309000	0.000000
146.004358	0.501000	fixation	70.000000	na	na	na	na	na	na	na	na
146.505358	1.499000	stimulus	70.000000	no_signal	0.000000	0.000000	correct	right	no_response	0.000000	0.000000
148.004358	0.501000	fixation	71.000000	na	na	na	na	na	na	na	na
148.505358	1.499000	stimulus	71.000000	no_signal	0.000000	0.000000	correct	right	no_response	0.012000	0.000000
150.004358	0.501000	fixation	72.000000	na	na	na	na	na	na	na	na
150.505358	1.498000	stimulus	72.000000	no_signal	0.000000	0.000000	correct	left	no_response	1.036000	0.000000
152.003358	0.502000	fixation	73.000000	na	na	na	na	na	na	na	na
152.505358	1.498000	stimulus	73.000000	signal	0.950000	0.950000	signal_respond	left	no_response	0.955000	0.000000
154.003358	0.502000	fixation	74.000000	na	na	na	na	na	na	na	na
154.505358	1.498000	stimulus	74.000000	no_signal	0.000000	0.000000	correct	right	no_response	1.100000	0.000000
156.003358	0.502000	fixation	75.000000	na	na	na	na	na	na	na	na
156.505358	1.498000	stimulus	75.000000	no_signal	0.000000	0.000000	correct	right	no_response	1.419000	0.000000
158.003358	0.501000	fixation	76.000000	na	na	na	na	na	na	na	na
158.504358	1.499000	stimulus	76.000000	no_signal	0.000000	0.000000	correct	left	no_response	0.974000	0.000000
160.003358	0.501000	fixation	77.000000	na	na	na	na	na	na	na	na
160.504358	1.499000	stimulus	77.000000	signal	0.900000	0.900000	signal_respond	right	no_response	0.744000	0.000000
162.003358	0.501000	fixation	78.000000	na	na	na	na	na	na	na	na
162.504358	1.498000	stimulus	78.000000	signal	0.850000	0.850000	signal_respond	right	no_response	1.025000	0.000000
164.002358	0.502000	fixation	79.000000	na	na	na	na	na	na	na	na
164.504358	1.498000	stimulus	79.000000	signal	0.800000	0.800000	correct	no_response	no_response	0.000000	0.000000
166.002358	0.502000	fixation	80.000000	na	na	na	na	na	na	na	na
166.504358	1.498000	stimulus	80.000000	no_signal	0.000000	0.000000	correct	right	no_response	1.056000	0.000000
168.002358	0.502000	fixation	81.000000	na	na	na	na	na	na	na	na
168.504358	1.498000	stimulus	81.000000	no_signal	0.000000	0.000000	correct	right	no_response	1.246000	0.000000
170.002358	0.502000	fixation	82.000000	na	na	na	na	na	na	na	na
170.504358	1.498000	stimulus	82.000000	no_signal	0.000000	0.000000	correct	right	no_response	1.275000	0.000000
172.002358	0.501000	fixation	83.000000	na	na	na	na	na	na	na	na
172.503358	1.499000	stimulus	83.000000	no_signal	0.000000	0.000000	correct	right	no_response	1.147000	0.000000
174.002358	0.501000	fixation	84.000000	na	na	na	na	na	na	na	na
174.503358	1.499000	stimulus	84.000000	signal	0.850000	0.850000	correct	no_response	no_response	0.000000	0.000000
176.002358	0.501000	fixation	85.000000	na	na	na	na	na	na	na	na
176.503358	1.498000	stimulus	85.000000	no_signal	0.000000	0.000000	correct	left	no_response	1.104000	0.000000
178.001358	0.502000	fixation	86.000000	na	na	na	na	na	na	na	na
178.503358	1.498000	stimulus	86.000000	no_signal	0.000000	0.000000	correct	right	no_response	1.312000	0.000000
180.001358	0.502000	fixation	87.000000	na	na	na	na	na	na	na	na
180.503358	1.498000	stimulus	87.000000	signal	0.900000	0.900000	correct	no_response	no_response	0.000000	0.000000
182.001358	0.502000	fixation	88.000000	na	na	na	na	na	na	na	na
182.503358	1.498000	stimulus	88.000000	no_signal	0.000000	0.000000	correct	right	no_response	0.650000	0.000000
184.001358	0.502000	fixation	89.000000	na	na	na	na	na	na	na	na
184.503358	1.498000	stimulus	89.000000	no_signal	0.000000	0.000000	not_quick_enough	no_response	no_response	0.000000	0.000000
186.001358	0.501000	fixation	90.000000	na	na	na	na	na	na	na	na
186.502358	1.499000	stimulus	90.000000	no_signal	0.000000	0.000000	correct	left	no_response	1.005000	0.000000
188.001358	0.501000	fixation	91.000000	na	na	na	na	na	na	na	na
188.502358	1.499000	stimulus	91.000000	no_signal	0.000000	0.000000	correct	left	no_response	1.189000	0.000000
190.001358	0.501000	fixation	92.000000	na	na	na	na	na	na	na	na
190.502358	1.498000	stimulus	92.000000	no_signal	0.000000	0.000000	correct	left	no_response	0.783000	0.000000
192.000358	0.502000	fixation	93.000000	na	na	na	na	na	na	na	na
192.502358	1.498000	stimulus	93.000000	signal	0.950000	0.950000	correct	no_response	no_response	0.000000	0.000000
194.000358	0.502000	fixation	94.000000	na	na	na	na	na	na	na	na
194.502358	1.498000	stimulus	94.000000	no_signal	0.000000	0.000000	correct	left	no_response	0.697000	0.000000
196.000358	0.502000	fixation	95.000000	na	na	na	na	na	na	na	na
196.502358	1.498000	stimulus	95.000000	signal	1.000000	1.000000	correct	no_response	no_response	0.000000	0.000000
198.000358	0.501000	fixation	96.000000	na	na	na	na	na	na	na	na
198.501358	1.499000	stimulus	96.000000	no_signal	0.000000	0.000000	correct	left	no_response	1.343000	0.000000
200.000358	0.501000	fixation	97.000000	na	na	na	na	na	na	na	na
200.501358	1.499000	stimulus	97.000000	signal	1.050000	1.050000	correct	no_response	no_response	0.000000	0.000000
202.000358	0.501000	fixation	98.000000	na	na	na	na	na	na	na	na
202.501358	1.498000	stimulus	98.000000	no_signal	0.000000	0.000000	correct	right	no_response	0.873000	0.000000
203.999358	0.502000	fixation	99.000000	na	na	na	na	na	na	na	na
204.501358	1.498000	stimulus	99.000000	signal	1.100000	1.100000	signal_respond	right	no_response	1.279000	0.000000
205.999358	0.502000	fixation	100.000000	na	na	na	na	na	na	na	na
206.501358	1.498000	stimulus	100.000000	no_signal	0.000000	0.000000	correct	right	no_response	1.201000	0.000000
207.999358	0.502000	fixation	101.000000	na	na	na	na	na	na	na	na
208.501358	1.498000	stimulus	101.000000	signal	1.050000	1.050000	correct	no_response	no_response	0.000000	0.000000
209.999358	0.501000	fixation	102.000000	na	na	na	na	na	na	na	na
210.500358	1.499000	stimulus	102.000000	signal	1.100000	1.100000	signal_respond	right	no_response	1.139000	0.000000
211.999358	0.501000	fixation	103.000000	na	na	na	na	na	na	na	na
212.500358	1.499000	stimulus	103.000000	no_signal	0.000000	0.000000	correct	left	no_response	1.057000	0.000000
213.999358	0.501000	fixation	104.000000	na	na	na	na	na	na	na	na
214.500358	1.499000	stimulus	104.000000	no_signal	0.000000	0.000000	not_quick_enough	no_response	no_response	0.000000	0.000000
215.999358	0.501000	fixation	105.000000	na	na	na	na	na	na	na	na
216.500358	1.498000	stimulus	105.000000	signal	1.050000	1.050000	signal_respond	left	no_response	0.545000	0.000000
217.998358	0.502000	fixation	106.000000	na	na	na	na	na	na	na	na
218.500358	1.498000	stimulus	106.000000	no_signal	0.000000	0.000000	correct	left	no_response	1.163000	0.000000
219.998358	0.502000	fixation	107.000000	na	na	na	na	na	na	na	na
220.500358	1.498000	stimulus	107.000000	no_signal	0.000000	0.000000	correct	left	no_response	1.412000	0.000000
221.998358	0.502000	fixation	108.000000	na	na	na	na	na	na	na	na
222.500358	1.498000	stimulus	108.000000	no_signal	0.000000	0.000000	correct	right	no_response	1.252000	0.000000
223.998358	0.501000	fixation	109.000000	na	na	na	na	na	na	na	na
224.499358	1.499000	stimulus	109.000000	no_signal	0.000000	0.000000	correct	left	no_response	1.272000	0.000000
225.998358	0.501000	fixation	110.000000	na	na	na	na	na	na	na	na
226.499358	1.499000	stimulus	110.000000	no_signal	0.000000	0.000000	correct	right	no_response	1.201000	0.000000
227.998358	0.501000	fixation	111.000000	na	na	na	na	na	na	na	na
228.499358	1.498000	stimulus	111.000000	no_signal	0.000000	0.000000	correct	left	no_response	1.368000	0.000000
229.997358	0.502000	fixation	112.000000	na	na	na	na	na	na	na	na
230.499358	1.498000	stimulus	112.000000	no_signal	0.000000	0.000000	not_quick_enough	no_response	no_response	0.000000	0.000000
231.997358	0.502000	fixation	113.000000	na	na	na	na	na	na	na	na
232.499358	1.498000	stimulus	113.000000	no_signal	0.000000	0.000000	correct	right	no_response	1.072000	0.000000
233.997358	0.502000	fixation	114.000000	na	na	na	na	na	na	na	na
234.499358	1.498000	stimulus	114.000000	no_signal	0.000000	0.000000	correct	left	no_response	1.195000	0.000000
235.997358	0.502000	fixation	115.000000	na	na	na	na	na	na	na	na
236.499358	1.498000	stimulus	115.000000	no_signal	0.000000	0.000000	correct	right	no_response	1.120000	0.000000
237.997358	0.501000	fixation	116.000000	na	na	na	na	na	na	na	na
238.498358	1.499000	stimulus	116.000000	no_signal	0.000000	0.000000	correct	right	no_response	1.426000	0.000000
239.997358	0.501000	fixation	117.000000	na	na	na	na	na	na	na	na
240.498358	1.499000	stimulus	117.000000	signal	1.000000	1.000000	correct	no_response	no_response	0.000000	0.000000
241.997358	0.501000	fixation	118.000000	na	na	na	na	na	na	na	na
242.498358	1.498000	stimulus	118.000000	no_signal	0.000000	0.000000	correct	right	no_response	1.081000	0.000000
243.996358	0.502000	fixation	119.000000	na	na	na	na	na	na	na	na
244.498358	1.498000	stimulus	119.000000	no_signal	0.000000	0.000000	not_quick_enough	no_response	no_response	0.000000	0.000000
245.996358	0.502000	fixation	120.000000	na	na	na	na	na	na	na	na
246.498358	1.498000	stimulus	120.000000	no_signal	0.000000	0.000000	not_quick_enough	no_response	no_response	0.000000	0.000000
247.996358	0.502000	fixation	121.000000	na	na	na	na	na	na	na	na
248.498358	1.498000	stimulus	121.000000	signal	1.050000	1.050000	signal_respond	left	no_response	0.507000	0.000000
249.996358	0.502000	fixation	122.000000	na	na	na	na	na	na	na	na
250.498358	1.498000	stimulus	122.000000	no_signal	0.000000	0.000000	correct	right	no_response	0.997000	0.000000
251.996358	0.501000	fixation	123.000000	na	na	na	na	na	na	na	na
252.497358	1.499000	stimulus	123.000000	no_signal	0.000000	0.000000	correct	right	no_response	1.179000	0.000000
253.996358	0.501000	fixation	124.000000	na	na	na	na	na	na	na	na
254.497358	1.499000	stimulus	124.000000	no_signal	0.000000	0.000000	correct	left	no_response	1.107000	0.000000
255.996358	0.501000	fixation	125.000000	na	na	na	na	na	na	na	na
256.497358	1.498000	stimulus	125.000000	no_signal	0.000000	0.000000	correct	right	no_response	1.016000	0.000000
257.995358	0.502000	fixation	126.000000	na	na	na	na	na	na	na	na
258.497358	1.498000	stimulus	126.000000	signal	1.000000	1.000000	correct	no_response	no_response	0.000000	0.000000
259.995358	0.502000	fixation	127.000000	na	na	na	na	na	na	na	na
260.497358	1.498000	stimulus	127.000000	signal	1.050000	1.050000	signal_respond	left	no_response	1.065000	0.000000
261.995358	0.502000	fixation	128.000000	na	na	na	na	na	na	na	na
262.497358	1.498000	stimulus	128.000000	no_signal	0.000000	0.000000	correct	right	no_response	1.209000	0.000000
263.995358	0.501000	fixation	129.000000	na	na	na	na	na	na	na	na
264.496358	1.499000	stimulus	129.000000	no_signal	0.000000	0.000000	correct	right	no_response	1.216000	0.000000
265.995358	0.501000	fixation	130.000000	na	na	na	na	na	na	na	na
266.496358	1.499000	stimulus	130.000000	no_signal	0.000000	0.000000	correct	left	no_response	1.225000	0.000000
267.995358	0.501000	fixation	131.000000	na	na	na	na	na	na	na	na
268.496358	1.499000	stimulus	131.000000	no_signal	0.000000	0.000000	correct	left	no_response	1.358000	0.000000
269.995358	0.501000	fixation	132.000000	na	na	na	na	na	na	na	na
270.496358	1.498000	stimulus	132.000000	no_signal	0.000000	0.000000	correct	right	no_response	1.381000	0.000000
271.994358	0.502000	fixation	133.000000	na	na	na	na	na	na	na	na
272.496358	1.498000	stimulus	133.000000	no_signal	0.000000	0.000000	correct	left	no_response	1.269000	0.000000
273.994358	0.502000	fixation	134.000000	na	na	na	na	na	na	na	na
274.496358	1.498000	stimulus	134.000000	no_signal	0.000000	0.000000	not_quick_enough	no_response	no_response	0.000000	0.000000
275.994358	0.501000	fixation	135.000000	na	na	na	na	na	na	na	na
276.495358	1.499000	stimulus	135.000000	signal	1.000000	1.000000	signal_respond	left	no_response	0.801000	0.000000
277.994358	0.501000	fixation	136.000000	na	na	na	na	na	na	na	na
278.495358	1.499000	stimulus	136.000000	signal	0.950000	0.950000	signal_respond	right	no_response	0.727000	0.000000
279.994358	0.501000	fixation	137.000000	na	na	na	na	na	na	na	na
280.495358	1.499000	stimulus	137.000000	signal	0.900000	0.900000	correct	no_response	no_response	0.000000	0.000000
281.994358	0.501000	fixation	138.000000	na	na	na	na	na	na	na	na
282.495358	1.498000	stimulus	138.000000	signal	0.950000	0.950000	correct	no_response	no_response	0.000000	0.000000
283.993358	0.502000	fixation	139.000000	na	na	na	na	na	na	na	na
284.495358	1.498000	stimulus	139.000000	no_signal	0.000000	0.000000	correct	left	no_response	1.470000	0.000000
285.993358	0.502000	fixation	140.000000	na	na	na	na	na	na	na	na
286.495358	1.498000	stimulus	140.000000	signal	1.000000	1.000000	signal_respond	left	no_response	1.156000	0.000000
287.993358	0.502000	fixation	141.000000	na	na	na	na	na	na	na	na
288.495358	1.498000	stimulus	141.000000	no_signal	0.000000	0.000000	correct	left	no_response	0.951000	0.000000
289.993358	0.501000	fixation	142.000000	na	na	na	na	na	na	na	na
290.494358	1.499000	stimulus	142.000000	no_signal	0.000000	0.000000	correct	left	no_response	1.322000	0.000000
291.993358	0.501000	fixation	143.000000	na	na	na	na	na	na	na	na
292.494358	1.499000	stimulus	143.000000	no_signal	0.000000	0.000000	correct	left	no_response	1.310000	0.000000
293.993358	0.501000	fixation	144.000000	na	na	na	na	na	na	na	na
294.494358	1.499000	stimulus	144.000000	signal	0.950000	0.950000	correct	no_response	no_response	0.000000	0.000000
295.993358	0.501000	fixation	145.000000	na	na	na	na	na	na	na	na
296.494358	1.498000	stimulus	145.000000	no_signal	0.000000	0.000000	correct	right	no_response	1.236000	0.000000
297.992358	0.502000	fixation	146.000000	na	na	na	na	na	na	na	na
298.494358	1.498000	stimulus	146.000000	no_signal	0.000000	0.000000	correct	left	no_response	1.167000	0.000000
299.992358	0.502000	fixation	147.000000	na	na	na	na	na	na	na	na
300.494358	1.498000	stimulus	147.000000	no_signal	0.000000	0.000000	correct	right	no_response	0.981000	0.000000
301.992358	0.502000	fixation	148.000000	na	na	na	na	na	na	na	na
302.494358	1.498000	stimulus	148.000000	no_signal	0.000000	0.000000	correct	right	no_response	0.668000	0.000000
303.992358	0.501000	fixation	149.000000	na	na	na	na	na	na	na	na
304.493358	1.499000	stimulus	149.000000	signal	1.000000	1.000000	signal_respond	left	no_response	0.880000	0.000000
305.992358	0.501000	fixation	150.000000	na	na	na	na	na	na	na	na
306.493358	1.499000	stimulus	150.000000	signal	0.950000	0.950000	signal_respond	left	no_response	0.598000	0.000000
307.992358	0.501000	fixation	151.000000	na	na	na	na	na	na	na	na
308.493358	1.498000	stimulus	151.000000	no_signal	0.000000	0.000000	correct	right	no_response	0.970000	0.000000
309.991358	0.502000	fixation	152.000000	na	na	na	na	na	na	na	na
310.493358	1.498000	stimulus	152.000000	no_signal	0.000000	0.000000	correct	left	no_response	1.445000	0.000000
311.991358	0.502000	fixation	153.000000	na	na	na	na	na	na	na	na
312.493358	1.498000	stimulus	153.000000	no_signal	0.000000	0.000000	not_quick_enough	no_response	no_response	0.000000	0.000000
313.991358	0.502000	fixation	154.000000	na	na	na	na	na	na	na	na
314.493358	1.498000	stimulus	154.000000	no_signal	0.000000	0.000000	incorrect	left	no_response	1.387000	0.000000
315.991358	0.502000	fixation	155.000000	na	na	na	na	na	na	na	na
316.493358	1.498000	stimulus	155.000000	no_signal	0.000000	0.000000	correct	right	no_response	0.866000	0.000000
317.991358	0.501000	fixation	156.000000	na	na	na	na	na	na	na	na
318.492358	1.499000	stimulus	156.000000	no_signal	0.000000	0.000000	correct	left	no_response	1.178000	0.000000
319.991358	0.501000	fixation	157.000000	na	na	na	na	na	na	na	na
320.492358	1.499000	stimulus	157.000000	no_signal	0.000000	0.000000	correct	right	no_response	1.337000	0.000000
321.991358	0.501000	fixation	158.000000	na	na	na	na	na	na	na	na
322.492358	1.498000	stimulus	158.000000	no_signal	0.000000	0.000000	not_quick_enough	no_response	no_response	0.000000	0.000000
323.990358	0.502000	fixation	159.000000	na	na	na	na	na	na	na	na
324.492358	1.498000	stimulus	159.000000	no_signal	0.000000	0.000000	correct	left	no_response	1.194000	0.000000
325.990358	0.502000	fixation	160.000000	na	na	na	na	na	na	na	na
326.492358	1.498000	stimulus	160.000000	no_signal	0.000000	0.000000	correct	right	no_response	1.120000	0.000000
327.990358	0.502000	fixation	161.000000	na	na	na	na	na	na	na	na
328.492358	1.498000	stimulus	161.000000	no_signal	0.000000	0.000000	incorrect	left	no_response	0.979000	0.000000
329.990358	0.501000	fixation	162.000000	na	na	na	na	na	na	na	na
330.491358	1.499000	stimulus	162.000000	no_signal	0.000000	0.000000	correct	right	no_response	1.271000	0.000000
331.990358	0.501000	fixation	163.000000	na	na	na	na	na	na	na	na
332.491358	1.499000	stimulus	163.000000	no_signal	0.000000	0.000000	correct	left	no_response	0.965000	0.000000
333.990358	0.501000	fixation	164.000000	na	na	na	na	na	na	na	na
334.491358	1.499000	stimulus	164.000000	no_signal	0.000000	0.000000	correct	right	no_response	1.232000	0.000000
335.990358	0.501000	fixation	165.000000	na	na	na	na	na	na	na	na
336.491358	1.498000	stimulus	165.000000	no_signal	0.000000	0.000000	not_quick_enough	no_response	no_response	0.000000	0.000000
337.989358	0.502000	fixation	166.000000	na	na	na	na	na	na	na	na
338.491358	1.498000	stimulus	166.000000	no_signal	0.000000	0.000000	correct	right	no_response	1.226000	0.000000
339.989358	0.502000	fixation	167.000000	na	na	na	na	na	na	na	na
340.491358	1.498000	stimulus	167.000000	signal	0.900000	0.900000	correct	no_response	no_response	0.000000	0.000000
341.989358	0.501000	fixation	168.000000	na	na	na	na	na	na	na	na
342.490358	1.499000	stimulus	168.000000	no_signal	0.000000	0.000000	correct	left	no_response	1.007000	0.000000
343.989358	0.501000	fixation	169.000000	na	na	na	na	na	na	na	na
344.490358	1.499000	stimulus	169.000000	no_signal	0.000000	0.000000	not_quick_enough	no_response	no_response	0.000000	0.000000
345.989358	0.501000	fixation	170.000000	na	na	na	na	na	na	na	na
346.490358	1.499000	stimulus	170.000000	signal	0.950000	0.950000	correct	no_response	no_response	0.000000	0.000000
347.989358	0.501000	fixation	171.000000	na	na	na	na	na	na	na	na
348.490358	1.498000	stimulus	171.000000	no_signal	0.000000	0.000000	correct	left	no_response	0.704000	0.000000
349.988358	0.502000	fixation	172.000000	na	na	na	na	na	na	na	na
350.490358	1.498000	stimulus	172.000000	no_signal	0.000000	0.000000	correct	left	no_response	1.175000	0.000000
351.988358	0.502000	fixation	173.000000	na	na	na	na	na	na	na	na
352.490358	1.498000	stimulus	173.000000	no_signal	0.000000	0.000000	correct	left	no_response	1.265000	0.000000
353.988358	0.502000	fixation	174.000000	na	na	na	na	na	na	na	na
354.490358	1.498000	stimulus	174.000000	no_signal	0.000000	0.000000	correct	left	no_response	1.167000	0.000000
355.988358	0.502000	fixation	175.000000	na	na	na	na	na	na	na	na
356.490358	1.498000	stimulus	175.000000	signal	1.000000	1.000000	correct	no_response	no_response	0.000000	0.000000
357.988358	0.501000	fixation	176.000000	na	na	na	na	na	na	na	na
358.489358	1.485613	stimulus	176.000000	no_signal	0.000000	0.000000	correct	right	no_response	1.397000	0.000000
