onset	duration	trial_number	trial_type	frame_number	time_of_response
8.066866	0.049917	1.000000	nontarget	1.000000	na
8.116783	0.049788	1.000000	nontarget	2.000000	na
8.166571	0.049620	1.000000	nontarget	3.000000	na
8.216191	0.050154	1.000000	nontarget	4.000000	na
8.266345	0.050499	1.000000	nontarget	5.000000	na
8.316845	0.049478	1.000000	nontarget	6.000000	na
8.366322	0.050609	1.000000	nontarget	7.000000	na
8.416931	0.050099	1.000000	nontarget	8.000000	na
8.467030	0.049861	1.000000	nontarget	9.000000	na
8.516890	0.049924	1.000000	nontarget	10.000000	na
8.566814	0.049547	1.000000	nontarget	11.000000	na
8.616361	0.050852	1.000000	nontarget	12.000000	na
8.667214	0.049199	1.000000	nontarget	13.000000	na
8.716413	0.050002	1.000000	nontarget	14.000000	na
8.766415	0.050173	1.000000	nontarget	15.000000	na
8.816588	0.050199	1.000000	nontarget	16.000000	8.823133
8.866787	0.049389	2.000000	nontarget	1.000000	8.873623
8.916176	0.050562	2.000000	nontarget	2.000000	na
8.966738	0.049401	2.000000	nontarget	3.000000	na
9.016139	0.050652	2.000000	nontarget	4.000000	na
9.066791	0.050446	2.000000	nontarget	5.000000	na
9.117237	0.049553	2.000000	nontarget	6.000000	na
9.166789	0.049989	2.000000	nontarget	7.000000	na
9.216778	0.050002	2.000000	nontarget	8.000000	na
9.266780	0.050017	2.000000	nontarget	9.000000	na
9.316797	0.049663	2.000000	nontarget	10.000000	na
9.366460	0.049538	2.000000	nontarget	11.000000	na
9.415998	0.050615	2.000000	nontarget	12.000000	9.422477
9.466613	0.050256	2.000000	nontarget	13.000000	na
9.516869	0.049686	2.000000	nontarget	14.000000	na
9.566555	0.049672	2.000000	nontarget	15.000000	na
9.616226	0.050260	2.000000	nontarget	16.000000	na
9.666487	0.050347	3.000000	nontarget	1.000000	na
9.716834	0.049941	3.000000	nontarget	2.000000	na
9.766775	0.050220	3.000000	nontarget	3.000000	na
9.816995	0.050007	3.000000	nontarget	4.000000	na
9.867002	0.049264	3.000000	nontarget	5.000000	na
9.916266	0.050072	3.000000	nontarget	6.000000	na
9.966338	0.050114	3.000000	nontarget	7.000000	na
10.016452	0.049746	3.000000	nontarget	8.000000	na
10.066198	0.050743	3.000000	nontarget	9.000000	na
10.116941	0.050126	3.000000	nontarget	10.000000	na
10.167067	0.049527	3.000000	nontarget	11.000000	10.173645
10.216593	0.049492	3.000000	nontarget	12.000000	na
10.266085	0.050435	3.000000	nontarget	13.000000	na
10.316520	0.049490	3.000000	nontarget	14.000000	na
10.366010	0.050720	3.000000	nontarget	15.000000	na
10.416730	0.049831	3.000000	nontarget	16.000000	na
10.466561	0.050406	4.000000	nontarget	1.000000	na
10.516966	0.049801	4.000000	nontarget	2.000000	na
10.566767	0.050002	4.000000	nontarget	3.000000	na
10.616769	0.050003	4.000000	nontarget	4.000000	na
10.666772	0.050113	4.000000	nontarget	5.000000	na
10.716885	0.049893	4.000000	nontarget	6.000000	na
10.766778	0.050056	4.000000	nontarget	7.000000	na
10.816834	0.049952	4.000000	nontarget	8.000000	na
10.866786	0.049603	4.000000	nontarget	9.000000	na
10.916389	0.050614	4.000000	nontarget	10.000000	na
10.967002	0.049168	4.000000	nontarget	11.000000	na
11.016171	0.050591	4.000000	nontarget	12.000000	11.023050
11.066762	0.049859	4.000000	nontarget	13.000000	na
11.116621	0.050148	4.000000	nontarget	14.000000	na
11.166769	0.049994	4.000000	nontarget	15.000000	na
11.216763	0.050077	4.000000	nontarget	16.000000	na
11.266840	0.049921	5.000000	nontarget	1.000000	na
11.316761	0.049391	5.000000	nontarget	2.000000	na
11.366151	0.049961	5.000000	nontarget	3.000000	na
11.416113	0.050468	5.000000	nontarget	4.000000	na
11.466580	0.049563	5.000000	nontarget	5.000000	na
11.516143	0.050593	5.000000	nontarget	6.000000	na
11.566736	0.050161	5.000000	nontarget	7.000000	na
11.616897	0.049237	5.000000	nontarget	8.000000	na
11.666134	0.050665	5.000000	nontarget	9.000000	na
11.716798	0.049934	5.000000	nontarget	10.000000	na
11.766733	0.049909	5.000000	nontarget	11.000000	na
11.816642	0.049906	5.000000	nontarget	12.000000	na
11.866548	0.050248	5.000000	nontarget	13.000000	11.873119
11.916796	0.050054	5.000000	nontarget	14.000000	na
11.966850	0.049587	5.000000	nontarget	15.000000	na
12.016438	0.050306	5.000000	nontarget	16.000000	na
12.066744	0.049432	6.000000	nontarget	1.000000	na
12.116176	0.050623	6.000000	nontarget	2.000000	na
12.166799	0.050094	6.000000	nontarget	3.000000	na
12.216893	0.049857	6.000000	nontarget	4.000000	na
12.266750	0.050161	6.000000	nontarget	5.000000	na
12.316911	0.049907	6.000000	nontarget	6.000000	na
12.366818	0.050065	6.000000	nontarget	7.000000	na
12.416883	0.050040	6.000000	nontarget	8.000000	na
12.466923	0.049815	6.000000	nontarget	9.000000	na
12.516738	0.050018	6.000000	nontarget	10.000000	na
12.566756	0.049444	6.000000	nontarget	11.000000	na
12.616201	0.050714	6.000000	nontarget	12.000000	na
12.666915	0.049994	6.000000	nontarget	13.000000	na
12.716909	0.049195	6.000000	nontarget	14.000000	12.723505
12.766104	0.050674	6.000000	nontarget	15.000000	na
12.816778	0.049798	6.000000	nontarget	16.000000	na
12.866576	0.050313	7.000000	nontarget	1.000000	12.873167
12.916889	0.049874	7.000000	nontarget	2.000000	na
12.966763	0.049682	7.000000	nontarget	3.000000	na
13.016445	0.050289	7.000000	nontarget	4.000000	na
13.066735	0.049818	7.000000	nontarget	5.000000	na
13.116552	0.050178	7.000000	nontarget	6.000000	na
13.166730	0.050061	7.000000	nontarget	7.000000	na
13.216791	0.049431	7.000000	nontarget	8.000000	na
13.266222	0.050542	7.000000	nontarget	9.000000	na
13.316764	0.049112	7.000000	nontarget	10.000000	na
13.365876	0.050392	7.000000	nontarget	11.000000	na
13.416268	0.049673	7.000000	nontarget	12.000000	na
13.465941	0.050031	7.000000	nontarget	13.000000	na
13.515972	0.050377	7.000000	nontarget	14.000000	na
13.566349	0.050252	7.000000	nontarget	15.000000	na
13.616601	0.050218	7.000000	nontarget	16.000000	13.632278
13.666818	0.049905	8.000000	nontarget	1.000000	13.673385
13.716724	0.049847	8.000000	nontarget	2.000000	na
13.766571	0.049767	8.000000	nontarget	3.000000	na
13.816338	0.050419	8.000000	nontarget	4.000000	na
13.866758	0.050080	8.000000	nontarget	5.000000	na
13.916837	0.049909	8.000000	nontarget	6.000000	na
13.966746	0.049689	8.000000	nontarget	7.000000	na
14.016435	0.050479	8.000000	nontarget	8.000000	na
14.066914	0.049999	8.000000	nontarget	9.000000	na
14.116913	0.049658	8.000000	nontarget	10.000000	na
14.166571	0.050199	8.000000	nontarget	11.000000	na
14.216771	0.049975	8.000000	nontarget	12.000000	na
14.266746	0.050136	8.000000	nontarget	13.000000	na
14.316882	0.049100	8.000000	nontarget	14.000000	na
14.365982	0.050734	8.000000	nontarget	15.000000	na
14.416715	0.050008	8.000000	nontarget	16.000000	na
14.466723	0.049021	9.000000	nontarget	1.000000	na
14.515745	0.051047	9.000000	nontarget	2.000000	14.522242
14.566792	0.050056	9.000000	nontarget	3.000000	na
14.616847	0.049927	9.000000	nontarget	4.000000	na
14.666774	0.049597	9.000000	nontarget	5.000000	na
14.716372	0.050286	9.000000	nontarget	6.000000	na
14.766658	0.050120	9.000000	nontarget	7.000000	na
14.816778	0.049230	9.000000	nontarget	8.000000	na
14.866009	0.050988	9.000000	nontarget	9.000000	na
14.916997	0.049565	9.000000	nontarget	10.000000	na
14.966561	0.049881	9.000000	nontarget	11.000000	na
15.016442	0.050509	9.000000	nontarget	12.000000	na
15.066951	0.049376	9.000000	nontarget	13.000000	na
15.116326	0.050623	9.000000	nontarget	14.000000	na
15.166949	0.049123	9.000000	nontarget	15.000000	na
15.216072	0.050020	9.000000	nontarget	16.000000	na
15.266092	0.050624	10.000000	nontarget	1.000000	15.277279
15.316717	0.049245	10.000000	nontarget	2.000000	na
15.365961	0.050583	10.000000	nontarget	3.000000	na
15.416545	0.049570	10.000000	nontarget	4.000000	na
15.466114	0.050558	10.000000	nontarget	5.000000	na
15.516673	0.050023	10.000000	nontarget	6.000000	na
15.566695	0.050202	10.000000	nontarget	7.000000	na
15.616897	0.049872	10.000000	nontarget	8.000000	na
15.666769	0.049461	10.000000	nontarget	9.000000	na
15.716230	0.050735	10.000000	nontarget	10.000000	na
15.766965	0.049841	10.000000	nontarget	11.000000	na
15.816805	0.049882	10.000000	nontarget	12.000000	na
15.866687	0.050252	10.000000	nontarget	13.000000	na
15.916939	0.049476	10.000000	nontarget	14.000000	na
15.966415	0.050007	10.000000	nontarget	15.000000	na
16.016422	0.050416	10.000000	nontarget	16.000000	16.022726
16.066839	0.049836	11.000000	nontarget	1.000000	16.073379
16.116675	0.050044	11.000000	nontarget	2.000000	na
16.166719	0.049990	11.000000	nontarget	3.000000	na
16.216709	0.050077	11.000000	nontarget	4.000000	na
16.266786	0.049390	11.000000	nontarget	5.000000	na
16.316176	0.050545	11.000000	nontarget	6.000000	na
16.366721	0.050176	11.000000	nontarget	7.000000	na
16.416897	0.049807	11.000000	nontarget	8.000000	na
16.466704	0.049930	11.000000	nontarget	9.000000	na
16.516634	0.049365	11.000000	nontarget	10.000000	na
16.565999	0.050606	11.000000	nontarget	11.000000	na
16.616605	0.050068	11.000000	nontarget	12.000000	na
16.666673	0.049707	11.000000	nontarget	13.000000	na
16.716379	0.050304	11.000000	nontarget	14.000000	na
16.766684	0.050270	11.000000	nontarget	15.000000	na
16.816954	0.049756	11.000000	nontarget	16.000000	16.841017
16.866710	0.049843	12.000000	nontarget	1.000000	16.873298
16.916553	0.049942	12.000000	nontarget	2.000000	na
16.966496	0.050207	12.000000	nontarget	3.000000	na
17.016703	0.049574	12.000000	nontarget	4.000000	na
17.066276	0.050675	12.000000	nontarget	5.000000	na
17.116952	0.049617	12.000000	nontarget	6.000000	na
17.166569	0.049799	12.000000	nontarget	7.000000	na
17.216368	0.050210	12.000000	nontarget	8.000000	na
17.266578	0.049743	12.000000	nontarget	9.000000	na
17.316321	0.050535	12.000000	nontarget	10.000000	na
17.366856	0.049704	12.000000	nontarget	11.000000	na
17.416560	0.050101	12.000000	nontarget	12.000000	na
17.466661	0.050011	12.000000	nontarget	13.000000	na
17.516672	0.049924	12.000000	nontarget	14.000000	na
17.566596	0.049720	12.000000	nontarget	15.000000	na
17.616316	0.050071	12.000000	nontarget	16.000000	na
17.666387	0.050470	13.000000	target	1.000000	na
17.716857	0.049849	13.000000	target	2.000000	na
17.766706	0.049932	13.000000	target	3.000000	na
17.816638	0.050020	13.000000	target	4.000000	na
17.866658	0.049951	13.000000	target	5.000000	na
17.916609	0.049814	13.000000	target	6.000000	na
17.966423	0.049993	13.000000	target	7.000000	na
18.016416	0.050186	13.000000	target	8.000000	na
18.066602	0.050306	13.000000	target	9.000000	na
18.116909	0.049718	13.000000	target	10.000000	na
18.166627	0.049519	13.000000	target	11.000000	na
18.216145	0.050214	13.000000	target	12.000000	na
18.266359	0.050354	13.000000	target	13.000000	na
18.316714	0.049965	13.000000	target	14.000000	18.343717
18.366679	0.049978	13.000000	target	15.000000	na
18.416657	0.049943	13.000000	target	16.000000	na
18.466600	0.049516	14.000000	nontarget	1.000000	18.473226
18.516116	0.050793	14.000000	nontarget	2.000000	na
18.566909	0.049079	14.000000	nontarget	3.000000	na
18.615988	0.050537	14.000000	nontarget	4.000000	na
18.666525	0.050298	14.000000	nontarget	5.000000	na
18.716823	0.049945	14.000000	nontarget	6.000000	na
18.766768	0.050106	14.000000	nontarget	7.000000	na
18.816874	0.049792	14.000000	nontarget	8.000000	na
18.866666	0.049997	14.000000	nontarget	9.000000	na
18.916663	0.049403	14.000000	nontarget	10.000000	na
18.966065	0.050132	14.000000	nontarget	11.000000	na
19.016197	0.050482	14.000000	nontarget	12.000000	na
19.066679	0.050177	14.000000	nontarget	13.000000	na
19.116855	0.049989	14.000000	nontarget	14.000000	na
19.166845	0.049667	14.000000	nontarget	15.000000	19.178482
19.216512	0.049977	14.000000	nontarget	16.000000	na
19.266489	0.050469	15.000000	nontarget	1.000000	19.273072
19.316958	0.049613	15.000000	nontarget	2.000000	na
19.366571	0.049591	15.000000	nontarget	3.000000	na
19.416162	0.050501	15.000000	nontarget	4.000000	na
19.466663	0.050021	15.000000	nontarget	5.000000	na
19.516684	0.049974	15.000000	nontarget	6.000000	na
19.566658	0.050210	15.000000	nontarget	7.000000	na
19.616869	0.049587	15.000000	nontarget	8.000000	na
19.666456	0.050201	15.000000	nontarget	9.000000	na
19.716657	0.049984	15.000000	nontarget	10.000000	na
19.766641	0.049267	15.000000	nontarget	11.000000	na
19.815908	0.050406	15.000000	nontarget	12.000000	na
19.866314	0.050482	15.000000	nontarget	13.000000	na
19.916796	0.049857	15.000000	nontarget	14.000000	na
19.966652	0.049386	15.000000	nontarget	15.000000	na
20.016038	0.050627	15.000000	nontarget	16.000000	20.021831
20.066665	0.049827	16.000000	nontarget	1.000000	20.073239
20.116492	0.049772	16.000000	nontarget	2.000000	na
20.166263	0.049811	16.000000	nontarget	3.000000	na
20.216074	0.050481	16.000000	nontarget	4.000000	na
20.266556	0.050081	16.000000	nontarget	5.000000	na
20.316636	0.050022	16.000000	nontarget	6.000000	na
20.366659	0.049497	16.000000	nontarget	7.000000	na
20.416155	0.050007	16.000000	nontarget	8.000000	na
20.466163	0.050009	16.000000	nontarget	9.000000	na
20.516171	0.050180	16.000000	nontarget	10.000000	na
20.566352	0.050258	16.000000	nontarget	11.000000	na
20.616610	0.050321	16.000000	nontarget	12.000000	na
20.666931	0.050116	16.000000	nontarget	13.000000	na
20.717047	0.049456	16.000000	nontarget	14.000000	na
20.766504	0.050159	16.000000	nontarget	15.000000	na
20.816662	0.050315	16.000000	nontarget	16.000000	na
20.866977	0.049679	17.000000	nontarget	1.000000	na
20.916656	0.049700	17.000000	nontarget	2.000000	na
20.966356	0.049733	17.000000	nontarget	3.000000	20.972661
21.016089	0.050773	17.000000	nontarget	4.000000	na
21.066862	0.050098	17.000000	nontarget	5.000000	na
21.116960	0.049405	17.000000	nontarget	6.000000	na
21.166364	0.050428	17.000000	nontarget	7.000000	na
21.216792	0.049962	17.000000	nontarget	8.000000	na
21.266755	0.050302	17.000000	nontarget	9.000000	na
21.317057	0.049529	17.000000	nontarget	10.000000	na
21.366587	0.050024	17.000000	nontarget	11.000000	na
21.416610	0.049772	17.000000	nontarget	12.000000	na
21.466382	0.050584	17.000000	nontarget	13.000000	na
21.516966	0.049802	17.000000	nontarget	14.000000	na
21.566767	0.049551	17.000000	nontarget	15.000000	na
21.616318	0.050509	17.000000	nontarget	16.000000	na
21.666827	0.049845	18.000000	nontarget	1.000000	na
21.716672	0.049585	18.000000	nontarget	2.000000	na
21.766257	0.050557	18.000000	nontarget	3.000000	21.777573
21.816814	0.049826	18.000000	nontarget	4.000000	na
21.866640	0.049428	18.000000	nontarget	5.000000	na
21.916067	0.050629	18.000000	nontarget	6.000000	na
21.966696	0.049758	18.000000	nontarget	7.000000	na
22.016454	0.050177	18.000000	nontarget	8.000000	na
22.066631	0.049665	18.000000	nontarget	9.000000	na
22.116296	0.050171	18.000000	nontarget	10.000000	na
22.166467	0.050124	18.000000	nontarget	11.000000	na
22.216591	0.050260	18.000000	nontarget	12.000000	na
22.266851	0.050030	18.000000	nontarget	13.000000	na
22.316881	0.049451	18.000000	nontarget	14.000000	na
22.366331	0.050542	18.000000	nontarget	15.000000	na
22.416874	0.049365	18.000000	nontarget	16.000000	na
22.466239	0.050398	19.000000	nontarget	1.000000	na
22.516636	0.049948	19.000000	nontarget	2.000000	na
22.566584	0.050023	19.000000	nontarget	3.000000	na
22.616608	0.050250	19.000000	nontarget	4.000000	22.623239
22.666857	0.049756	19.000000	nontarget	5.000000	na
22.716613	0.050034	19.000000	nontarget	6.000000	na
22.766648	0.049417	19.000000	nontarget	7.000000	na
22.816065	0.050562	19.000000	nontarget	8.000000	na
22.866627	0.049948	19.000000	nontarget	9.000000	na
22.916574	0.049493	19.000000	nontarget	10.000000	na
22.966068	0.050156	19.000000	nontarget	11.000000	na
23.016224	0.050422	19.000000	nontarget	12.000000	na
23.066646	0.049974	19.000000	nontarget	13.000000	na
23.116621	0.049885	19.000000	nontarget	14.000000	na
23.166506	0.050389	19.000000	nontarget	15.000000	na
23.216895	0.049838	19.000000	nontarget	16.000000	na
23.266733	0.050034	20.000000	nontarget	1.000000	na
23.316767	0.049845	20.000000	nontarget	2.000000	na
23.366612	0.050156	20.000000	nontarget	3.000000	na
23.416768	0.050260	20.000000	nontarget	4.000000	na
23.467028	0.049991	20.000000	nontarget	5.000000	na
23.517019	0.049350	20.000000	nontarget	6.000000	na
23.566369	0.050159	20.000000	nontarget	7.000000	na
23.616528	0.050048	20.000000	nontarget	8.000000	23.622855
23.666576	0.050173	20.000000	nontarget	9.000000	na
23.716749	0.049815	20.000000	nontarget	10.000000	na
23.766564	0.050236	20.000000	nontarget	11.000000	na
23.816800	0.049814	20.000000	nontarget	12.000000	na
23.866614	0.049954	20.000000	nontarget	13.000000	na
23.916568	0.049520	20.000000	nontarget	14.000000	na
23.966088	0.050347	20.000000	nontarget	15.000000	na
24.016435	0.050142	20.000000	nontarget	16.000000	na
24.066578	0.049716	21.000000	nontarget	1.000000	na
24.116294	0.050445	21.000000	nontarget	2.000000	na
24.166739	0.050058	21.000000	nontarget	3.000000	na
24.216797	0.049787	21.000000	nontarget	4.000000	na
24.266584	0.049747	21.000000	nontarget	5.000000	na
24.316331	0.050249	21.000000	nontarget	6.000000	na
24.366580	0.050324	21.000000	nontarget	7.000000	na
24.416904	0.049687	21.000000	nontarget	8.000000	na
24.466591	0.049958	21.000000	nontarget	9.000000	na
24.516550	0.049729	21.000000	nontarget	10.000000	na
24.566279	0.050334	21.000000	nontarget	11.000000	na
24.616613	0.049973	21.000000	nontarget	12.000000	24.652665
24.666586	0.050364	21.000000	nontarget	13.000000	na
24.716951	0.049116	21.000000	nontarget	14.000000	na
24.766067	0.050516	21.000000	nontarget	15.000000	na
24.816583	0.050329	21.000000	nontarget	16.000000	na
24.866912	0.049184	22.000000	nontarget	1.000000	na
24.916096	0.050324	22.000000	nontarget	2.000000	na
24.966421	0.050044	22.000000	nontarget	3.000000	na
25.016465	0.049525	22.000000	nontarget	4.000000	na
25.065990	0.050632	22.000000	nontarget	5.000000	na
25.116622	0.049901	22.000000	nontarget	6.000000	na
25.166524	0.050057	22.000000	nontarget	7.000000	na
25.216581	0.049415	22.000000	nontarget	8.000000	na
25.265997	0.050313	22.000000	nontarget	9.000000	na
25.316309	0.050609	22.000000	nontarget	10.000000	na
25.366918	0.049471	22.000000	nontarget	11.000000	na
25.416389	0.049664	22.000000	nontarget	12.000000	na
25.466053	0.050160	22.000000	nontarget	13.000000	na
25.516213	0.050364	22.000000	nontarget	14.000000	na
25.566577	0.049500	22.000000	nontarget	15.000000	na
25.616077	0.049944	22.000000	nontarget	16.000000	25.649624
25.666021	0.049614	23.000000	nontarget	1.000000	25.672662
25.715635	0.051070	23.000000	nontarget	2.000000	na
25.766704	0.049526	23.000000	nontarget	3.000000	na
25.816230	0.049724	23.000000	nontarget	4.000000	na
25.865954	0.049699	23.000000	nontarget	5.000000	na
25.915653	0.050561	23.000000	nontarget	6.000000	na
25.966214	0.050355	23.000000	nontarget	7.000000	na
26.016569	0.049215	23.000000	nontarget	8.000000	na
26.065784	0.051020	23.000000	nontarget	9.000000	na
26.116804	0.049394	23.000000	nontarget	10.000000	na
26.166198	0.050356	23.000000	nontarget	11.000000	na
26.216554	0.049813	23.000000	nontarget	12.000000	na
26.266368	0.050346	23.000000	nontarget	13.000000	na
26.316714	0.049791	23.000000	nontarget	14.000000	na
26.366504	0.049490	23.000000	nontarget	15.000000	na
26.415994	0.050323	23.000000	nontarget	16.000000	na
26.466318	0.050219	24.000000	nontarget	1.000000	na
26.516536	0.049872	24.000000	nontarget	2.000000	26.540756
26.566408	0.050181	24.000000	nontarget	3.000000	na
26.616589	0.049438	24.000000	nontarget	4.000000	na
26.666028	0.049682	24.000000	nontarget	5.000000	na
26.715710	0.050121	24.000000	nontarget	6.000000	na
26.765831	0.050790	24.000000	nontarget	7.000000	na
26.816621	0.049628	24.000000	nontarget	8.000000	na
26.866249	0.050035	24.000000	nontarget	9.000000	na
26.916283	0.050319	24.000000	nontarget	10.000000	na
26.966603	0.050198	24.000000	nontarget	11.000000	na
27.016801	0.049015	24.000000	nontarget	12.000000	na
27.065816	0.050432	24.000000	nontarget	13.000000	na
27.116248	0.050139	24.000000	nontarget	14.000000	na
27.166386	0.049192	24.000000	nontarget	15.000000	na
27.215579	0.050041	24.000000	nontarget	16.000000	na
27.265620	0.050888	25.000000	nontarget	1.000000	na
27.316508	0.050226	25.000000	nontarget	2.000000	na
27.366734	0.049304	25.000000	nontarget	3.000000	na
27.416038	0.049561	25.000000	nontarget	4.000000	na
27.465599	0.051160	25.000000	nontarget	5.000000	na
27.516759	0.049407	25.000000	nontarget	6.000000	na
27.566166	0.049385	25.000000	nontarget	7.000000	na
27.615551	0.050659	25.000000	nontarget	8.000000	na
27.666209	0.049622	25.000000	nontarget	9.000000	na
27.715831	0.050705	25.000000	nontarget	10.000000	27.724513
27.766535	0.049187	25.000000	nontarget	11.000000	na
27.815722	0.050898	25.000000	nontarget	12.000000	na
27.866621	0.049019	25.000000	nontarget	13.000000	na
27.915640	0.050625	25.000000	nontarget	14.000000	na
27.966265	0.050257	25.000000	nontarget	15.000000	na
28.016522	0.049953	25.000000	nontarget	16.000000	na
28.066475	0.050064	26.000000	nontarget	1.000000	na
28.116538	0.049808	26.000000	nontarget	2.000000	na
28.166347	0.049626	26.000000	nontarget	3.000000	na
28.215972	0.050576	26.000000	nontarget	4.000000	na
28.266548	0.049798	26.000000	nontarget	5.000000	na
28.316346	0.050251	26.000000	nontarget	6.000000	na
28.366597	0.049201	26.000000	nontarget	7.000000	na
28.415799	0.050726	26.000000	nontarget	8.000000	na
28.466525	0.049960	26.000000	nontarget	9.000000	na
28.516485	0.050194	26.000000	nontarget	10.000000	na
28.566679	0.049988	26.000000	nontarget	11.000000	na
28.616667	0.049864	26.000000	nontarget	12.000000	na
28.666530	0.049998	26.000000	nontarget	13.000000	na
28.716529	0.049278	26.000000	nontarget	14.000000	na
28.765807	0.050731	26.000000	nontarget	15.000000	na
28.816538	0.049953	26.000000	nontarget	16.000000	na
28.866491	0.049082	27.000000	target	1.000000	na
28.915573	0.050568	27.000000	target	2.000000	na
28.966141	0.049980	27.000000	target	3.000000	na
29.016121	0.049800	27.000000	target	4.000000	na
29.065921	0.049722	27.000000	target	5.000000	na
29.115643	0.050755	27.000000	target	6.000000	na
29.166398	0.050129	27.000000	target	7.000000	na
29.216527	0.049248	27.000000	target	8.000000	na
29.265775	0.050799	27.000000	target	9.000000	na
29.316574	0.049612	27.000000	target	10.000000	na
29.366186	0.049534	27.000000	target	11.000000	na
29.415720	0.050948	27.000000	target	12.000000	na
29.466668	0.049660	27.000000	target	13.000000	na
29.516328	0.050180	27.000000	target	14.000000	na
29.566508	0.049846	27.000000	target	15.000000	na
29.616353	0.049802	27.000000	target	16.000000	na
29.666155	0.050062	28.000000	nontarget	1.000000	na
29.716217	0.050151	28.000000	nontarget	2.000000	29.722645
29.766368	0.049618	28.000000	nontarget	3.000000	na
29.815986	0.050505	28.000000	nontarget	4.000000	na
29.866491	0.049968	28.000000	nontarget	5.000000	na
29.916459	0.049469	28.000000	nontarget	6.000000	na
29.965928	0.050558	28.000000	nontarget	7.000000	na
30.016486	0.049381	28.000000	nontarget	8.000000	na
30.065867	0.049745	28.000000	nontarget	9.000000	na
30.115612	0.050843	28.000000	nontarget	10.000000	na
30.166455	0.049748	28.000000	nontarget	11.000000	na
30.216203	0.050306	28.000000	nontarget	12.000000	na
30.266509	0.049757	28.000000	nontarget	13.000000	na
30.316266	0.050267	28.000000	nontarget	14.000000	na
30.366533	0.049965	28.000000	nontarget	15.000000	na
30.416498	0.049866	28.000000	nontarget	16.000000	na
30.466364	0.050161	29.000000	nontarget	1.000000	na
30.516525	0.049872	29.000000	nontarget	2.000000	na
30.566397	0.049402	29.000000	nontarget	3.000000	na
30.615799	0.050057	29.000000	nontarget	4.000000	30.622496
30.665856	0.050686	29.000000	nontarget	5.000000	na
30.716542	0.049432	29.000000	nontarget	6.000000	na
30.765974	0.050833	29.000000	nontarget	7.000000	na
30.816807	0.049419	29.000000	nontarget	8.000000	na
30.866226	0.050096	29.000000	nontarget	9.000000	na
30.916322	0.049591	29.000000	nontarget	10.000000	na
30.965912	0.050304	29.000000	nontarget	11.000000	na
31.016216	0.050067	29.000000	nontarget	12.000000	na
31.066283	0.049378	29.000000	nontarget	13.000000	na
31.115660	0.050806	29.000000	nontarget	14.000000	na
31.166467	0.049279	29.000000	nontarget	15.000000	na
31.215745	0.050705	29.000000	nontarget	16.000000	na
31.266451	0.050038	30.000000	nontarget	1.000000	na
31.316489	0.049591	30.000000	nontarget	2.000000	na
31.366079	0.050454	30.000000	nontarget	3.000000	na
31.416533	0.049947	30.000000	nontarget	4.000000	na
31.466480	0.049804	30.000000	nontarget	5.000000	na
31.516284	0.050183	30.000000	nontarget	6.000000	na
31.566466	0.050091	30.000000	nontarget	7.000000	na
31.616557	0.049848	30.000000	nontarget	8.000000	31.651864
31.666405	0.049981	30.000000	nontarget	9.000000	na
31.716386	0.050067	30.000000	nontarget	10.000000	na
31.766453	0.049337	30.000000	nontarget	11.000000	na
31.815790	0.050959	30.000000	nontarget	12.000000	na
31.866748	0.049672	30.000000	nontarget	13.000000	na
31.916421	0.050039	30.000000	nontarget	14.000000	na
31.966459	0.049997	30.000000	nontarget	15.000000	na
32.016456	0.049941	30.000000	nontarget	16.000000	na
32.066397	0.050025	31.000000	nontarget	1.000000	na
32.116423	0.050004	31.000000	nontarget	2.000000	na
32.166427	0.050023	31.000000	nontarget	3.000000	na
32.216450	0.049970	31.000000	nontarget	4.000000	na
32.266420	0.049165	31.000000	nontarget	5.000000	na
32.315585	0.050168	31.000000	nontarget	6.000000	na
32.365752	0.050660	31.000000	nontarget	7.000000	na
32.416412	0.050020	31.000000	nontarget	8.000000	na
32.466432	0.049981	31.000000	nontarget	9.000000	na
32.516412	0.050012	31.000000	nontarget	10.000000	na
32.566425	0.050213	31.000000	nontarget	11.000000	na
32.616638	0.049622	31.000000	nontarget	12.000000	na
32.666260	0.049962	31.000000	nontarget	13.000000	na
32.716222	0.049706	31.000000	nontarget	14.000000	na
32.765928	0.050454	31.000000	nontarget	15.000000	na
32.816383	0.050037	31.000000	nontarget	16.000000	na
32.866419	0.049871	32.000000	nontarget	1.000000	32.872954
32.916291	0.050131	32.000000	nontarget	2.000000	na
32.966421	0.049886	32.000000	nontarget	3.000000	na
33.016308	0.050096	32.000000	nontarget	4.000000	na
33.066404	0.049638	32.000000	nontarget	5.000000	na
33.116041	0.049744	32.000000	nontarget	6.000000	na
33.165785	0.049727	32.000000	nontarget	7.000000	na
33.215513	0.050743	32.000000	nontarget	8.000000	na
33.266255	0.050130	32.000000	nontarget	9.000000	na
33.316385	0.050004	32.000000	nontarget	10.000000	na
33.366390	0.049998	32.000000	nontarget	11.000000	na
33.416388	0.050274	32.000000	nontarget	12.000000	na
33.466661	0.049684	32.000000	nontarget	13.000000	na
33.516346	0.050141	32.000000	nontarget	14.000000	na
33.566487	0.049883	32.000000	nontarget	15.000000	na
33.616370	0.049705	32.000000	nontarget	16.000000	na
33.666075	0.050288	33.000000	target	1.000000	na
33.716363	0.050253	33.000000	target	2.000000	na
33.766617	0.049335	33.000000	target	3.000000	na
33.815952	0.050390	33.000000	target	4.000000	na
33.866342	0.049966	33.000000	target	5.000000	na
33.916308	0.050019	33.000000	target	6.000000	na
33.966328	0.050198	33.000000	target	7.000000	na
34.016525	0.049315	33.000000	target	8.000000	na
34.065840	0.050057	33.000000	target	9.000000	na
34.115897	0.050418	33.000000	target	10.000000	na
34.166315	0.049986	33.000000	target	11.000000	na
34.216301	0.049908	33.000000	target	12.000000	na
34.266209	0.049401	33.000000	target	13.000000	na
34.315610	0.050701	33.000000	target	14.000000	na
34.366310	0.049979	33.000000	target	15.000000	na
34.416289	0.049540	33.000000	target	16.000000	na
34.465829	0.050481	34.000000	nontarget	1.000000	na
34.516310	0.049796	34.000000	nontarget	2.000000	na
34.566106	0.050211	34.000000	nontarget	3.000000	34.572327
34.616318	0.049960	34.000000	nontarget	4.000000	na
34.666277	0.050001	34.000000	nontarget	5.000000	na
34.716278	0.049156	34.000000	nontarget	6.000000	na
34.765434	0.050022	34.000000	nontarget	7.000000	na
34.815457	0.051103	34.000000	nontarget	8.000000	na
34.866560	0.049729	34.000000	nontarget	9.000000	na
34.916289	0.049931	34.000000	nontarget	10.000000	na
34.966221	0.050039	34.000000	nontarget	11.000000	na
35.016260	0.050019	34.000000	nontarget	12.000000	na
35.066279	0.049583	34.000000	nontarget	13.000000	na
35.115862	0.050384	34.000000	nontarget	14.000000	na
35.166246	0.049295	34.000000	nontarget	15.000000	na
35.215541	0.050705	34.000000	nontarget	16.000000	na
35.266246	0.049533	35.000000	nontarget	1.000000	na
35.315780	0.050807	35.000000	nontarget	2.000000	35.322463
35.366587	0.049505	35.000000	nontarget	3.000000	na
35.416091	0.049718	35.000000	nontarget	4.000000	na
35.465809	0.049799	35.000000	nontarget	5.000000	na
35.515608	0.050787	35.000000	nontarget	6.000000	na
35.566396	0.050395	35.000000	nontarget	7.000000	na
35.616791	0.049809	35.000000	nontarget	8.000000	na
35.666600	0.049693	35.000000	nontarget	9.000000	na
35.716293	0.049934	35.000000	nontarget	10.000000	na
35.766227	0.049844	35.000000	nontarget	11.000000	na
35.816072	0.050126	35.000000	nontarget	12.000000	na
35.866197	0.049795	35.000000	nontarget	13.000000	na
35.915992	0.050201	35.000000	nontarget	14.000000	na
35.966193	0.049879	35.000000	nontarget	15.000000	na
36.016072	0.050128	35.000000	nontarget	16.000000	na
36.066201	0.049970	36.000000	target	1.000000	na
36.116171	0.050003	36.000000	target	2.000000	na
36.166174	0.049994	36.000000	target	3.000000	na
36.216168	0.050007	36.000000	target	4.000000	na
36.266175	0.050019	36.000000	target	5.000000	na
36.316194	0.050436	36.000000	target	6.000000	na
36.366630	0.050195	36.000000	target	7.000000	na
36.416825	0.049328	36.000000	target	8.000000	na
36.466153	0.049456	36.000000	target	9.000000	na
36.515608	0.050563	36.000000	target	10.000000	na
36.566172	0.049985	36.000000	target	11.000000	na
36.616157	0.049986	36.000000	target	12.000000	na
36.666143	0.049519	36.000000	target	13.000000	na
36.715662	0.050709	36.000000	target	14.000000	na
36.766371	0.049811	36.000000	target	15.000000	na
36.816182	0.050302	36.000000	target	16.000000	36.831639
36.866484	0.049835	37.000000	nontarget	1.000000	36.873066
36.916319	0.049770	37.000000	nontarget	2.000000	na
36.966089	0.050417	37.000000	nontarget	3.000000	na
37.016505	0.049380	37.000000	nontarget	4.000000	na
37.065886	0.050281	37.000000	nontarget	5.000000	na
37.116167	0.050001	37.000000	nontarget	6.000000	na
37.166168	0.050005	37.000000	nontarget	7.000000	na
37.216173	0.049719	37.000000	nontarget	8.000000	na
37.265892	0.050260	37.000000	nontarget	9.000000	na
37.316152	0.050011	37.000000	nontarget	10.000000	na
37.366163	0.050011	37.000000	nontarget	11.000000	na
37.416174	0.049965	37.000000	nontarget	12.000000	na
37.466139	0.050023	37.000000	nontarget	13.000000	na
37.516162	0.049802	37.000000	nontarget	14.000000	na
37.565964	0.049991	37.000000	nontarget	15.000000	na
37.615955	0.050139	37.000000	nontarget	16.000000	na
37.666094	0.049510	38.000000	nontarget	1.000000	na
37.715603	0.050543	38.000000	nontarget	2.000000	na
37.766146	0.049893	38.000000	nontarget	3.000000	na
37.816039	0.050059	38.000000	nontarget	4.000000	37.822676
37.866098	0.049959	38.000000	nontarget	5.000000	na
37.916057	0.050266	38.000000	nontarget	6.000000	na
37.966323	0.050163	38.000000	nontarget	7.000000	na
38.016486	0.049787	38.000000	nontarget	8.000000	na
38.066273	0.049836	38.000000	nontarget	9.000000	na
38.116109	0.050521	38.000000	nontarget	10.000000	na
38.166630	0.049720	38.000000	nontarget	11.000000	na
38.216350	0.049264	38.000000	nontarget	12.000000	na
38.265614	0.050240	38.000000	nontarget	13.000000	na
38.315854	0.050765	38.000000	nontarget	14.000000	na
38.366619	0.049281	38.000000	nontarget	15.000000	na
38.415900	0.050104	38.000000	nontarget	16.000000	na
38.466004	0.050370	39.000000	nontarget	1.000000	na
38.516374	0.050214	39.000000	nontarget	2.000000	na
38.566588	0.049444	39.000000	nontarget	3.000000	na
38.616032	0.049945	39.000000	nontarget	4.000000	na
38.665977	0.049739	39.000000	nontarget	5.000000	na
38.715716	0.050330	39.000000	nontarget	6.000000	na
38.766046	0.050694	39.000000	nontarget	7.000000	na
38.816739	0.049276	39.000000	nontarget	8.000000	38.823295
38.866015	0.050111	39.000000	nontarget	9.000000	na
38.916126	0.049935	39.000000	nontarget	10.000000	na
38.966061	0.049721	39.000000	nontarget	11.000000	na
39.015782	0.050266	39.000000	nontarget	12.000000	na
39.066048	0.050658	39.000000	nontarget	13.000000	na
39.116706	0.049926	39.000000	nontarget	14.000000	na
39.166633	0.049374	39.000000	nontarget	15.000000	na
39.216006	0.050366	39.000000	nontarget	16.000000	na
39.266372	0.050458	40.000000	nontarget	1.000000	na
39.316830	0.049198	40.000000	nontarget	2.000000	na
39.366028	0.049990	40.000000	nontarget	3.000000	na
39.416017	0.049978	40.000000	nontarget	4.000000	na
39.465995	0.050353	40.000000	nontarget	5.000000	na
39.516348	0.049657	40.000000	nontarget	6.000000	na
39.566005	0.050828	40.000000	nontarget	7.000000	na
39.616833	0.049561	40.000000	nontarget	8.000000	na
39.666394	0.049228	40.000000	nontarget	9.000000	na
39.715623	0.050510	40.000000	nontarget	10.000000	na
39.766133	0.050544	40.000000	nontarget	11.000000	na
39.816677	0.049392	40.000000	nontarget	12.000000	na
39.866069	0.050285	40.000000	nontarget	13.000000	na
39.916354	0.050026	40.000000	nontarget	14.000000	na
39.966380	0.050141	40.000000	nontarget	15.000000	na
40.016521	0.049410	40.000000	nontarget	16.000000	40.027876
40.065931	0.050612	41.000000	nontarget	1.000000	40.072540
40.116544	0.049409	41.000000	nontarget	2.000000	na
40.165952	0.050302	41.000000	nontarget	3.000000	na
40.216254	0.050221	41.000000	nontarget	4.000000	na
40.266475	0.049596	41.000000	nontarget	5.000000	na
40.316070	0.049858	41.000000	nontarget	6.000000	na
40.365928	0.050827	41.000000	nontarget	7.000000	na
40.416755	0.049148	41.000000	nontarget	8.000000	na
40.465903	0.050065	41.000000	nontarget	9.000000	na
40.515969	0.049976	41.000000	nontarget	10.000000	na
40.565945	0.050422	41.000000	nontarget	11.000000	na
40.616367	0.049559	41.000000	nontarget	12.000000	na
40.665926	0.050453	41.000000	nontarget	13.000000	na
40.716379	0.049986	41.000000	nontarget	14.000000	na
40.766365	0.049851	41.000000	nontarget	15.000000	na
40.816216	0.050086	41.000000	nontarget	16.000000	na
40.866302	0.049339	42.000000	nontarget	1.000000	na
40.915641	0.050677	42.000000	nontarget	2.000000	na
40.966318	0.050168	42.000000	nontarget	3.000000	40.972927
41.016486	0.049007	42.000000	nontarget	4.000000	na
41.065493	0.051109	42.000000	nontarget	5.000000	na
41.116602	0.049523	42.000000	nontarget	6.000000	na
41.166125	0.049420	42.000000	nontarget	7.000000	na
41.215546	0.050942	42.000000	nontarget	8.000000	na
41.266488	0.049204	42.000000	nontarget	9.000000	na
41.315692	0.050212	42.000000	nontarget	10.000000	na
41.365903	0.050073	42.000000	nontarget	11.000000	na
41.415976	0.050204	42.000000	nontarget	12.000000	na
41.466180	0.059460	42.000000	nontarget	13.000000	na
41.525640	0.040756	42.000000	nontarget	14.000000	na
41.566397	0.049783	42.000000	nontarget	15.000000	na
41.616180	0.049465	42.000000	nontarget	16.000000	na
41.665645	0.050452	43.000000	nontarget	1.000000	na
41.716098	0.049904	43.000000	nontarget	2.000000	na
41.766001	0.050054	43.000000	nontarget	3.000000	na
41.816055	0.049319	43.000000	nontarget	4.000000	na
41.865374	0.050726	43.000000	nontarget	5.000000	na
41.916100	0.049689	43.000000	nontarget	6.000000	na
41.965789	0.050775	43.000000	nontarget	7.000000	na
42.016564	0.049763	43.000000	nontarget	8.000000	na
42.066327	0.049405	43.000000	nontarget	9.000000	42.077545
42.115732	0.050077	43.000000	nontarget	10.000000	na
42.165810	0.049664	43.000000	nontarget	11.000000	na
42.215473	0.050375	43.000000	nontarget	12.000000	na
42.265849	0.049922	43.000000	nontarget	13.000000	na
42.315771	0.050149	43.000000	nontarget	14.000000	na
42.365920	0.050029	43.000000	nontarget	15.000000	na
42.415949	0.049712	43.000000	nontarget	16.000000	na
42.465661	0.050695	44.000000	nontarget	1.000000	na
42.516356	0.049393	44.000000	nontarget	2.000000	na
42.565749	0.050677	44.000000	nontarget	3.000000	na
42.616425	0.049903	44.000000	nontarget	4.000000	na
42.666328	0.050006	44.000000	nontarget	5.000000	na
42.716334	0.049992	44.000000	nontarget	6.000000	na
42.766326	0.049202	44.000000	nontarget	7.000000	na
42.815528	0.050786	44.000000	nontarget	8.000000	na
42.866314	0.049424	44.000000	nontarget	9.000000	42.890835
42.915738	0.050040	44.000000	nontarget	10.000000	na
42.965778	0.050519	44.000000	nontarget	11.000000	na
43.016297	0.049898	44.000000	nontarget	12.000000	na
43.066195	0.050194	44.000000	nontarget	13.000000	na
43.116389	0.049643	44.000000	nontarget	14.000000	na
43.166032	0.050252	44.000000	nontarget	15.000000	na
43.216284	0.049443	44.000000	nontarget	16.000000	na
43.265727	0.050578	45.000000	nontarget	1.000000	na
43.316305	0.050037	45.000000	nontarget	2.000000	na
43.366343	0.049415	45.000000	nontarget	3.000000	na
43.415758	0.049952	45.000000	nontarget	4.000000	na
43.465710	0.050009	45.000000	nontarget	5.000000	na
43.515718	0.050595	45.000000	nontarget	6.000000	na
43.566313	0.049221	45.000000	nontarget	7.000000	na
43.615534	0.050455	45.000000	nontarget	8.000000	na
43.665990	0.049718	45.000000	nontarget	9.000000	na
43.715707	0.050577	45.000000	nontarget	10.000000	na
43.766284	0.050026	45.000000	nontarget	11.000000	43.777665
43.816310	0.049201	45.000000	nontarget	12.000000	na
43.865511	0.050631	45.000000	nontarget	13.000000	na
43.916141	0.049916	45.000000	nontarget	14.000000	na
43.966058	0.050496	45.000000	nontarget	15.000000	na
44.016553	0.049587	45.000000	nontarget	16.000000	na
44.066140	0.049511	46.000000	nontarget	1.000000	na
44.115651	0.050538	46.000000	nontarget	2.000000	na
44.166189	0.049794	46.000000	nontarget	3.000000	na
44.215984	0.050297	46.000000	nontarget	4.000000	na
44.266280	0.049396	46.000000	nontarget	5.000000	na
44.315677	0.050226	46.000000	nontarget	6.000000	na
44.365903	0.050378	46.000000	nontarget	7.000000	na
44.416280	0.049389	46.000000	nontarget	8.000000	na
44.465669	0.049876	46.000000	nontarget	9.000000	na
44.515545	0.050667	46.000000	nontarget	10.000000	na
44.566212	0.049450	46.000000	nontarget	11.000000	na
44.615663	0.049724	46.000000	nontarget	12.000000	na
44.665387	0.050700	46.000000	nontarget	13.000000	44.671932
44.716087	0.049596	46.000000	nontarget	14.000000	na
44.765683	0.049935	46.000000	nontarget	15.000000	na
44.815618	0.050019	46.000000	nontarget	16.000000	na
44.865637	0.050643	47.000000	nontarget	1.000000	na
44.916280	0.050030	47.000000	nontarget	2.000000	na
44.966310	0.050248	47.000000	nontarget	3.000000	na
45.016558	0.049751	47.000000	nontarget	4.000000	na
45.066308	0.049839	47.000000	nontarget	5.000000	na
45.116147	0.049701	47.000000	nontarget	6.000000	na
45.165849	0.049699	47.000000	nontarget	7.000000	na
45.215548	0.050728	47.000000	nontarget	8.000000	na
45.266276	0.050015	47.000000	nontarget	9.000000	na
45.316291	0.049306	47.000000	nontarget	10.000000	na
45.365597	0.050705	47.000000	nontarget	11.000000	na
45.416302	0.049543	47.000000	nontarget	12.000000	na
45.465845	0.049741	47.000000	nontarget	13.000000	na
45.515585	0.049998	47.000000	nontarget	14.000000	na
45.565583	0.049941	47.000000	nontarget	15.000000	na
45.615525	0.050760	47.000000	nontarget	16.000000	45.631208
45.666285	0.049266	48.000000	nontarget	1.000000	45.672819
45.715551	0.050034	48.000000	nontarget	2.000000	na
45.765585	0.049973	48.000000	nontarget	3.000000	na
45.815558	0.049849	48.000000	nontarget	4.000000	na
45.865406	0.051106	48.000000	nontarget	5.000000	na
45.916512	0.049240	48.000000	nontarget	6.000000	na
45.965752	0.050577	48.000000	nontarget	7.000000	na
46.016329	0.049216	48.000000	nontarget	8.000000	na
46.065544	0.050739	48.000000	nontarget	9.000000	na
46.116283	0.049329	48.000000	nontarget	10.000000	na
46.165613	0.049917	48.000000	nontarget	11.000000	na
46.215529	0.049967	48.000000	nontarget	12.000000	na
46.265497	0.050785	48.000000	nontarget	13.000000	na
46.316282	0.049926	48.000000	nontarget	14.000000	na
46.366208	0.049580	48.000000	nontarget	15.000000	na
46.415788	0.050447	48.000000	nontarget	16.000000	na
46.466235	0.049334	49.000000	nontarget	1.000000	na
46.515569	0.050525	49.000000	nontarget	2.000000	na
46.566094	0.049778	49.000000	nontarget	3.000000	na
46.615872	0.049615	49.000000	nontarget	4.000000	46.635676
46.665487	0.050029	49.000000	nontarget	5.000000	na
46.715516	0.050722	49.000000	nontarget	6.000000	na
46.766238	0.049201	49.000000	nontarget	7.000000	na
46.815439	0.050028	49.000000	nontarget	8.000000	na
46.865467	0.050801	49.000000	nontarget	9.000000	na
46.916267	0.049195	49.000000	nontarget	10.000000	na
46.965463	0.050791	49.000000	nontarget	11.000000	na
47.016254	0.049997	49.000000	nontarget	12.000000	na
47.066251	0.049111	49.000000	nontarget	13.000000	na
47.115362	0.050905	49.000000	nontarget	14.000000	na
47.166267	0.049201	49.000000	nontarget	15.000000	na
47.215467	0.050793	49.000000	nontarget	16.000000	na
47.266260	0.050029	50.000000	nontarget	1.000000	na
47.316289	0.049175	50.000000	nontarget	2.000000	na
47.365463	0.049976	50.000000	nontarget	3.000000	na
47.415439	0.049998	50.000000	nontarget	4.000000	na
47.465437	0.050111	50.000000	nontarget	5.000000	na
47.515548	0.049908	50.000000	nontarget	6.000000	na
47.565456	0.050805	50.000000	nontarget	7.000000	na
47.616262	0.049983	50.000000	nontarget	8.000000	47.647147
47.666244	0.050016	50.000000	nontarget	9.000000	na
47.716261	0.049954	50.000000	nontarget	10.000000	na
47.766215	0.050004	50.000000	nontarget	11.000000	na
47.816219	0.050000	50.000000	nontarget	12.000000	na
47.866219	0.049766	50.000000	nontarget	13.000000	na
47.915985	0.049557	50.000000	nontarget	14.000000	na
47.965542	0.050733	50.000000	nontarget	15.000000	na
48.016275	0.049104	50.000000	nontarget	16.000000	na
48.065379	0.051067	51.000000	nontarget	1.000000	na
48.116446	0.049663	51.000000	nontarget	2.000000	na
48.166109	0.049332	51.000000	nontarget	3.000000	na
48.215441	0.050846	51.000000	nontarget	4.000000	na
48.266287	0.049922	51.000000	nontarget	5.000000	na
48.316210	0.049320	51.000000	nontarget	6.000000	na
48.365530	0.049887	51.000000	nontarget	7.000000	na
48.415417	0.050231	51.000000	nontarget	8.000000	na
48.465648	0.049738	51.000000	nontarget	9.000000	na
48.515386	0.050860	51.000000	nontarget	10.000000	na
48.566245	0.049989	51.000000	nontarget	11.000000	na
48.616234	0.049941	51.000000	nontarget	12.000000	na
48.666175	0.050040	51.000000	nontarget	13.000000	na
48.716216	0.049141	51.000000	nontarget	14.000000	na
48.765356	0.049958	51.000000	nontarget	15.000000	na
48.815314	0.050913	51.000000	nontarget	16.000000	48.847323
48.866227	0.049996	52.000000	nontarget	1.000000	48.872907
48.916224	0.049509	52.000000	nontarget	2.000000	na
48.965733	0.049691	52.000000	nontarget	3.000000	na
49.015424	0.050504	52.000000	nontarget	4.000000	na
49.065928	0.050429	52.000000	nontarget	5.000000	na
49.116357	0.049100	52.000000	nontarget	6.000000	na
49.165457	0.050767	52.000000	nontarget	7.000000	na
49.216223	0.050006	52.000000	nontarget	8.000000	na
49.266229	0.050000	52.000000	nontarget	9.000000	na
49.316229	0.050173	52.000000	nontarget	10.000000	na
49.366402	0.049845	52.000000	nontarget	11.000000	na
49.416247	0.049560	52.000000	nontarget	12.000000	na
49.465806	0.049537	52.000000	nontarget	13.000000	na
49.515343	0.050686	52.000000	nontarget	14.000000	na
49.566030	0.050202	52.000000	nontarget	15.000000	na
49.616232	0.049475	52.000000	nontarget	16.000000	na
49.665707	0.050686	53.000000	nontarget	1.000000	49.681097
49.716393	0.049354	53.000000	nontarget	2.000000	na
49.765747	0.050656	53.000000	nontarget	3.000000	na
49.816403	0.048890	53.000000	nontarget	4.000000	na
49.865293	0.050577	53.000000	nontarget	5.000000	na
49.915870	0.049978	53.000000	nontarget	6.000000	na
49.965848	0.049467	53.000000	nontarget	7.000000	na
50.015314	0.050896	53.000000	nontarget	8.000000	na
50.066211	0.049991	53.000000	nontarget	9.000000	na
50.116202	0.049076	53.000000	nontarget	10.000000	na
50.165277	0.050544	53.000000	nontarget	11.000000	na
50.215821	0.050182	53.000000	nontarget	12.000000	na
50.266003	0.050218	53.000000	nontarget	13.000000	na
50.316222	0.049839	53.000000	nontarget	14.000000	na
50.366060	0.050180	53.000000	nontarget	15.000000	na
50.416241	0.049949	53.000000	nontarget	16.000000	na
50.466190	0.050337	54.000000	nontarget	1.000000	na
50.516527	0.049903	54.000000	nontarget	2.000000	na
50.566430	0.049741	54.000000	nontarget	3.000000	na
50.616171	0.049418	54.000000	nontarget	4.000000	na
50.665589	0.049998	54.000000	nontarget	5.000000	na
50.715587	0.050283	54.000000	nontarget	6.000000	na
50.765870	0.050631	54.000000	nontarget	7.000000	50.772311
50.816501	0.049545	54.000000	nontarget	8.000000	na
50.866047	0.049684	54.000000	nontarget	9.000000	na
50.915731	0.050050	54.000000	nontarget	10.000000	na
50.965781	0.050473	54.000000	nontarget	11.000000	na
51.016253	0.049936	54.000000	nontarget	12.000000	na
51.066190	0.050270	54.000000	nontarget	13.000000	na
51.116460	0.049731	54.000000	nontarget	14.000000	na
51.166190	0.050298	54.000000	nontarget	15.000000	na
51.216489	0.049405	54.000000	nontarget	16.000000	na
51.265894	0.050331	55.000000	nontarget	1.000000	na
51.316225	0.049947	55.000000	nontarget	2.000000	na
51.366171	0.050077	55.000000	nontarget	3.000000	na
51.416248	0.049500	55.000000	nontarget	4.000000	na
51.465749	0.049888	55.000000	nontarget	5.000000	na
51.515636	0.050482	55.000000	nontarget	6.000000	na
51.566119	0.050094	55.000000	nontarget	7.000000	na
51.616213	0.049957	55.000000	nontarget	8.000000	na
51.666170	0.050289	55.000000	nontarget	9.000000	na
51.716459	0.049735	55.000000	nontarget	10.000000	na
51.766194	0.050266	55.000000	nontarget	11.000000	na
51.816461	0.049914	55.000000	nontarget	12.000000	51.852731
51.866375	0.050043	55.000000	nontarget	13.000000	na
51.916418	0.049767	55.000000	nontarget	14.000000	na
51.966185	0.049471	55.000000	nontarget	15.000000	na
52.015656	0.050491	55.000000	nontarget	16.000000	na
52.066146	0.050104	56.000000	nontarget	1.000000	na
52.116251	0.049823	56.000000	nontarget	2.000000	na
52.166073	0.050105	56.000000	nontarget	3.000000	na
52.216179	0.050007	56.000000	nontarget	4.000000	na
52.266185	0.049936	56.000000	nontarget	5.000000	na
52.316121	0.050029	56.000000	nontarget	6.000000	na
52.366151	0.049332	56.000000	nontarget	7.000000	na
52.415482	0.050899	56.000000	nontarget	8.000000	na
52.466382	0.049317	56.000000	nontarget	9.000000	na
52.515698	0.050495	56.000000	nontarget	10.000000	na
52.566193	0.049975	56.000000	nontarget	11.000000	na
52.616168	0.050121	56.000000	nontarget	12.000000	na
52.666288	0.049870	56.000000	nontarget	13.000000	na
52.716158	0.049535	56.000000	nontarget	14.000000	na
52.765693	0.050917	56.000000	nontarget	15.000000	na
52.816610	0.049537	56.000000	nontarget	16.000000	na
52.866147	0.049918	57.000000	nontarget	1.000000	na
52.916065	0.049633	57.000000	nontarget	2.000000	na
52.965698	0.050665	57.000000	nontarget	3.000000	52.972280
53.016363	0.049264	57.000000	nontarget	4.000000	na
53.065627	0.050461	57.000000	nontarget	5.000000	na
53.116088	0.050398	57.000000	nontarget	6.000000	na
53.166486	0.049900	57.000000	nontarget	7.000000	na
53.216386	0.049940	57.000000	nontarget	8.000000	na
53.266326	0.049860	57.000000	nontarget	9.000000	na
53.316186	0.050242	57.000000	nontarget	10.000000	na
53.366428	0.049820	57.000000	nontarget	11.000000	na
53.416248	0.050235	57.000000	nontarget	12.000000	na
53.466483	0.049812	57.000000	nontarget	13.000000	na
53.516295	0.049973	57.000000	nontarget	14.000000	na
53.566268	0.049775	57.000000	nontarget	15.000000	na
53.616044	0.050196	57.000000	nontarget	16.000000	na
53.666239	0.049417	58.000000	nontarget	1.000000	na
53.715656	0.050763	58.000000	nontarget	2.000000	na
53.766420	0.049743	58.000000	nontarget	3.000000	na
53.816163	0.049953	58.000000	nontarget	4.000000	na
53.866116	0.049553	58.000000	nontarget	5.000000	na
53.915669	0.050561	58.000000	nontarget	6.000000	53.946751
53.966230	0.050342	58.000000	nontarget	7.000000	na
54.016572	0.049343	58.000000	nontarget	8.000000	na
54.065915	0.050619	58.000000	nontarget	9.000000	na
54.116534	0.049656	58.000000	nontarget	10.000000	na
54.166191	0.050016	58.000000	nontarget	11.000000	na
54.216207	0.049719	58.000000	nontarget	12.000000	na
54.265926	0.050121	58.000000	nontarget	13.000000	na
54.316047	0.050214	58.000000	nontarget	14.000000	na
54.366261	0.049565	58.000000	nontarget	15.000000	na
54.415826	0.050099	58.000000	nontarget	16.000000	na
54.465925	0.049988	59.000000	nontarget	1.000000	na
54.515913	0.050051	59.000000	nontarget	2.000000	na
54.565964	0.050430	59.000000	nontarget	3.000000	na
54.616394	0.049905	59.000000	nontarget	4.000000	na
54.666299	0.050116	59.000000	nontarget	5.000000	na
54.716415	0.049937	59.000000	nontarget	6.000000	na
54.766352	0.050250	59.000000	nontarget	7.000000	na
54.816602	0.049087	59.000000	nontarget	8.000000	54.836161
54.865689	0.050430	59.000000	nontarget	9.000000	na
54.916119	0.050160	59.000000	nontarget	10.000000	na
54.966279	0.050003	59.000000	nontarget	11.000000	na
55.016282	0.049701	59.000000	nontarget	12.000000	na
55.065983	0.049638	59.000000	nontarget	13.000000	na
55.115621	0.050469	59.000000	nontarget	14.000000	na
55.166091	0.050022	59.000000	nontarget	15.000000	na
55.216112	0.049986	59.000000	nontarget	16.000000	na
55.266098	0.050417	60.000000	nontarget	1.000000	na
55.316515	0.049642	60.000000	nontarget	2.000000	na
55.366157	0.050127	60.000000	nontarget	3.000000	na
55.416285	0.049856	60.000000	nontarget	4.000000	na
55.466141	0.050005	60.000000	nontarget	5.000000	na
55.516146	0.050101	60.000000	nontarget	6.000000	na
55.566246	0.049117	60.000000	nontarget	7.000000	na
55.615364	0.050470	60.000000	nontarget	8.000000	na
55.665833	0.050139	60.000000	nontarget	9.000000	na
55.715972	0.050322	60.000000	nontarget	10.000000	na
55.766294	0.049836	60.000000	nontarget	11.000000	na
55.816130	0.049995	60.000000	nontarget	12.000000	na
55.866124	0.049320	60.000000	nontarget	13.000000	na
55.915444	0.050674	60.000000	nontarget	14.000000	55.921992
55.966117	0.050031	60.000000	nontarget	15.000000	na
56.016148	0.049965	60.000000	nontarget	16.000000	na
56.066114	0.050003	61.000000	nontarget	1.000000	na
56.116116	0.050052	61.000000	nontarget	2.000000	na
56.166168	0.049694	61.000000	nontarget	3.000000	na
56.215863	0.049846	61.000000	nontarget	4.000000	na
56.265708	0.050090	61.000000	nontarget	5.000000	na
56.315799	0.049980	61.000000	nontarget	6.000000	na
56.365778	0.050359	61.000000	nontarget	7.000000	na
56.416138	0.049277	61.000000	nontarget	8.000000	na
56.465415	0.050400	61.000000	nontarget	9.000000	na
56.515815	0.050331	61.000000	nontarget	10.000000	na
56.566146	0.049713	61.000000	nontarget	11.000000	na
56.615859	0.050407	61.000000	nontarget	12.000000	na
56.666266	0.048969	61.000000	nontarget	13.000000	na
56.715235	0.050545	61.000000	nontarget	14.000000	na
56.765780	0.050449	61.000000	nontarget	15.000000	na
56.816228	0.049829	61.000000	nontarget	16.000000	na
56.866058	0.050128	62.000000	nontarget	1.000000	na
56.916185	0.049257	62.000000	nontarget	2.000000	56.924802
56.965442	0.049899	62.000000	nontarget	3.000000	na
57.015341	0.050599	62.000000	nontarget	4.000000	na
57.065940	0.050369	62.000000	nontarget	5.000000	na
57.116309	0.049716	62.000000	nontarget	6.000000	na
57.166024	0.050092	62.000000	nontarget	7.000000	na
57.216117	0.049780	62.000000	nontarget	8.000000	na
57.265897	0.050348	62.000000	nontarget	9.000000	na
57.316244	0.049691	62.000000	nontarget	10.000000	na
57.365935	0.049914	62.000000	nontarget	11.000000	na
57.415849	0.049972	62.000000	nontarget	12.000000	na
57.465821	0.050122	62.000000	nontarget	13.000000	na
57.515944	0.050184	62.000000	nontarget	14.000000	na
57.566128	0.049313	62.000000	nontarget	15.000000	na
57.615441	0.049994	62.000000	nontarget	16.000000	na
57.665435	0.050695	63.000000	nontarget	1.000000	na
57.716130	0.050080	63.000000	nontarget	2.000000	na
57.766210	0.049822	63.000000	nontarget	3.000000	na
57.816032	0.050089	63.000000	nontarget	4.000000	na
57.866121	0.049286	63.000000	nontarget	5.000000	na
57.915407	0.050812	63.000000	nontarget	6.000000	na
57.966219	0.049905	63.000000	nontarget	7.000000	na
58.016125	0.049901	63.000000	nontarget	8.000000	na
58.066026	0.050044	63.000000	nontarget	9.000000	58.099342
58.116070	0.049315	63.000000	nontarget	10.000000	na
58.165385	0.050232	63.000000	nontarget	11.000000	na
58.215616	0.050606	63.000000	nontarget	12.000000	na
58.266223	0.050032	63.000000	nontarget	13.000000	na
58.316255	0.049735	63.000000	nontarget	14.000000	na
58.365990	0.049556	63.000000	nontarget	15.000000	na
58.415546	0.050244	63.000000	nontarget	16.000000	na
58.465790	0.050292	64.000000	target	1.000000	na
58.516081	0.050022	64.000000	target	2.000000	na
58.566104	0.049914	64.000000	target	3.000000	na
58.616018	0.049990	64.000000	target	4.000000	na
58.666008	0.050083	64.000000	target	5.000000	na
58.716091	0.049892	64.000000	target	6.000000	na
58.765983	0.049378	64.000000	target	7.000000	na
58.815361	0.050410	64.000000	target	8.000000	na
58.865772	0.049602	64.000000	target	9.000000	na
58.915374	0.050221	64.000000	target	10.000000	na
58.965595	0.050742	64.000000	target	11.000000	na
59.016337	0.048789	64.000000	target	12.000000	na
59.065126	0.050621	64.000000	target	13.000000	na
59.115747	0.050274	64.000000	target	14.000000	na
59.166021	0.050002	64.000000	target	15.000000	na
59.216023	0.050098	64.000000	target	16.000000	59.235375
59.266121	0.049872	65.000000	nontarget	1.000000	59.272605
59.315994	0.049830	65.000000	nontarget	2.000000	na
59.365824	0.049875	65.000000	nontarget	3.000000	na
59.415699	0.050293	65.000000	nontarget	4.000000	na
59.465992	0.050120	65.000000	nontarget	5.000000	na
59.516112	0.049946	65.000000	nontarget	6.000000	na
59.566058	0.049935	65.000000	nontarget	7.000000	na
59.615993	0.049834	65.000000	nontarget	8.000000	na
59.665828	0.049771	65.000000	nontarget	9.000000	na
59.715599	0.049664	65.000000	nontarget	10.000000	na
59.765263	0.050809	65.000000	nontarget	11.000000	na
59.816072	0.049641	65.000000	nontarget	12.000000	na
59.865713	0.050283	65.000000	nontarget	13.000000	na
59.915996	0.049593	65.000000	nontarget	14.000000	na
59.965589	0.049635	65.000000	nontarget	15.000000	na
60.015224	0.050171	65.000000	nontarget	16.000000	na
60.065395	0.050171	66.000000	nontarget	1.000000	na
60.115566	0.050058	66.000000	nontarget	2.000000	na
60.165625	0.049730	66.000000	nontarget	3.000000	na
60.215355	0.050343	66.000000	nontarget	4.000000	na
60.265697	0.050023	66.000000	nontarget	5.000000	60.290407
60.315721	0.050215	66.000000	nontarget	6.000000	na
60.365936	0.049365	66.000000	nontarget	7.000000	na
60.415301	0.050529	66.000000	nontarget	8.000000	na
60.465829	0.049855	66.000000	nontarget	9.000000	na
60.515685	0.050417	66.000000	nontarget	10.000000	na
60.566101	0.049432	66.000000	nontarget	11.000000	na
60.615533	0.050114	66.000000	nontarget	12.000000	na
60.665648	0.050443	66.000000	nontarget	13.000000	na
60.716090	0.049420	66.000000	nontarget	14.000000	na
60.765510	0.050419	66.000000	nontarget	15.000000	na
60.815929	0.049449	66.000000	nontarget	16.000000	na
60.865378	0.050761	67.000000	nontarget	1.000000	na
60.916139	0.049680	67.000000	nontarget	2.000000	na
60.965818	0.049497	67.000000	nontarget	3.000000	na
61.015315	0.050664	67.000000	nontarget	4.000000	na
61.065980	0.049952	67.000000	nontarget	5.000000	na
61.115932	0.049984	67.000000	nontarget	6.000000	na
61.165915	0.049416	67.000000	nontarget	7.000000	na
61.215331	0.050062	67.000000	nontarget	8.000000	na
61.265394	0.050247	67.000000	nontarget	9.000000	na
61.315640	0.050294	67.000000	nontarget	10.000000	na
61.365935	0.050216	67.000000	nontarget	11.000000	na
61.416150	0.049685	67.000000	nontarget	12.000000	na
61.465835	0.049602	67.000000	nontarget	13.000000	na
61.515437	0.050304	67.000000	nontarget	14.000000	61.522017
61.565741	0.050299	67.000000	nontarget	15.000000	na
61.616040	0.048923	67.000000	nontarget	16.000000	na
61.664963	0.050958	68.000000	target	1.000000	61.671381
61.715921	0.050053	68.000000	target	2.000000	na
61.765974	0.049436	68.000000	target	3.000000	na
61.815410	0.050329	68.000000	target	4.000000	na
61.865739	0.049540	68.000000	target	5.000000	na
61.915279	0.049828	68.000000	target	6.000000	na
61.965107	0.050155	68.000000	target	7.000000	na
62.015262	0.050589	68.000000	target	8.000000	na
62.065851	0.049821	68.000000	target	9.000000	na
62.115672	0.050118	68.000000	target	10.000000	na
62.165790	0.049990	68.000000	target	11.000000	na
62.215779	0.050053	68.000000	target	12.000000	na
62.265832	0.049797	68.000000	target	13.000000	na
62.315630	0.050290	68.000000	target	14.000000	na
62.365919	0.049778	68.000000	target	15.000000	na
62.415697	0.050105	68.000000	target	16.000000	na
62.465803	0.049368	69.000000	nontarget	1.000000	na
62.515171	0.050668	69.000000	nontarget	2.000000	na
62.565839	0.049970	69.000000	nontarget	3.000000	na
62.615809	0.049987	69.000000	nontarget	4.000000	na
62.665796	0.050154	69.000000	nontarget	5.000000	na
62.715950	0.050003	69.000000	nontarget	6.000000	na
62.765953	0.049408	69.000000	nontarget	7.000000	na
62.815360	0.050415	69.000000	nontarget	8.000000	62.826541
62.865775	0.049752	69.000000	nontarget	9.000000	na
62.915527	0.049536	69.000000	nontarget	10.000000	na
62.965064	0.050188	69.000000	nontarget	11.000000	na
63.015252	0.050416	69.000000	nontarget	12.000000	na
63.065668	0.049715	69.000000	nontarget	13.000000	na
63.115383	0.050333	69.000000	nontarget	14.000000	na
63.165716	0.050238	69.000000	nontarget	15.000000	na
63.215954	0.049803	69.000000	nontarget	16.000000	na
63.265757	0.050245	70.000000	nontarget	1.000000	na
63.316002	0.049742	70.000000	nontarget	2.000000	na
63.365745	0.050332	70.000000	nontarget	3.000000	na
63.416076	0.049650	70.000000	nontarget	4.000000	na
63.465726	0.049895	70.000000	nontarget	5.000000	na
63.515621	0.050055	70.000000	nontarget	6.000000	na
63.565676	0.049661	70.000000	nontarget	7.000000	na
63.615337	0.050293	70.000000	nontarget	8.000000	na
63.665630	0.050152	70.000000	nontarget	9.000000	na
63.715781	0.049858	70.000000	nontarget	10.000000	na
63.765639	0.050327	70.000000	nontarget	11.000000	na
63.815966	0.050097	70.000000	nontarget	12.000000	na
63.866063	0.049637	70.000000	nontarget	13.000000	na
63.915700	0.049449	70.000000	nontarget	14.000000	na
63.965149	0.050092	70.000000	nontarget	15.000000	na
64.015241	0.050109	70.000000	nontarget	16.000000	na
64.065350	0.050360	71.000000	nontarget	1.000000	na
64.115710	0.049286	71.000000	nontarget	2.000000	na
64.164997	0.050686	71.000000	nontarget	3.000000	64.185197
64.215683	0.050025	71.000000	nontarget	4.000000	na
64.265708	0.049979	71.000000	nontarget	5.000000	na
64.315688	0.049966	71.000000	nontarget	6.000000	na
64.365654	0.049679	71.000000	nontarget	7.000000	na
64.415333	0.050671	71.000000	nontarget	8.000000	na
64.466003	0.049241	71.000000	nontarget	9.000000	na
64.515244	0.050246	71.000000	nontarget	10.000000	na
64.565490	0.050391	71.000000	nontarget	11.000000	na
64.615881	0.049528	71.000000	nontarget	12.000000	na
64.665409	0.050250	71.000000	nontarget	13.000000	na
64.715658	0.049288	71.000000	nontarget	14.000000	na
64.764947	0.050746	71.000000	nontarget	15.000000	na
64.815693	0.049948	71.000000	nontarget	16.000000	na
64.865641	0.049372	72.000000	nontarget	1.000000	na
64.915014	0.050746	72.000000	nontarget	2.000000	na
64.965760	0.049553	72.000000	nontarget	3.000000	na
65.015312	0.050680	72.000000	nontarget	4.000000	na
65.065992	0.049797	72.000000	nontarget	5.000000	na
65.115789	0.049361	72.000000	nontarget	6.000000	65.150688
65.165150	0.050176	72.000000	nontarget	7.000000	na
65.215326	0.050424	72.000000	nontarget	8.000000	na
65.265750	0.049712	72.000000	nontarget	9.000000	na
65.315462	0.050154	72.000000	nontarget	10.000000	na
65.365617	0.049994	72.000000	nontarget	11.000000	na
65.415610	0.049942	72.000000	nontarget	12.000000	na
65.465553	0.049835	72.000000	nontarget	13.000000	na
65.515388	0.049960	72.000000	nontarget	14.000000	na
65.565348	0.049362	72.000000	nontarget	15.000000	na
65.614709	0.050871	72.000000	nontarget	16.000000	na
65.665580	0.049988	73.000000	nontarget	1.000000	na
65.715568	0.049448	73.000000	nontarget	2.000000	na
65.765016	0.050566	73.000000	nontarget	3.000000	na
65.815582	0.050303	73.000000	nontarget	4.000000	na
65.865884	0.049148	73.000000	nontarget	5.000000	na
65.915032	0.050267	73.000000	nontarget	6.000000	na
65.965299	0.049945	73.000000	nontarget	7.000000	na
66.015244	0.050460	73.000000	nontarget	8.000000	na
66.065704	0.050281	73.000000	nontarget	9.000000	66.072312
66.115986	0.049023	73.000000	nontarget	10.000000	na
66.165009	0.050572	73.000000	nontarget	11.000000	na
66.215581	0.049492	73.000000	nontarget	12.000000	na
66.265073	0.050907	73.000000	nontarget	13.000000	na
66.315980	0.049968	73.000000	nontarget	14.000000	na
66.365948	0.049945	73.000000	nontarget	15.000000	na
66.415893	0.049590	73.000000	nontarget	16.000000	na
66.465483	0.049860	74.000000	nontarget	1.000000	na
66.515343	0.050601	74.000000	nontarget	2.000000	na
66.565944	0.049713	74.000000	nontarget	3.000000	na
66.615657	0.049871	74.000000	nontarget	4.000000	na
66.665528	0.050052	74.000000	nontarget	5.000000	na
66.715580	0.050297	74.000000	nontarget	6.000000	na
66.765876	0.050060	74.000000	nontarget	7.000000	na
66.815936	0.049062	74.000000	nontarget	8.000000	na
66.864998	0.050460	74.000000	nontarget	9.000000	na
66.915458	0.049720	74.000000	nontarget	10.000000	na
66.965178	0.050090	74.000000	nontarget	11.000000	na
67.015268	0.050688	74.000000	nontarget	12.000000	na
67.065956	0.049558	74.000000	nontarget	13.000000	na
67.115513	0.049931	74.000000	nontarget	14.000000	67.122114
67.165445	0.050485	74.000000	nontarget	15.000000	na
67.215929	0.049994	74.000000	nontarget	16.000000	na
67.265923	0.049256	75.000000	nontarget	1.000000	67.272509
67.315179	0.050034	75.000000	nontarget	2.000000	na
67.365213	0.050268	75.000000	nontarget	3.000000	na
67.415481	0.050349	75.000000	nontarget	4.000000	na
67.465829	0.049271	75.000000	nontarget	5.000000	na
67.515101	0.050339	75.000000	nontarget	6.000000	na
67.565440	0.049462	75.000000	nontarget	7.000000	na
67.614902	0.049980	75.000000	nontarget	8.000000	na
67.664882	0.050852	75.000000	nontarget	9.000000	na
67.715734	0.050201	75.000000	nontarget	10.000000	na
67.765935	0.049536	75.000000	nontarget	11.000000	na
67.815471	0.050401	75.000000	nontarget	12.000000	na
67.865872	0.049755	75.000000	nontarget	13.000000	na
67.915627	0.049030	75.000000	nontarget	14.000000	na
67.964657	0.050731	75.000000	nontarget	15.000000	na
68.015388	0.049236	75.000000	nontarget	16.000000	na
68.064624	0.050344	76.000000	nontarget	1.000000	68.071192
68.114969	0.050693	76.000000	nontarget	2.000000	na
68.165662	0.049225	76.000000	nontarget	3.000000	na
68.214886	0.050705	76.000000	nontarget	4.000000	na
68.265592	0.049382	76.000000	nontarget	5.000000	na
68.314974	0.049677	76.000000	nontarget	6.000000	na
68.364650	0.050652	76.000000	nontarget	7.000000	na
68.415303	0.050307	76.000000	nontarget	8.000000	na
68.465610	0.049801	76.000000	nontarget	9.000000	na
68.515411	0.049844	76.000000	nontarget	10.000000	na
68.565255	0.050170	76.000000	nontarget	11.000000	na
68.615425	0.050140	76.000000	nontarget	12.000000	na
68.665565	0.049424	76.000000	nontarget	13.000000	na
68.714988	0.049876	76.000000	nontarget	14.000000	na
68.764864	0.050298	76.000000	nontarget	15.000000	na
68.815163	0.049455	76.000000	nontarget	16.000000	na
68.864618	0.050585	77.000000	nontarget	1.000000	na
68.915203	0.050085	77.000000	nontarget	2.000000	na
68.965288	0.050123	77.000000	nontarget	3.000000	na
69.015411	0.049659	77.000000	nontarget	4.000000	na
69.065071	0.049964	77.000000	nontarget	5.000000	na
69.115035	0.049587	77.000000	nontarget	6.000000	69.121610
69.164622	0.050333	77.000000	nontarget	7.000000	na
69.214955	0.050572	77.000000	nontarget	8.000000	na
69.265526	0.049742	77.000000	nontarget	9.000000	na
69.315269	0.050099	77.000000	nontarget	10.000000	na
69.365368	0.049530	77.000000	nontarget	11.000000	na
69.414897	0.050454	77.000000	nontarget	12.000000	na
69.465352	0.049266	77.000000	nontarget	13.000000	na
69.514618	0.050752	77.000000	nontarget	14.000000	na
69.565369	0.049814	77.000000	nontarget	15.000000	na
69.615183	0.050333	77.000000	nontarget	16.000000	na
69.665517	0.049107	78.000000	nontarget	1.000000	na
69.714624	0.050453	78.000000	nontarget	2.000000	na
69.765077	0.049899	78.000000	nontarget	3.000000	na
69.814976	0.050338	78.000000	nontarget	4.000000	na
69.865315	0.049290	78.000000	nontarget	5.000000	na
69.914605	0.050024	78.000000	nontarget	6.000000	na
69.964629	0.049991	78.000000	nontarget	7.000000	na
70.014620	0.049992	78.000000	nontarget	8.000000	70.021241
70.064612	0.050761	78.000000	nontarget	9.000000	na
70.115373	0.049255	78.000000	nontarget	10.000000	na
70.164628	0.050574	78.000000	nontarget	11.000000	na
70.215202	0.050341	78.000000	nontarget	12.000000	na
70.265543	0.049198	78.000000	nontarget	13.000000	na
70.314741	0.049884	78.000000	nontarget	14.000000	na
70.364625	0.050449	78.000000	nontarget	15.000000	na
70.415074	0.050234	78.000000	nontarget	16.000000	na
70.465308	0.049590	79.000000	nontarget	1.000000	na
70.514897	0.050388	79.000000	nontarget	2.000000	na
70.565285	0.049341	79.000000	nontarget	3.000000	na
70.614626	0.049994	79.000000	nontarget	4.000000	na
70.664619	0.050768	79.000000	nontarget	5.000000	na
70.715388	0.048960	79.000000	nontarget	6.000000	na
70.764347	0.050255	79.000000	nontarget	7.000000	na
70.814602	0.050679	79.000000	nontarget	8.000000	na
70.865281	0.049927	79.000000	nontarget	9.000000	na
70.915209	0.049495	79.000000	nontarget	10.000000	na
70.964703	0.050563	79.000000	nontarget	11.000000	70.971154
71.015267	0.050019	79.000000	nontarget	12.000000	na
71.065286	0.049995	79.000000	nontarget	13.000000	na
71.115281	0.049923	79.000000	nontarget	14.000000	na
71.165204	0.049806	79.000000	nontarget	15.000000	na
71.215010	0.050164	79.000000	nontarget	16.000000	na
71.265174	0.050292	80.000000	nontarget	1.000000	na
71.315466	0.049120	80.000000	nontarget	2.000000	na
71.364586	0.050389	80.000000	nontarget	3.000000	na
71.414975	0.049587	80.000000	nontarget	4.000000	na
71.464562	0.050680	80.000000	nontarget	5.000000	na
71.515242	0.049362	80.000000	nontarget	6.000000	na
71.564603	0.050603	80.000000	nontarget	7.000000	na
71.615207	0.049407	80.000000	nontarget	8.000000	na
71.664614	0.050470	80.000000	nontarget	9.000000	na
71.715084	0.050319	80.000000	nontarget	10.000000	na
71.765402	0.049777	80.000000	nontarget	11.000000	na
71.815179	0.049458	80.000000	nontarget	12.000000	na
71.864637	0.049950	80.000000	nontarget	13.000000	na
71.914588	0.050470	80.000000	nontarget	14.000000	71.934980
71.965058	0.050397	80.000000	nontarget	15.000000	na
72.015455	0.049881	80.000000	nontarget	16.000000	na
72.065336	0.048963	81.000000	nontarget	1.000000	72.071916
72.114298	0.050754	81.000000	nontarget	2.000000	na
72.165052	0.049590	81.000000	nontarget	3.000000	na
72.214642	0.050407	81.000000	nontarget	4.000000	na
72.265049	0.050163	81.000000	nontarget	5.000000	na
72.315212	0.049829	81.000000	nontarget	6.000000	na
72.365041	0.050163	81.000000	nontarget	7.000000	na
72.415204	0.049785	81.000000	nontarget	8.000000	na
72.464989	0.049570	81.000000	nontarget	9.000000	na
72.514559	0.050570	81.000000	nontarget	10.000000	na
72.565129	0.049989	81.000000	nontarget	11.000000	na
72.615118	0.049804	81.000000	nontarget	12.000000	na
72.664922	0.049626	81.000000	nontarget	13.000000	na
72.714548	0.051127	81.000000	nontarget	14.000000	na
72.765675	0.049459	81.000000	nontarget	15.000000	na
72.815134	0.050091	81.000000	nontarget	16.000000	na
72.865225	0.049324	82.000000	target	1.000000	na
72.914549	0.050631	82.000000	target	2.000000	na
72.965180	0.050241	82.000000	target	3.000000	na
73.015421	0.049152	82.000000	target	4.000000	na
73.064573	0.050590	82.000000	target	5.000000	na
73.115163	0.049873	82.000000	target	6.000000	na
73.165037	0.049848	82.000000	target	7.000000	na
73.214885	0.049671	82.000000	target	8.000000	na
73.264556	0.050363	82.000000	target	9.000000	na
73.314919	0.049690	82.000000	target	10.000000	na
73.364609	0.050725	82.000000	target	11.000000	na
73.415334	0.049791	82.000000	target	12.000000	na
73.465126	0.049425	82.000000	target	13.000000	na
73.514550	0.050523	82.000000	target	14.000000	na
73.565073	0.050019	82.000000	target	15.000000	na
73.615092	0.049496	82.000000	target	16.000000	73.626156
73.664588	0.050333	83.000000	nontarget	1.000000	73.671125
73.714921	0.050285	83.000000	nontarget	2.000000	na
73.765206	0.049886	83.000000	nontarget	3.000000	na
73.815091	0.049306	83.000000	nontarget	4.000000	na
73.864397	0.050111	83.000000	nontarget	5.000000	na
73.914508	0.050807	83.000000	nontarget	6.000000	na
73.965315	0.048843	83.000000	nontarget	7.000000	na
74.014159	0.050906	83.000000	nontarget	8.000000	na
74.065064	0.049474	83.000000	nontarget	9.000000	na
74.114538	0.050696	83.000000	nontarget	10.000000	na
74.165234	0.049323	83.000000	nontarget	11.000000	na
74.214557	0.049979	83.000000	nontarget	12.000000	na
74.264536	0.050549	83.000000	nontarget	13.000000	na
74.315084	0.049837	83.000000	nontarget	14.000000	na
74.364922	0.049633	83.000000	nontarget	15.000000	na
74.414554	0.050319	83.000000	nontarget	16.000000	na
74.464874	0.050169	84.000000	nontarget	1.000000	na
74.515043	0.049496	84.000000	nontarget	2.000000	na
74.564539	0.050597	84.000000	nontarget	3.000000	na
74.615136	0.049396	84.000000	nontarget	4.000000	74.649535
74.664532	0.050007	84.000000	nontarget	5.000000	na
74.714539	0.050326	84.000000	nontarget	6.000000	na
74.764865	0.049233	84.000000	nontarget	7.000000	na
74.814098	0.050502	84.000000	nontarget	8.000000	na
74.864599	0.050360	84.000000	nontarget	9.000000	na
74.914959	0.049561	84.000000	nontarget	10.000000	na
74.964520	0.050613	84.000000	nontarget	11.000000	na
75.015134	0.049908	84.000000	nontarget	12.000000	na
75.065041	0.049954	84.000000	nontarget	13.000000	na
75.114995	0.049950	84.000000	nontarget	14.000000	na
75.164946	0.049601	84.000000	nontarget	15.000000	na
75.214547	0.050620	84.000000	nontarget	16.000000	na
75.265167	0.049367	85.000000	nontarget	1.000000	na
75.314534	0.050449	85.000000	nontarget	2.000000	na
75.364983	0.049984	85.000000	nontarget	3.000000	na
75.414967	0.049490	85.000000	nontarget	4.000000	na
75.464458	0.050083	85.000000	nontarget	5.000000	na
75.514541	0.050462	85.000000	nontarget	6.000000	na
75.565003	0.049815	85.000000	nontarget	7.000000	na
75.614818	0.049949	85.000000	nontarget	8.000000	na
75.664767	0.050428	85.000000	nontarget	9.000000	75.675931
75.715196	0.049802	85.000000	nontarget	10.000000	na
75.764998	0.049992	85.000000	nontarget	11.000000	na
75.814990	0.048962	85.000000	nontarget	12.000000	na
75.863951	0.051042	85.000000	nontarget	13.000000	na
75.914994	0.049266	85.000000	nontarget	14.000000	na
75.964259	0.050705	85.000000	nontarget	15.000000	na
76.014964	0.049540	85.000000	nontarget	16.000000	na
76.064504	0.050642	86.000000	target	1.000000	na
76.115147	0.049404	86.000000	target	2.000000	na
76.164550	0.050402	86.000000	target	3.000000	na
76.214953	0.049626	86.000000	target	4.000000	na
76.264578	0.050246	86.000000	target	5.000000	na
76.314824	0.049689	86.000000	target	6.000000	na
76.364513	0.049990	86.000000	target	7.000000	na
76.414503	0.050444	86.000000	target	8.000000	na
76.464946	0.049894	86.000000	target	9.000000	na
76.514840	0.049433	86.000000	target	10.000000	na
76.564273	0.049645	86.000000	target	11.000000	na
76.613918	0.050976	86.000000	target	12.000000	na
76.664894	0.049951	86.000000	target	13.000000	na
76.714846	0.049684	86.000000	target	14.000000	na
76.764530	0.050034	86.000000	target	15.000000	na
76.814564	0.049941	86.000000	target	16.000000	na
76.864505	0.050043	87.000000	nontarget	1.000000	76.894734
76.914548	0.050274	87.000000	nontarget	2.000000	na
76.964822	0.049347	87.000000	nontarget	3.000000	na
77.014169	0.050131	87.000000	nontarget	4.000000	na
77.064300	0.050274	87.000000	nontarget	5.000000	na
77.114574	0.050406	87.000000	nontarget	6.000000	na
77.164981	0.049878	87.000000	nontarget	7.000000	na
77.214858	0.049421	87.000000	nontarget	8.000000	na
77.264279	0.050451	87.000000	nontarget	9.000000	na
77.314730	0.049765	87.000000	nontarget	10.000000	na
77.364495	0.049793	87.000000	nontarget	11.000000	na
77.414288	0.049882	87.000000	nontarget	12.000000	na
77.464170	0.050603	87.000000	nontarget	13.000000	na
77.514773	0.050110	87.000000	nontarget	14.000000	na
77.564883	0.049751	87.000000	nontarget	15.000000	na
77.614634	0.049879	87.000000	nontarget	16.000000	na
77.664513	0.050141	88.000000	nontarget	1.000000	na
77.714654	0.049628	88.000000	nontarget	2.000000	na
77.764282	0.050617	88.000000	nontarget	3.000000	na
77.814899	0.050205	88.000000	nontarget	4.000000	na
77.865105	0.049192	88.000000	nontarget	5.000000	77.871301
77.914296	0.050471	88.000000	nontarget	6.000000	na
77.964767	0.049434	88.000000	nontarget	7.000000	na
78.014201	0.050332	88.000000	nontarget	8.000000	na
78.064533	0.049764	88.000000	nontarget	9.000000	na
78.114297	0.050228	88.000000	nontarget	10.000000	na
78.164525	0.050254	88.000000	nontarget	11.000000	na
78.214778	0.049560	88.000000	nontarget	12.000000	na
78.264339	0.050639	88.000000	nontarget	13.000000	na
78.314978	0.049954	88.000000	nontarget	14.000000	na
78.364932	0.049621	88.000000	nontarget	15.000000	na
78.414553	0.049915	88.000000	nontarget	16.000000	na
78.464468	0.050065	89.000000	nontarget	1.000000	na
78.514533	0.050354	89.000000	nontarget	2.000000	na
78.564887	0.049580	89.000000	nontarget	3.000000	na
78.614467	0.050018	89.000000	nontarget	4.000000	na
78.664485	0.049988	89.000000	nontarget	5.000000	na
78.714473	0.050023	89.000000	nontarget	6.000000	na
78.764496	0.050026	89.000000	nontarget	7.000000	na
78.814522	0.049927	89.000000	nontarget	8.000000	na
78.864449	0.050105	89.000000	nontarget	9.000000	na
78.914555	0.049553	89.000000	nontarget	10.000000	na
78.964107	0.050118	89.000000	nontarget	11.000000	na
79.014226	0.050476	89.000000	nontarget	12.000000	na
79.064701	0.049764	89.000000	nontarget	13.000000	79.080594
79.114465	0.050056	89.000000	nontarget	14.000000	na
79.164521	0.050014	89.000000	nontarget	15.000000	na
79.214535	0.049941	89.000000	nontarget	16.000000	na
79.264476	0.050086	90.000000	nontarget	1.000000	79.271059
79.314562	0.050102	90.000000	nontarget	2.000000	na
79.364664	0.049820	90.000000	nontarget	3.000000	na
79.414484	0.050002	90.000000	nontarget	4.000000	na
79.464486	0.050316	90.000000	nontarget	5.000000	na
79.514802	0.050089	90.000000	nontarget	6.000000	na
79.564891	0.049595	90.000000	nontarget	7.000000	na
79.614486	0.049492	90.000000	nontarget	8.000000	na
79.663978	0.050510	90.000000	nontarget	9.000000	na
79.714488	0.050359	90.000000	nontarget	10.000000	na
79.764847	0.049319	90.000000	nontarget	11.000000	na
79.814166	0.050322	90.000000	nontarget	12.000000	na
79.864488	0.049973	90.000000	nontarget	13.000000	na
79.914461	0.049845	90.000000	nontarget	14.000000	na
79.964307	0.049852	90.000000	nontarget	15.000000	na
80.014159	0.050335	90.000000	nontarget	16.000000	na
80.064494	0.049984	91.000000	nontarget	1.000000	na
80.114478	0.049982	91.000000	nontarget	2.000000	na
80.164460	0.049631	91.000000	nontarget	3.000000	na
80.214091	0.050373	91.000000	nontarget	4.000000	80.220781
80.264464	0.050004	91.000000	nontarget	5.000000	na
80.314468	0.049976	91.000000	nontarget	6.000000	na
80.364444	0.049373	91.000000	nontarget	7.000000	na
80.413817	0.050101	91.000000	nontarget	8.000000	na
80.463918	0.050542	91.000000	nontarget	9.000000	na
80.514460	0.049938	91.000000	nontarget	10.000000	na
80.564399	0.050073	91.000000	nontarget	11.000000	na
80.614472	0.049736	91.000000	nontarget	12.000000	na
80.664208	0.050252	91.000000	nontarget	13.000000	na
80.714460	0.049980	91.000000	nontarget	14.000000	na
80.764440	0.049793	91.000000	nontarget	15.000000	na
80.814232	0.050810	91.000000	nontarget	16.000000	na
80.865042	0.049443	92.000000	nontarget	1.000000	na
80.914485	0.049812	92.000000	nontarget	2.000000	na
80.964297	0.049887	92.000000	nontarget	3.000000	na
81.014185	0.050265	92.000000	nontarget	4.000000	na
81.064449	0.050471	92.000000	nontarget	5.000000	na
81.114920	0.050091	92.000000	nontarget	6.000000	na
81.165011	0.049463	92.000000	nontarget	7.000000	na
81.214475	0.049562	92.000000	nontarget	8.000000	81.250883
81.264036	0.050857	92.000000	nontarget	9.000000	na
81.314893	0.049607	92.000000	nontarget	10.000000	na
81.364501	0.049898	92.000000	nontarget	11.000000	na
81.414399	0.050654	92.000000	nontarget	12.000000	na
81.465052	0.048862	92.000000	nontarget	13.000000	na
81.513914	0.050489	92.000000	nontarget	14.000000	na
81.564403	0.050032	92.000000	nontarget	15.000000	na
81.614435	0.050333	92.000000	nontarget	16.000000	na
81.664768	0.049547	93.000000	nontarget	1.000000	na
81.714315	0.050664	93.000000	nontarget	2.000000	na
81.764979	0.049483	93.000000	nontarget	3.000000	na
81.814462	0.050117	93.000000	nontarget	4.000000	na
81.864579	0.049881	93.000000	nontarget	5.000000	na
81.914460	0.049779	93.000000	nontarget	6.000000	na
81.964239	0.049962	93.000000	nontarget	7.000000	na
82.014201	0.049477	93.000000	nontarget	8.000000	na
82.063678	0.051299	93.000000	nontarget	9.000000	82.070166
82.114977	0.049260	93.000000	nontarget	10.000000	na
82.164237	0.050266	93.000000	nontarget	11.000000	na
82.214502	0.049437	93.000000	nontarget	12.000000	na
82.263939	0.049596	93.000000	nontarget	13.000000	na
82.313535	0.050781	93.000000	nontarget	14.000000	na
82.364316	0.049779	93.000000	nontarget	15.000000	na
82.414094	0.050017	93.000000	nontarget	16.000000	na
82.464111	0.050337	94.000000	nontarget	1.000000	na
82.514448	0.050134	94.000000	nontarget	2.000000	na
82.564582	0.050311	94.000000	nontarget	3.000000	na
82.614893	0.049580	94.000000	nontarget	4.000000	na
82.664473	0.050319	94.000000	nontarget	5.000000	na
82.714792	0.049398	94.000000	nontarget	6.000000	na
82.764190	0.050268	94.000000	nontarget	7.000000	na
82.814459	0.049928	94.000000	nontarget	8.000000	na
82.864387	0.050384	94.000000	nontarget	9.000000	na
82.914771	0.050122	94.000000	nontarget	10.000000	na
82.964894	0.048884	94.000000	nontarget	11.000000	na
83.013778	0.050891	94.000000	nontarget	12.000000	83.037824
83.064669	0.049578	94.000000	nontarget	13.000000	na
83.114247	0.050507	94.000000	nontarget	14.000000	na
83.164754	0.049594	94.000000	nontarget	15.000000	na
83.214348	0.050429	94.000000	nontarget	16.000000	na
83.264777	0.049654	95.000000	nontarget	1.000000	na
83.314432	0.049711	95.000000	nontarget	2.000000	na
83.364143	0.049941	95.000000	nontarget	3.000000	na
83.414084	0.050350	95.000000	nontarget	4.000000	na
83.464434	0.049227	95.000000	nontarget	5.000000	na
83.513661	0.050779	95.000000	nontarget	6.000000	na
83.564440	0.050011	95.000000	nontarget	7.000000	na
83.614451	0.049955	95.000000	nontarget	8.000000	na
83.664405	0.050007	95.000000	nontarget	9.000000	na
83.714412	0.050405	95.000000	nontarget	10.000000	na
83.764817	0.049607	95.000000	nontarget	11.000000	na
83.814424	0.049996	95.000000	nontarget	12.000000	na
83.864420	0.050001	95.000000	nontarget	13.000000	na
83.914421	0.050450	95.000000	nontarget	14.000000	na
83.964871	0.049457	95.000000	nontarget	15.000000	na
84.014328	0.050088	95.000000	nontarget	16.000000	na
84.064417	0.050029	96.000000	nontarget	1.000000	84.096069
84.114446	0.049908	96.000000	nontarget	2.000000	na
84.164354	0.049990	96.000000	nontarget	3.000000	na
84.214345	0.050093	96.000000	nontarget	4.000000	na
84.264438	0.049720	96.000000	nontarget	5.000000	na
84.314158	0.050274	96.000000	nontarget	6.000000	na
84.364432	0.049792	96.000000	nontarget	7.000000	na
84.414224	0.050091	96.000000	nontarget	8.000000	na
84.464315	0.049493	96.000000	nontarget	9.000000	na
84.513808	0.050627	96.000000	nontarget	10.000000	na
84.564435	0.049150	96.000000	nontarget	11.000000	na
84.613585	0.050846	96.000000	nontarget	12.000000	na
84.664431	0.049466	96.000000	nontarget	13.000000	na
84.713896	0.050271	96.000000	nontarget	14.000000	na
84.764168	0.049653	96.000000	nontarget	15.000000	na
84.813820	0.050586	96.000000	nontarget	16.000000	na
84.864406	0.050022	97.000000	nontarget	1.000000	na
84.914428	0.050279	97.000000	nontarget	2.000000	na
84.964707	0.049656	97.000000	nontarget	3.000000	84.971293
85.014363	0.050033	97.000000	nontarget	4.000000	na
85.064396	0.049999	97.000000	nontarget	5.000000	na
85.114395	0.049972	97.000000	nontarget	6.000000	na
85.164366	0.050052	97.000000	nontarget	7.000000	na
85.214418	0.050022	97.000000	nontarget	8.000000	na
85.264440	0.049766	97.000000	nontarget	9.000000	na
85.314206	0.050312	97.000000	nontarget	10.000000	na
85.364518	0.049385	97.000000	nontarget	11.000000	na
85.413903	0.050750	97.000000	nontarget	12.000000	na
85.464653	0.049864	97.000000	nontarget	13.000000	na
85.514516	0.049848	97.000000	nontarget	14.000000	na
85.564365	0.049597	97.000000	nontarget	15.000000	na
85.613962	0.050413	97.000000	nontarget	16.000000	na
85.664374	0.049427	98.000000	nontarget	1.000000	na
85.713801	0.049863	98.000000	nontarget	2.000000	na
85.763664	0.049926	98.000000	nontarget	3.000000	na
85.813590	0.050205	98.000000	nontarget	4.000000	na
85.863795	0.050515	98.000000	nontarget	5.000000	na
85.914310	0.049335	98.000000	nontarget	6.000000	na
85.963645	0.050173	98.000000	nontarget	7.000000	na
86.013818	0.050453	98.000000	nontarget	8.000000	86.020241
86.064271	0.050134	98.000000	nontarget	9.000000	na
86.114404	0.050041	98.000000	nontarget	10.000000	na
86.164445	0.048911	98.000000	nontarget	11.000000	na
86.213356	0.050978	98.000000	nontarget	12.000000	na
86.264335	0.049288	98.000000	nontarget	13.000000	na
86.313623	0.050712	98.000000	nontarget	14.000000	na
86.364335	0.049063	98.000000	nontarget	15.000000	na
86.413398	0.051036	98.000000	nontarget	16.000000	na
86.464434	0.049937	99.000000	nontarget	1.000000	na
86.514371	0.050034	99.000000	nontarget	2.000000	na
86.564405	0.049830	99.000000	nontarget	3.000000	na
86.614234	0.048971	99.000000	nontarget	4.000000	na
86.663206	0.050885	99.000000	nontarget	5.000000	na
86.714091	0.050280	99.000000	nontarget	6.000000	na
86.764371	0.049913	99.000000	nontarget	7.000000	na
86.814284	0.049943	99.000000	nontarget	8.000000	na
86.864227	0.049211	99.000000	nontarget	9.000000	na
86.913438	0.050714	99.000000	nontarget	10.000000	na
86.964152	0.050082	99.000000	nontarget	11.000000	na
87.014233	0.049280	99.000000	nontarget	12.000000	na
87.063514	0.049960	99.000000	nontarget	13.000000	na
87.113474	0.050797	99.000000	nontarget	14.000000	na
87.164271	0.049691	99.000000	nontarget	15.000000	na
87.213962	0.050415	99.000000	nontarget	16.000000	87.240992
87.264377	0.049863	100.000000	nontarget	1.000000	87.270793
87.314240	0.049816	100.000000	nontarget	2.000000	na
87.364056	0.049744	100.000000	nontarget	3.000000	na
87.413799	0.050048	100.000000	nontarget	4.000000	na
87.463848	0.050398	100.000000	nontarget	5.000000	na
87.514246	0.049977	100.000000	nontarget	6.000000	na
87.564222	0.050034	100.000000	nontarget	7.000000	na
87.614257	0.049996	100.000000	nontarget	8.000000	na
87.664252	0.049583	100.000000	nontarget	9.000000	na
87.713835	0.050419	100.000000	nontarget	10.000000	na
87.764254	0.049891	100.000000	nontarget	11.000000	na
87.814145	0.049426	100.000000	nontarget	12.000000	na
87.863571	0.050790	100.000000	nontarget	13.000000	na
87.914362	0.049555	100.000000	nontarget	14.000000	na
87.963917	0.050315	100.000000	nontarget	15.000000	na
88.014231	0.048969	100.000000	nontarget	16.000000	na
88.063200	0.051148	101.000000	target	1.000000	na
88.114348	0.049255	101.000000	target	2.000000	na
88.163603	0.050606	101.000000	target	3.000000	na
88.214209	0.049799	101.000000	target	4.000000	na
88.264008	0.049797	101.000000	target	5.000000	na
88.313806	0.050409	101.000000	target	6.000000	na
88.364214	0.049995	101.000000	target	7.000000	na
88.414210	0.049981	101.000000	target	8.000000	na
88.464191	0.049129	101.000000	target	9.000000	na
88.513320	0.050193	101.000000	target	10.000000	na
88.563513	0.050674	101.000000	target	11.000000	na
88.614187	0.049849	101.000000	target	12.000000	na
88.664036	0.049529	101.000000	target	13.000000	na
88.713566	0.050585	101.000000	target	14.000000	na
88.764151	0.050001	101.000000	target	15.000000	na
88.814152	0.048988	101.000000	target	16.000000	na
88.863141	0.051033	102.000000	nontarget	1.000000	na
88.914174	0.049065	102.000000	nontarget	2.000000	88.930145
88.963239	0.051053	102.000000	nontarget	3.000000	na
89.014292	0.049846	102.000000	nontarget	4.000000	na
89.064138	0.049365	102.000000	nontarget	5.000000	na
89.113503	0.050833	102.000000	nontarget	6.000000	na
89.164336	0.049814	102.000000	nontarget	7.000000	na
89.214149	0.050028	102.000000	nontarget	8.000000	na
89.264177	0.050112	102.000000	nontarget	9.000000	na
89.314289	0.049349	102.000000	nontarget	10.000000	na
89.363638	0.049760	102.000000	nontarget	11.000000	na
89.413399	0.050898	102.000000	nontarget	12.000000	na
89.464297	0.049912	102.000000	nontarget	13.000000	na
89.514209	0.049791	102.000000	nontarget	14.000000	na
89.564000	0.050295	102.000000	nontarget	15.000000	na
89.614296	0.048815	102.000000	nontarget	16.000000	na
89.663110	0.050786	103.000000	nontarget	1.000000	na
89.713896	0.050299	103.000000	nontarget	2.000000	na
89.764195	0.049897	103.000000	nontarget	3.000000	na
89.814092	0.049490	103.000000	nontarget	4.000000	na
89.863582	0.050210	103.000000	nontarget	5.000000	na
89.913792	0.050420	103.000000	nontarget	6.000000	89.925298
89.964211	0.050088	103.000000	nontarget	7.000000	na
90.014299	0.049777	103.000000	nontarget	8.000000	na
90.064077	0.049942	103.000000	nontarget	9.000000	na
90.114018	0.049878	103.000000	nontarget	10.000000	na
90.163897	0.049833	103.000000	nontarget	11.000000	na
90.213729	0.050329	103.000000	nontarget	12.000000	na
90.264059	0.049104	103.000000	nontarget	13.000000	na
90.313163	0.050179	103.000000	nontarget	14.000000	na
90.363343	0.050723	103.000000	nontarget	15.000000	na
90.414065	0.049034	103.000000	nontarget	16.000000	na
90.463100	0.050393	104.000000	target	1.000000	na
90.513493	0.049760	104.000000	target	2.000000	na
90.563253	0.050823	104.000000	target	3.000000	na
90.614075	0.049469	104.000000	target	4.000000	na
90.663545	0.049995	104.000000	target	5.000000	na
90.713540	0.050480	104.000000	target	6.000000	na
90.764020	0.049330	104.000000	target	7.000000	na
90.813350	0.050593	104.000000	target	8.000000	na
90.863942	0.049612	104.000000	target	9.000000	na
90.913555	0.050747	104.000000	target	10.000000	na
90.964302	0.049963	104.000000	target	11.000000	na
91.014265	0.049947	104.000000	target	12.000000	na
91.064212	0.049872	104.000000	target	13.000000	na
91.114084	0.049934	104.000000	target	14.000000	na
91.164018	0.049754	104.000000	target	15.000000	na
91.213772	0.049403	104.000000	target	16.000000	na
91.263175	0.050859	105.000000	nontarget	1.000000	na
91.314034	0.049559	105.000000	nontarget	2.000000	na
91.363594	0.050420	105.000000	nontarget	3.000000	na
91.414014	0.049993	105.000000	nontarget	4.000000	91.420580
91.464007	0.049167	105.000000	nontarget	5.000000	na
91.513174	0.050557	105.000000	nontarget	6.000000	na
91.563731	0.049661	105.000000	nontarget	7.000000	na
91.613392	0.050003	105.000000	nontarget	8.000000	na
91.663395	0.050549	105.000000	nontarget	9.000000	na
91.713943	0.049564	105.000000	nontarget	10.000000	na
91.763507	0.050645	105.000000	nontarget	11.000000	na
91.814152	0.049567	105.000000	nontarget	12.000000	na
91.863720	0.050122	105.000000	nontarget	13.000000	na
91.913842	0.050015	105.000000	nontarget	14.000000	na
91.963857	0.049184	105.000000	nontarget	15.000000	na
92.013041	0.050531	105.000000	nontarget	16.000000	na
92.063572	0.050117	106.000000	nontarget	1.000000	na
92.113688	0.049716	106.000000	nontarget	2.000000	na
92.163405	0.050601	106.000000	nontarget	3.000000	na
92.214005	0.049781	106.000000	nontarget	4.000000	na
92.263786	0.050183	106.000000	nontarget	5.000000	92.299546
92.313970	0.049484	106.000000	nontarget	6.000000	na
92.363454	0.050486	106.000000	nontarget	7.000000	na
92.413940	0.049745	106.000000	nontarget	8.000000	na
92.463685	0.050377	106.000000	nontarget	9.000000	na
92.514062	0.049662	106.000000	nontarget	10.000000	na
92.563723	0.049389	106.000000	nontarget	11.000000	na
92.613113	0.050935	106.000000	nontarget	12.000000	na
92.664048	0.049912	106.000000	nontarget	13.000000	na
92.713960	0.049668	106.000000	nontarget	14.000000	na
92.763627	0.049545	106.000000	nontarget	15.000000	na
92.813173	0.050443	106.000000	nontarget	16.000000	na
92.863615	0.050076	107.000000	nontarget	1.000000	na
92.913692	0.050109	107.000000	nontarget	2.000000	na
92.963800	0.049224	107.000000	nontarget	3.000000	na
93.013024	0.050574	107.000000	nontarget	4.000000	na
93.063598	0.049824	107.000000	nontarget	5.000000	na
93.113422	0.050383	107.000000	nontarget	6.000000	na
93.163805	0.050062	107.000000	nontarget	7.000000	na
93.213867	0.050010	107.000000	nontarget	8.000000	na
93.263878	0.049936	107.000000	nontarget	9.000000	na
93.313813	0.050219	107.000000	nontarget	10.000000	93.320124
93.364033	0.049801	107.000000	nontarget	11.000000	na
93.413834	0.049198	107.000000	nontarget	12.000000	na
93.463032	0.050816	107.000000	nontarget	13.000000	na
93.513848	0.049732	107.000000	nontarget	14.000000	na
93.563580	0.050280	107.000000	nontarget	15.000000	na
93.613860	0.049173	107.000000	nontarget	16.000000	na
93.663033	0.050932	108.000000	nontarget	1.000000	na
93.713966	0.049642	108.000000	nontarget	2.000000	na
93.763608	0.049457	108.000000	nontarget	3.000000	na
93.813065	0.050803	108.000000	nontarget	4.000000	na
93.863868	0.049961	108.000000	nontarget	5.000000	na
93.913829	0.049201	108.000000	nontarget	6.000000	na
93.963030	0.049998	108.000000	nontarget	7.000000	na
94.013028	0.050603	108.000000	nontarget	8.000000	na
94.063631	0.049767	108.000000	nontarget	9.000000	na
94.113398	0.050420	108.000000	nontarget	10.000000	na
94.163818	0.049973	108.000000	nontarget	11.000000	na
94.213791	0.049339	108.000000	nontarget	12.000000	na
94.263131	0.050696	108.000000	nontarget	13.000000	94.270208
94.313827	0.049840	108.000000	nontarget	14.000000	na
94.363667	0.049329	108.000000	nontarget	15.000000	na
94.412996	0.050068	108.000000	nontarget	16.000000	na
94.463064	0.050686	109.000000	nontarget	1.000000	na
94.513750	0.050077	109.000000	nontarget	2.000000	na
94.563827	0.050181	109.000000	nontarget	3.000000	na
94.614007	0.049778	109.000000	nontarget	4.000000	na
94.663786	0.049531	109.000000	nontarget	5.000000	na
94.713316	0.050308	109.000000	nontarget	6.000000	na
94.763625	0.049808	109.000000	nontarget	7.000000	na
94.813433	0.050332	109.000000	nontarget	8.000000	na
94.863765	0.049982	109.000000	nontarget	9.000000	na
94.913747	0.049939	109.000000	nontarget	10.000000	na
94.963686	0.049321	109.000000	nontarget	11.000000	na
95.013006	0.050345	109.000000	nontarget	12.000000	na
95.063352	0.050421	109.000000	nontarget	13.000000	na
95.113772	0.049934	109.000000	nontarget	14.000000	na
95.163707	0.050056	109.000000	nontarget	15.000000	na
95.213763	0.049336	109.000000	nontarget	16.000000	na
95.263098	0.050627	110.000000	nontarget	1.000000	na
95.313726	0.049328	110.000000	nontarget	2.000000	na
95.363053	0.050632	110.000000	nontarget	3.000000	na
95.413685	0.049769	110.000000	nontarget	4.000000	na
95.463454	0.049412	110.000000	nontarget	5.000000	95.470055
95.512866	0.050783	110.000000	nontarget	6.000000	na
95.563649	0.049876	110.000000	nontarget	7.000000	na
95.613525	0.050185	110.000000	nontarget	8.000000	na
95.663710	0.050206	110.000000	nontarget	9.000000	na
95.713916	0.049889	110.000000	nontarget	10.000000	na
95.763804	0.049924	110.000000	nontarget	11.000000	na
95.813728	0.049922	110.000000	nontarget	12.000000	na
95.863650	0.049377	110.000000	nontarget	13.000000	na
95.913026	0.050577	110.000000	nontarget	14.000000	na
95.963603	0.049395	110.000000	nontarget	15.000000	na
96.012998	0.050067	110.000000	nontarget	16.000000	na
96.063065	0.050400	111.000000	nontarget	1.000000	na
96.113465	0.050399	111.000000	nontarget	2.000000	na
96.163864	0.049689	111.000000	nontarget	3.000000	na
96.213553	0.050354	111.000000	nontarget	4.000000	na
96.263906	0.049098	111.000000	nontarget	5.000000	96.270838
96.313004	0.049850	111.000000	nontarget	6.000000	na
96.362854	0.050069	111.000000	nontarget	7.000000	na
96.412923	0.050989	111.000000	nontarget	8.000000	na
96.463912	0.049494	111.000000	nontarget	9.000000	na
96.513405	0.050246	111.000000	nontarget	10.000000	na
96.563651	0.049715	111.000000	nontarget	11.000000	na
96.613366	0.049650	111.000000	nontarget	12.000000	na
96.663016	0.050027	111.000000	nontarget	13.000000	na
96.713042	0.050525	111.000000	nontarget	14.000000	na
96.763568	0.049819	111.000000	nontarget	15.000000	na
96.813387	0.050079	111.000000	nontarget	16.000000	na
96.863466	0.050111	112.000000	nontarget	1.000000	na
96.913578	0.049968	112.000000	nontarget	2.000000	na
96.963546	0.049438	112.000000	nontarget	3.000000	na
97.012984	0.050555	112.000000	nontarget	4.000000	na
97.063539	0.050400	112.000000	nontarget	5.000000	na
97.113938	0.049630	112.000000	nontarget	6.000000	na
97.163568	0.049721	112.000000	nontarget	7.000000	97.199567
97.213289	0.049991	112.000000	nontarget	8.000000	na
97.263281	0.050334	112.000000	nontarget	9.000000	na
97.313614	0.049290	112.000000	nontarget	10.000000	na
97.362904	0.050671	112.000000	nontarget	11.000000	na
97.413575	0.050077	112.000000	nontarget	12.000000	na
97.463652	0.049939	112.000000	nontarget	13.000000	na
97.513591	0.050186	112.000000	nontarget	14.000000	na
97.563777	0.049784	112.000000	nontarget	15.000000	na
97.613561	0.049443	112.000000	nontarget	16.000000	na
97.663005	0.050366	113.000000	nontarget	1.000000	na
97.713370	0.050194	113.000000	nontarget	2.000000	na
97.763564	0.050290	113.000000	nontarget	3.000000	na
97.813854	0.049702	113.000000	nontarget	4.000000	na
97.863556	0.049417	113.000000	nontarget	5.000000	na
97.912973	0.050591	113.000000	nontarget	6.000000	na
97.963563	0.049431	113.000000	nontarget	7.000000	na
98.012995	0.050343	113.000000	nontarget	8.000000	na
98.063338	0.050173	113.000000	nontarget	9.000000	na
98.113511	0.050084	113.000000	nontarget	10.000000	na
98.163595	0.049947	113.000000	nontarget	11.000000	na
98.213543	0.049541	113.000000	nontarget	12.000000	na
98.263084	0.050358	113.000000	nontarget	13.000000	na
98.313442	0.050291	113.000000	nontarget	14.000000	98.337679
98.363733	0.049843	113.000000	nontarget	15.000000	na
98.413576	0.049492	113.000000	nontarget	16.000000	na
98.463067	0.050780	114.000000	nontarget	1.000000	98.469704
98.513848	0.049790	114.000000	nontarget	2.000000	na
98.563638	0.049866	114.000000	nontarget	3.000000	na
98.613504	0.049718	114.000000	nontarget	4.000000	na
98.663222	0.050102	114.000000	nontarget	5.000000	na
98.713324	0.050475	114.000000	nontarget	6.000000	na
98.763799	0.049342	114.000000	nontarget	7.000000	na
98.813141	0.049838	114.000000	nontarget	8.000000	na
98.862979	0.050002	114.000000	nontarget	9.000000	na
98.912981	0.049972	114.000000	nontarget	10.000000	na
98.962952	0.050020	114.000000	nontarget	11.000000	na
99.012972	0.050019	114.000000	nontarget	12.000000	na
99.062991	0.050867	114.000000	nontarget	13.000000	na
99.113858	0.049646	114.000000	nontarget	14.000000	na
99.163504	0.049983	114.000000	nontarget	15.000000	na
99.213487	0.049591	114.000000	nontarget	16.000000	na
99.263079	0.050775	115.000000	nontarget	1.000000	na
99.313853	0.049682	115.000000	nontarget	2.000000	99.342041
99.363535	0.049862	115.000000	nontarget	3.000000	na
99.413397	0.049966	115.000000	nontarget	4.000000	na
99.463363	0.049956	115.000000	nontarget	5.000000	na
99.513318	0.050372	115.000000	nontarget	6.000000	na
99.563690	0.049847	115.000000	nontarget	7.000000	na
99.613538	0.050163	115.000000	nontarget	8.000000	na
99.663701	0.049731	115.000000	nontarget	9.000000	na
99.713432	0.050158	115.000000	nontarget	10.000000	na
99.763590	0.050120	115.000000	nontarget	11.000000	na
99.813710	0.049741	115.000000	nontarget	12.000000	na
99.863451	0.050191	115.000000	nontarget	13.000000	na
99.913642	0.049654	115.000000	nontarget	14.000000	na
99.963296	0.049708	115.000000	nontarget	15.000000	na
100.013004	0.050661	115.000000	nontarget	16.000000	na
100.063665	0.049108	116.000000	nontarget	1.000000	na
100.112773	0.050432	116.000000	nontarget	2.000000	na
100.163205	0.050351	116.000000	nontarget	3.000000	na
100.213555	0.049869	116.000000	nontarget	4.000000	na
100.263424	0.050118	116.000000	nontarget	5.000000	na
100.313542	0.049854	116.000000	nontarget	6.000000	na
100.363396	0.049959	116.000000	nontarget	7.000000	na
100.413355	0.050283	116.000000	nontarget	8.000000	100.424791
100.463639	0.050023	116.000000	nontarget	9.000000	na
100.513661	0.049730	116.000000	nontarget	10.000000	na
100.563392	0.049981	116.000000	nontarget	11.000000	na
100.613372	0.050029	116.000000	nontarget	12.000000	na
100.663401	0.049985	116.000000	nontarget	13.000000	na
100.713386	0.050004	116.000000	nontarget	14.000000	na
100.763390	0.050181	116.000000	nontarget	15.000000	na
100.813572	0.048938	116.000000	nontarget	16.000000	na
100.862510	0.050829	117.000000	nontarget	1.000000	na
100.913339	0.049494	117.000000	nontarget	2.000000	na
100.962833	0.050149	117.000000	nontarget	3.000000	na
101.012981	0.050675	117.000000	nontarget	4.000000	na
101.063656	0.049774	117.000000	nontarget	5.000000	na
101.113431	0.050083	117.000000	nontarget	6.000000	na
101.163514	0.049252	117.000000	nontarget	7.000000	na
101.212765	0.050574	117.000000	nontarget	8.000000	na
101.263340	0.049960	117.000000	nontarget	9.000000	na
101.313299	0.049984	117.000000	nontarget	10.000000	101.319612
101.363284	0.050039	117.000000	nontarget	11.000000	na
101.413322	0.049221	117.000000	nontarget	12.000000	na
101.462543	0.050908	117.000000	nontarget	13.000000	na
101.513451	0.049674	117.000000	nontarget	14.000000	na
101.563126	0.049485	117.000000	nontarget	15.000000	na
101.612611	0.050499	117.000000	nontarget	16.000000	na
101.663110	0.050193	118.000000	nontarget	1.000000	na
101.713303	0.050155	118.000000	nontarget	2.000000	na
101.763458	0.048923	118.000000	nontarget	3.000000	na
101.812381	0.050416	118.000000	nontarget	4.000000	na
101.862797	0.049971	118.000000	nontarget	5.000000	na
101.912767	0.049845	118.000000	nontarget	6.000000	na
101.962613	0.050584	118.000000	nontarget	7.000000	na
102.013197	0.049503	118.000000	nontarget	8.000000	na
102.062700	0.050795	118.000000	nontarget	9.000000	na
102.113494	0.049267	118.000000	nontarget	10.000000	na
102.162761	0.050594	118.000000	nontarget	11.000000	na
102.213356	0.049933	118.000000	nontarget	12.000000	na
102.263288	0.049993	118.000000	nontarget	13.000000	na
102.313281	0.048934	118.000000	nontarget	14.000000	na
102.362215	0.051021	118.000000	nontarget	15.000000	102.368920
102.413236	0.049668	118.000000	nontarget	16.000000	na
102.462904	0.050340	119.000000	nontarget	1.000000	102.469461
102.513245	0.050121	119.000000	nontarget	2.000000	na
102.563365	0.049708	119.000000	nontarget	3.000000	na
102.613073	0.050266	119.000000	nontarget	4.000000	na
102.663339	0.049921	119.000000	nontarget	5.000000	na
102.713260	0.049702	119.000000	nontarget	6.000000	na
102.762962	0.049811	119.000000	nontarget	7.000000	na
102.812773	0.050572	119.000000	nontarget	8.000000	na
102.863345	0.049870	119.000000	nontarget	9.000000	na
102.913215	0.049329	119.000000	nontarget	10.000000	na
102.962543	0.050633	119.000000	nontarget	11.000000	na
103.013177	0.049657	119.000000	nontarget	12.000000	na
103.062834	0.050464	119.000000	nontarget	13.000000	na
103.113298	0.049924	119.000000	nontarget	14.000000	na
103.163222	0.049690	119.000000	nontarget	15.000000	na
103.212912	0.049588	119.000000	nontarget	16.000000	103.236349
103.262500	0.050435	120.000000	nontarget	1.000000	103.269394
103.312935	0.049973	120.000000	nontarget	2.000000	na
103.362908	0.050121	120.000000	nontarget	3.000000	na
103.413029	0.049762	120.000000	nontarget	4.000000	na
103.462791	0.049610	120.000000	nontarget	5.000000	na
103.512401	0.050841	120.000000	nontarget	6.000000	na
103.563242	0.049151	120.000000	nontarget	7.000000	na
103.612393	0.050721	120.000000	nontarget	8.000000	na
103.663114	0.049515	120.000000	nontarget	9.000000	na
103.712628	0.049661	120.000000	nontarget	10.000000	na
103.762290	0.050212	120.000000	nontarget	11.000000	na
103.812502	0.050691	120.000000	nontarget	12.000000	na
103.863193	0.049714	120.000000	nontarget	13.000000	na
103.912907	0.050274	120.000000	nontarget	14.000000	na
103.963181	0.049975	120.000000	nontarget	15.000000	na
104.013156	0.049772	120.000000	nontarget	16.000000	na
104.062928	0.049683	121.000000	target	1.000000	na
104.112611	0.049780	121.000000	target	2.000000	na
104.162391	0.050604	121.000000	target	3.000000	na
104.212995	0.049658	121.000000	target	4.000000	na
104.262653	0.049844	121.000000	target	5.000000	na
104.312498	0.050873	121.000000	target	6.000000	na
104.363370	0.049990	121.000000	target	7.000000	na
104.413360	0.049225	121.000000	target	8.000000	na
104.462585	0.050361	121.000000	target	9.000000	na
104.512946	0.050102	121.000000	target	10.000000	na
104.563049	0.050019	121.000000	target	11.000000	na
104.613067	0.049540	121.000000	target	12.000000	na
