onset	duration	trial_number	trial_type	frame_number	time_of_response
8.057176	0.043663	1.000000	nontarget	1.000000	na
8.100839	0.038834	1.000000	nontarget	2.000000	na
8.139673	0.043968	1.000000	nontarget	3.000000	na
8.183641	0.050175	1.000000	nontarget	4.000000	na
8.233817	0.050054	1.000000	nontarget	5.000000	na
8.283871	0.050061	1.000000	nontarget	6.000000	na
8.333932	0.049412	1.000000	nontarget	7.000000	na
8.383344	0.039099	1.000000	nontarget	8.000000	na
8.422443	0.044764	1.000000	nontarget	9.000000	8.452120
8.467207	0.049887	1.000000	nontarget	10.000000	na
8.517095	0.050570	1.000000	nontarget	11.000000	na
8.567665	0.038702	1.000000	nontarget	12.000000	na
8.606367	0.043983	1.000000	nontarget	13.000000	na
8.650350	0.049557	1.000000	nontarget	14.000000	na
8.699908	0.050630	1.000000	nontarget	15.000000	na
8.750537	0.050078	1.000000	nontarget	16.000000	na
8.800616	0.049960	2.000000	target	1.000000	na
8.850576	0.049983	2.000000	target	2.000000	na
8.900559	0.039088	2.000000	target	3.000000	na
8.939647	0.044294	2.000000	target	4.000000	na
8.983941	0.049811	2.000000	target	5.000000	na
9.033752	0.039252	2.000000	target	6.000000	na
9.073004	0.044071	2.000000	target	7.000000	na
9.117075	0.038933	2.000000	target	8.000000	na
9.156008	0.044494	2.000000	target	9.000000	na
9.200502	0.038636	2.000000	target	10.000000	na
9.239138	0.044530	2.000000	target	11.000000	na
9.283668	0.050222	2.000000	target	12.000000	9.318986
9.333890	0.049699	2.000000	target	13.000000	na
9.383589	0.050633	2.000000	target	14.000000	na
9.434223	0.038913	2.000000	target	15.000000	na
9.473136	0.043873	2.000000	target	16.000000	na
9.517009	0.049921	3.000000	nontarget	1.000000	na
9.566929	0.039418	3.000000	nontarget	2.000000	na
9.606347	0.044065	3.000000	nontarget	3.000000	na
9.650412	0.050396	3.000000	nontarget	4.000000	na
9.700808	0.049815	3.000000	nontarget	5.000000	na
9.750622	0.049424	3.000000	nontarget	6.000000	na
9.800047	0.050700	3.000000	nontarget	7.000000	na
9.850747	0.049514	3.000000	nontarget	8.000000	na
9.900261	0.050695	3.000000	nontarget	9.000000	na
9.950956	0.049782	3.000000	nontarget	10.000000	na
10.000738	0.049391	3.000000	nontarget	11.000000	10.020901
10.050129	0.050121	3.000000	nontarget	12.000000	na
10.100250	0.050411	3.000000	nontarget	13.000000	na
10.150661	0.049209	3.000000	nontarget	14.000000	na
10.199870	0.051141	3.000000	nontarget	15.000000	na
10.251011	0.050001	3.000000	nontarget	16.000000	na
10.301012	0.049672	4.000000	target	1.000000	na
10.350684	0.038767	4.000000	target	2.000000	na
10.389451	0.044308	4.000000	target	3.000000	na
10.433759	0.050278	4.000000	target	4.000000	na
10.484037	0.049592	4.000000	target	5.000000	na
10.533629	0.038944	4.000000	target	6.000000	na
10.572573	0.044731	4.000000	target	7.000000	na
10.617304	0.038937	4.000000	target	8.000000	na
10.656242	0.044400	4.000000	target	9.000000	na
10.700642	0.049993	4.000000	target	10.000000	na
10.750634	0.050033	4.000000	target	11.000000	na
10.800668	0.039033	4.000000	target	12.000000	na
10.839701	0.044282	4.000000	target	13.000000	na
10.883983	0.049481	4.000000	target	14.000000	na
10.933464	0.049902	4.000000	target	15.000000	na
10.983365	0.049883	4.000000	target	16.000000	10.996347
11.033249	0.039908	5.000000	nontarget	1.000000	11.040267
11.073157	0.043405	5.000000	nontarget	2.000000	na
11.116562	0.039673	5.000000	nontarget	3.000000	na
11.156235	0.044627	5.000000	nontarget	4.000000	na
11.200862	0.049833	5.000000	nontarget	5.000000	na
11.250695	0.050323	5.000000	nontarget	6.000000	na
11.301018	0.049457	5.000000	nontarget	7.000000	na
11.350475	0.050524	5.000000	nontarget	8.000000	na
11.400999	0.038824	5.000000	nontarget	9.000000	na
11.439823	0.043637	5.000000	nontarget	10.000000	na
11.483460	0.050648	5.000000	nontarget	11.000000	na
11.534108	0.049141	5.000000	nontarget	12.000000	na
11.583249	0.050725	5.000000	nontarget	13.000000	na
11.633974	0.038567	5.000000	nontarget	14.000000	na
11.672541	0.044636	5.000000	nontarget	15.000000	11.678022
11.717177	0.049961	5.000000	nontarget	16.000000	na
11.767139	0.049912	6.000000	nontarget	1.000000	11.773919
11.817051	0.050538	6.000000	nontarget	2.000000	na
11.867588	0.049437	6.000000	nontarget	3.000000	na
11.917025	0.050334	6.000000	nontarget	4.000000	na
11.967359	0.038630	6.000000	nontarget	5.000000	na
12.005989	0.044495	6.000000	nontarget	6.000000	na
12.050484	0.049998	6.000000	nontarget	7.000000	na
12.100482	0.050379	6.000000	nontarget	8.000000	na
12.150861	0.039177	6.000000	nontarget	9.000000	na
12.190038	0.043596	6.000000	nontarget	10.000000	na
12.233634	0.050567	6.000000	nontarget	11.000000	na
12.284201	0.050034	6.000000	nontarget	12.000000	na
12.334235	0.050194	6.000000	nontarget	13.000000	12.345724
12.384429	0.038020	6.000000	nontarget	14.000000	na
12.422449	0.044406	6.000000	nontarget	15.000000	na
12.466855	0.039124	6.000000	nontarget	16.000000	na
12.505979	0.044757	7.000000	nontarget	1.000000	12.510932
12.550735	0.050223	7.000000	nontarget	2.000000	na
12.600959	0.038022	7.000000	nontarget	3.000000	na
12.638981	0.045088	7.000000	nontarget	4.000000	na
12.684069	0.049467	7.000000	nontarget	5.000000	na
12.733536	0.050562	7.000000	nontarget	6.000000	na
12.784098	0.050143	7.000000	nontarget	7.000000	na
12.834241	0.049466	7.000000	nontarget	8.000000	na
12.883708	0.050786	7.000000	nontarget	9.000000	na
12.934494	0.049586	7.000000	nontarget	10.000000	na
12.984079	0.050120	7.000000	nontarget	11.000000	na
13.034199	0.066476	7.000000	nontarget	12.000000	13.066477
13.100675	0.050185	7.000000	nontarget	13.000000	na
13.150860	0.050197	7.000000	nontarget	14.000000	na
13.201056	0.037806	7.000000	nontarget	15.000000	na
13.238863	0.045520	7.000000	nontarget	16.000000	na
13.284382	0.049723	8.000000	nontarget	1.000000	na
13.334105	0.038070	8.000000	nontarget	2.000000	na
13.372176	0.045506	8.000000	nontarget	3.000000	na
13.417682	0.049950	8.000000	nontarget	4.000000	na
13.467633	0.050101	8.000000	nontarget	5.000000	na
13.517733	0.049417	8.000000	nontarget	6.000000	na
13.567151	0.050448	8.000000	nontarget	7.000000	na
13.617599	0.050106	8.000000	nontarget	8.000000	na
13.667705	0.049239	8.000000	nontarget	9.000000	na
13.716944	0.050750	8.000000	nontarget	10.000000	na
13.767694	0.049381	8.000000	nontarget	11.000000	na
13.817075	0.050221	8.000000	nontarget	12.000000	13.823273
13.867296	0.050521	8.000000	nontarget	13.000000	na
13.917817	0.049981	8.000000	nontarget	14.000000	na
13.967798	0.038682	8.000000	nontarget	15.000000	na
14.006480	0.043773	8.000000	nontarget	16.000000	na
14.050254	0.050310	9.000000	nontarget	1.000000	na
14.100564	0.038528	9.000000	nontarget	2.000000	na
14.139092	0.044892	9.000000	nontarget	3.000000	na
14.183984	0.050409	9.000000	nontarget	4.000000	na
14.234393	0.049008	9.000000	nontarget	5.000000	na
14.283401	0.038886	9.000000	nontarget	6.000000	na
14.322287	0.044857	9.000000	nontarget	7.000000	na
14.367143	0.039088	9.000000	nontarget	8.000000	na
14.406231	0.044540	9.000000	nontarget	9.000000	na
14.450772	0.050302	9.000000	nontarget	10.000000	na
14.501073	0.050086	9.000000	nontarget	11.000000	na
14.551159	0.049464	9.000000	nontarget	12.000000	na
14.600623	0.038282	9.000000	nontarget	13.000000	14.607626
14.638905	0.045238	9.000000	nontarget	14.000000	na
14.684142	0.050095	9.000000	nontarget	15.000000	na
14.734238	0.050300	9.000000	nontarget	16.000000	na
14.784538	0.049920	10.000000	nontarget	1.000000	na
14.834458	0.049940	10.000000	nontarget	2.000000	na
14.884397	0.049921	10.000000	nontarget	3.000000	na
14.934318	0.049114	10.000000	nontarget	4.000000	na
14.983433	0.050449	10.000000	nontarget	5.000000	na
15.033881	0.049513	10.000000	nontarget	6.000000	na
15.083394	0.039758	10.000000	nontarget	7.000000	na
15.123152	0.044418	10.000000	nontarget	8.000000	na
15.167570	0.050109	10.000000	nontarget	9.000000	na
15.217679	0.049804	10.000000	nontarget	10.000000	na
15.267483	0.050122	10.000000	nontarget	11.000000	na
15.317605	0.049811	10.000000	nontarget	12.000000	na
15.367417	0.038836	10.000000	nontarget	13.000000	na
15.406253	0.044531	10.000000	nontarget	14.000000	na
15.450784	0.050239	10.000000	nontarget	15.000000	na
15.501023	0.039090	10.000000	nontarget	16.000000	15.507921
15.540113	0.044078	11.000000	nontarget	1.000000	15.545534
15.584191	0.049819	11.000000	nontarget	2.000000	na
15.634010	0.038324	11.000000	nontarget	3.000000	na
15.672334	0.045140	11.000000	nontarget	4.000000	na
15.717474	0.049165	11.000000	nontarget	5.000000	na
15.766639	0.038877	11.000000	nontarget	6.000000	na
15.805516	0.045388	11.000000	nontarget	7.000000	na
15.850904	0.050221	11.000000	nontarget	8.000000	na
15.901125	0.049677	11.000000	nontarget	9.000000	na
15.950801	0.049527	11.000000	nontarget	10.000000	na
16.000328	0.050104	11.000000	nontarget	11.000000	na
16.050432	0.038594	11.000000	nontarget	12.000000	na
16.089026	0.045165	11.000000	nontarget	13.000000	na
16.134191	0.049676	11.000000	nontarget	14.000000	na
16.183867	0.038534	11.000000	nontarget	15.000000	16.208644
16.222401	0.044337	11.000000	nontarget	16.000000	na
16.266738	0.050813	12.000000	nontarget	1.000000	16.273751
16.317551	0.050122	12.000000	nontarget	2.000000	na
16.367673	0.050073	12.000000	nontarget	3.000000	na
16.417746	0.049321	12.000000	nontarget	4.000000	na
16.467067	0.050502	12.000000	nontarget	5.000000	na
16.517569	0.050393	12.000000	nontarget	6.000000	na
16.567962	0.049587	12.000000	nontarget	7.000000	na
16.617550	0.049980	12.000000	nontarget	8.000000	na
16.667529	0.050027	12.000000	nontarget	9.000000	na
16.717557	0.049166	12.000000	nontarget	10.000000	na
16.766723	0.050946	12.000000	nontarget	11.000000	na
16.817669	0.049275	12.000000	nontarget	12.000000	na
16.866945	0.050864	12.000000	nontarget	13.000000	na
16.917809	0.049859	12.000000	nontarget	14.000000	na
16.967668	0.037883	12.000000	nontarget	15.000000	na
17.005551	0.045473	12.000000	nontarget	16.000000	na
17.051024	0.049592	13.000000	nontarget	1.000000	17.070925
17.100615	0.050036	13.000000	nontarget	2.000000	na
17.150651	0.049824	13.000000	nontarget	3.000000	na
17.200475	0.050367	13.000000	nontarget	4.000000	na
17.250842	0.049743	13.000000	nontarget	5.000000	na
17.300585	0.038220	13.000000	nontarget	6.000000	na
17.338805	0.045638	13.000000	nontarget	7.000000	na
17.384443	0.049781	13.000000	nontarget	8.000000	na
17.434225	0.049126	13.000000	nontarget	9.000000	na
17.483351	0.038979	13.000000	nontarget	10.000000	na
17.522330	0.045207	13.000000	nontarget	11.000000	na
17.567538	0.049841	13.000000	nontarget	12.000000	na
17.617378	0.050217	13.000000	nontarget	13.000000	na
17.667595	0.049994	13.000000	nontarget	14.000000	na
17.717589	0.049143	13.000000	nontarget	15.000000	na
17.766732	0.051149	13.000000	nontarget	16.000000	na
17.817881	0.037918	14.000000	nontarget	1.000000	17.824686
17.855799	0.044368	14.000000	nontarget	2.000000	na
17.900167	0.039613	14.000000	nontarget	3.000000	na
17.939780	0.044283	14.000000	nontarget	4.000000	na
17.984063	0.050457	14.000000	nontarget	5.000000	na
18.034520	0.037654	14.000000	nontarget	6.000000	na
18.072174	0.045701	14.000000	nontarget	7.000000	na
18.117875	0.050035	14.000000	nontarget	8.000000	na
18.167910	0.049122	14.000000	nontarget	9.000000	na
18.217032	0.050196	14.000000	nontarget	10.000000	na
18.267228	0.050550	14.000000	nontarget	11.000000	na
18.317778	0.049755	14.000000	nontarget	12.000000	na
18.367533	0.050003	14.000000	nontarget	13.000000	na
18.417537	0.050324	14.000000	nontarget	14.000000	na
18.467861	0.038854	14.000000	nontarget	15.000000	na
18.506715	0.043611	14.000000	nontarget	16.000000	18.539916
18.550326	0.050554	15.000000	nontarget	1.000000	18.557035
18.600880	0.050019	15.000000	nontarget	2.000000	na
18.650898	0.049770	15.000000	nontarget	3.000000	na
18.700668	0.050084	15.000000	nontarget	4.000000	na
18.750752	0.039082	15.000000	nontarget	5.000000	na
18.789834	0.043789	15.000000	nontarget	6.000000	na
18.833623	0.050804	15.000000	nontarget	7.000000	na
18.884427	0.049207	15.000000	nontarget	8.000000	na
18.933633	0.050550	15.000000	nontarget	9.000000	na
18.984183	0.050169	15.000000	nontarget	10.000000	na
19.034352	0.038977	15.000000	nontarget	11.000000	na
19.073329	0.044543	15.000000	nontarget	12.000000	na
19.117872	0.049686	15.000000	nontarget	13.000000	na
19.167558	0.049475	15.000000	nontarget	14.000000	na
19.217033	0.050480	15.000000	nontarget	15.000000	na
19.267514	0.050264	15.000000	nontarget	16.000000	na
19.317777	0.049788	16.000000	target	1.000000	na
19.367565	0.049346	16.000000	target	2.000000	na
19.416912	0.050342	16.000000	target	3.000000	na
19.467254	0.049988	16.000000	target	4.000000	na
19.517242	0.050398	16.000000	target	5.000000	na
19.567639	0.049917	16.000000	target	6.000000	na
19.617557	0.050044	16.000000	target	7.000000	na
19.667601	0.050124	16.000000	target	8.000000	na
19.717725	0.048936	16.000000	target	9.000000	na
19.766661	0.038784	16.000000	target	10.000000	na
19.805445	0.045542	16.000000	target	11.000000	na
19.850986	0.050042	16.000000	target	12.000000	na
19.901029	0.049455	16.000000	target	13.000000	na
19.950483	0.050105	16.000000	target	14.000000	na
20.000589	0.050313	16.000000	target	15.000000	na
20.050902	0.050122	16.000000	target	16.000000	na
20.101024	0.049263	17.000000	target	1.000000	na
20.150287	0.039091	17.000000	target	2.000000	na
20.189378	0.045042	17.000000	target	3.000000	na
20.234420	0.049713	17.000000	target	4.000000	na
20.284133	0.050156	17.000000	target	5.000000	na
20.334289	0.049980	17.000000	target	6.000000	na
20.384268	0.049443	17.000000	target	7.000000	na
20.433711	0.050462	17.000000	target	8.000000	na
20.484173	0.038738	17.000000	target	9.000000	na
20.522911	0.043898	17.000000	target	10.000000	na
20.566810	0.039225	17.000000	target	11.000000	na
20.606035	0.044414	17.000000	target	12.000000	na
20.650449	0.050165	17.000000	target	13.000000	na
20.700614	0.039279	17.000000	target	14.000000	20.731922
20.739893	0.043750	17.000000	target	15.000000	na
20.783643	0.050656	17.000000	target	16.000000	na
20.834300	0.049947	18.000000	nontarget	1.000000	20.840980
20.884247	0.049924	18.000000	nontarget	2.000000	na
20.934172	0.050425	18.000000	nontarget	3.000000	na
20.984597	0.049797	18.000000	nontarget	4.000000	na
21.034395	0.049925	18.000000	nontarget	5.000000	na
21.084320	0.049994	18.000000	nontarget	6.000000	na
21.134314	0.049968	18.000000	nontarget	7.000000	na
21.184282	0.050031	18.000000	nontarget	8.000000	na
21.234313	0.050056	18.000000	nontarget	9.000000	na
21.284369	0.049947	18.000000	nontarget	10.000000	na
21.334315	0.049983	18.000000	nontarget	11.000000	na
21.384298	0.038698	18.000000	nontarget	12.000000	na
21.422996	0.044620	18.000000	nontarget	13.000000	na
21.467616	0.049859	18.000000	nontarget	14.000000	na
21.517475	0.050175	18.000000	nontarget	15.000000	na
21.567651	0.049299	18.000000	nontarget	16.000000	21.574021
21.616950	0.038911	19.000000	nontarget	1.000000	21.623656
21.655861	0.045151	19.000000	nontarget	2.000000	na
21.701012	0.049817	19.000000	nontarget	3.000000	na
21.750829	0.049473	19.000000	nontarget	4.000000	na
21.800302	0.039150	19.000000	nontarget	5.000000	na
21.839452	0.045159	19.000000	nontarget	6.000000	na
21.884611	0.049411	19.000000	nontarget	7.000000	na
21.934022	0.050310	19.000000	nontarget	8.000000	na
21.984331	0.050040	19.000000	nontarget	9.000000	na
22.034371	0.038940	19.000000	nontarget	10.000000	na
22.073311	0.044364	19.000000	nontarget	11.000000	na
22.117675	0.050004	19.000000	nontarget	12.000000	na
22.167679	0.049937	19.000000	nontarget	13.000000	na
22.217616	0.050279	19.000000	nontarget	14.000000	na
22.267896	0.049506	19.000000	nontarget	15.000000	na
22.317402	0.050070	19.000000	nontarget	16.000000	na
22.367472	0.037925	20.000000	nontarget	1.000000	22.395383
22.405397	0.045675	20.000000	nontarget	2.000000	na
22.451072	0.049097	20.000000	nontarget	3.000000	na
22.500169	0.038968	20.000000	nontarget	4.000000	na
22.539138	0.044994	20.000000	nontarget	5.000000	na
22.584131	0.050045	20.000000	nontarget	6.000000	na
22.634176	0.050246	20.000000	nontarget	7.000000	na
22.684422	0.049770	20.000000	nontarget	8.000000	na
22.734192	0.050110	20.000000	nontarget	9.000000	na
22.784301	0.049814	20.000000	nontarget	10.000000	na
22.834115	0.050236	20.000000	nontarget	11.000000	na
22.884351	0.050025	20.000000	nontarget	12.000000	na
22.934376	0.049772	20.000000	nontarget	13.000000	na
22.984148	0.049854	20.000000	nontarget	14.000000	na
23.034002	0.050487	20.000000	nontarget	15.000000	na
23.084489	0.049864	20.000000	nontarget	16.000000	na
23.134353	0.049996	21.000000	target	1.000000	na
23.184349	0.049600	21.000000	target	2.000000	na
23.233950	0.050165	21.000000	target	3.000000	na
23.284114	0.050011	21.000000	target	4.000000	na
23.334125	0.050418	21.000000	target	5.000000	na
23.384543	0.049939	21.000000	target	6.000000	na
23.434482	0.049651	21.000000	target	7.000000	na
23.484133	0.049687	21.000000	target	8.000000	na
23.533820	0.050002	21.000000	target	9.000000	na
23.583822	0.049899	21.000000	target	10.000000	na
23.633721	0.050598	21.000000	target	11.000000	na
23.684319	0.049651	21.000000	target	12.000000	na
23.733970	0.050409	21.000000	target	13.000000	na
23.784380	0.050150	21.000000	target	14.000000	na
23.834530	0.049965	21.000000	target	15.000000	na
23.884495	0.049894	21.000000	target	16.000000	na
23.934389	0.049318	22.000000	nontarget	1.000000	na
23.983707	0.050428	22.000000	nontarget	2.000000	23.990511
24.034136	0.050247	22.000000	nontarget	3.000000	na
24.084383	0.037650	22.000000	nontarget	4.000000	na
24.122033	0.045213	22.000000	nontarget	5.000000	na
24.167246	0.050472	22.000000	nontarget	6.000000	na
24.217718	0.049985	22.000000	nontarget	7.000000	na
24.267702	0.049999	22.000000	nontarget	8.000000	na
24.317701	0.049734	22.000000	nontarget	9.000000	na
24.367435	0.050222	22.000000	nontarget	10.000000	na
24.417657	0.049767	22.000000	nontarget	11.000000	na
24.467424	0.050298	22.000000	nontarget	12.000000	na
24.517723	0.049683	22.000000	nontarget	13.000000	na
24.567405	0.050392	22.000000	nontarget	14.000000	na
24.617797	0.049973	22.000000	nontarget	15.000000	24.654176
24.667770	0.050077	22.000000	nontarget	16.000000	na
24.717848	0.038749	23.000000	nontarget	1.000000	24.724493
24.756596	0.043649	23.000000	nontarget	2.000000	na
24.800246	0.050469	23.000000	nontarget	3.000000	na
24.850714	0.050303	23.000000	nontarget	4.000000	na
24.901017	0.050199	23.000000	nontarget	5.000000	na
24.951216	0.049704	23.000000	nontarget	6.000000	na
25.000920	0.050462	23.000000	nontarget	7.000000	na
25.051382	0.037420	23.000000	nontarget	8.000000	na
25.088802	0.045217	23.000000	nontarget	9.000000	na
25.134019	0.038351	23.000000	nontarget	10.000000	na
25.172370	0.045604	23.000000	nontarget	11.000000	na
25.217975	0.049206	23.000000	nontarget	12.000000	na
25.267181	0.049975	23.000000	nontarget	13.000000	na
25.317155	0.050698	23.000000	nontarget	14.000000	na
25.367854	0.049490	23.000000	nontarget	15.000000	na
25.417344	0.038736	23.000000	nontarget	16.000000	25.444743
25.456080	0.044479	24.000000	nontarget	1.000000	25.461515
25.500559	0.050115	24.000000	nontarget	2.000000	na
25.550674	0.050398	24.000000	nontarget	3.000000	na
25.601072	0.049384	24.000000	nontarget	4.000000	na
25.650455	0.050563	24.000000	nontarget	5.000000	na
25.701018	0.050020	24.000000	nontarget	6.000000	na
25.751038	0.050093	24.000000	nontarget	7.000000	na
25.801131	0.049987	24.000000	nontarget	8.000000	na
25.851117	0.038030	24.000000	nontarget	9.000000	na
25.889147	0.044994	24.000000	nontarget	10.000000	na
25.934142	0.049896	24.000000	nontarget	11.000000	na
25.984037	0.050326	24.000000	nontarget	12.000000	na
26.034364	0.038885	24.000000	nontarget	13.000000	na
26.073248	0.044140	24.000000	nontarget	14.000000	na
26.117389	0.050394	24.000000	nontarget	15.000000	na
26.167782	0.050078	24.000000	nontarget	16.000000	na
26.217860	0.049415	25.000000	nontarget	1.000000	na
26.267275	0.050521	25.000000	nontarget	2.000000	26.291547
26.317796	0.050133	25.000000	nontarget	3.000000	na
26.367929	0.049874	25.000000	nontarget	4.000000	na
26.417803	0.050026	25.000000	nontarget	5.000000	na
26.467829	0.049918	25.000000	nontarget	6.000000	na
26.517748	0.038785	25.000000	nontarget	7.000000	na
26.556533	0.044668	25.000000	nontarget	8.000000	na
26.601201	0.049947	25.000000	nontarget	9.000000	na
26.651148	0.049952	25.000000	nontarget	10.000000	na
26.701100	0.049541	25.000000	nontarget	11.000000	na
26.750641	0.050207	25.000000	nontarget	12.000000	na
26.800848	0.038770	25.000000	nontarget	13.000000	na
26.839618	0.044844	25.000000	nontarget	14.000000	na
26.884462	0.049741	25.000000	nontarget	15.000000	na
26.934203	0.050113	25.000000	nontarget	16.000000	na
26.984316	0.038286	26.000000	nontarget	1.000000	na
27.022602	0.044583	26.000000	nontarget	2.000000	na
27.067185	0.050615	26.000000	nontarget	3.000000	na
27.117800	0.049983	26.000000	nontarget	4.000000	na
27.167783	0.049671	26.000000	nontarget	5.000000	27.196790
27.217454	0.038786	26.000000	nontarget	6.000000	na
27.256241	0.044916	26.000000	nontarget	7.000000	na
27.301156	0.049591	26.000000	nontarget	8.000000	na
27.350747	0.050181	26.000000	nontarget	9.000000	na
27.400928	0.050184	26.000000	nontarget	10.000000	na
27.451111	0.049579	26.000000	nontarget	11.000000	na
27.500690	0.050258	26.000000	nontarget	12.000000	na
27.550948	0.050133	26.000000	nontarget	13.000000	na
27.601081	0.050070	26.000000	nontarget	14.000000	na
27.651151	0.050151	26.000000	nontarget	15.000000	na
27.701303	0.049380	26.000000	nontarget	16.000000	na
27.750683	0.050166	27.000000	nontarget	1.000000	na
27.800849	0.050346	27.000000	nontarget	2.000000	na
27.851195	0.049650	27.000000	nontarget	3.000000	na
27.900845	0.050045	27.000000	nontarget	4.000000	na
27.950890	0.049927	27.000000	nontarget	5.000000	27.962672
28.000817	0.050390	27.000000	nontarget	6.000000	na
28.051206	0.050217	27.000000	nontarget	7.000000	na
28.101423	0.049118	27.000000	nontarget	8.000000	na
28.150541	0.038582	27.000000	nontarget	9.000000	na
28.189123	0.045378	27.000000	nontarget	10.000000	na
28.234501	0.050036	27.000000	nontarget	11.000000	na
28.284537	0.049518	27.000000	nontarget	12.000000	na
28.334055	0.050480	27.000000	nontarget	13.000000	na
28.384535	0.049953	27.000000	nontarget	14.000000	na
28.434488	0.050050	27.000000	nontarget	15.000000	na
28.484538	0.049950	27.000000	nontarget	16.000000	na
28.534488	0.037762	28.000000	nontarget	1.000000	na
28.572250	0.045667	28.000000	nontarget	2.000000	na
28.617917	0.050030	28.000000	nontarget	3.000000	na
28.667947	0.049888	28.000000	nontarget	4.000000	na
28.717835	0.049734	28.000000	nontarget	5.000000	na
28.767569	0.049875	28.000000	nontarget	6.000000	na
28.817444	0.050538	28.000000	nontarget	7.000000	na
28.867982	0.049998	28.000000	nontarget	8.000000	na
28.917980	0.049406	28.000000	nontarget	9.000000	na
28.967386	0.050504	28.000000	nontarget	10.000000	na
29.017890	0.049391	28.000000	nontarget	11.000000	na
29.067281	0.038812	28.000000	nontarget	12.000000	na
29.106093	0.045381	28.000000	nontarget	13.000000	na
29.151474	0.050043	28.000000	nontarget	14.000000	na
29.201517	0.037705	28.000000	nontarget	15.000000	29.208321
29.239222	0.045729	28.000000	nontarget	16.000000	na
29.284951	0.048968	29.000000	nontarget	1.000000	29.291597
29.333919	0.050288	29.000000	nontarget	2.000000	na
29.384207	0.050039	29.000000	nontarget	3.000000	na
29.434246	0.050314	29.000000	nontarget	4.000000	na
29.484560	0.049259	29.000000	nontarget	5.000000	na
29.533820	0.050701	29.000000	nontarget	6.000000	na
29.584521	0.037896	29.000000	nontarget	7.000000	na
29.622416	0.045844	29.000000	nontarget	8.000000	na
29.668260	0.049613	29.000000	nontarget	9.000000	na
29.717873	0.050020	29.000000	nontarget	10.000000	na
29.767893	0.049760	29.000000	nontarget	11.000000	na
29.817653	0.049702	29.000000	nontarget	12.000000	na
29.867355	0.038785	29.000000	nontarget	13.000000	na
29.906140	0.045310	29.000000	nontarget	14.000000	na
29.951450	0.037623	29.000000	nontarget	15.000000	29.979114
29.989073	0.045555	29.000000	nontarget	16.000000	na
30.034628	0.037800	30.000000	nontarget	1.000000	30.041394
30.072428	0.045109	30.000000	nontarget	2.000000	na
30.117537	0.050354	30.000000	nontarget	3.000000	na
30.167891	0.049706	30.000000	nontarget	4.000000	na
30.217596	0.050285	30.000000	nontarget	5.000000	na
30.267881	0.050022	30.000000	nontarget	6.000000	na
30.317903	0.050130	30.000000	nontarget	7.000000	na
30.368033	0.049970	30.000000	nontarget	8.000000	na
30.418003	0.049704	30.000000	nontarget	9.000000	na
30.467707	0.049427	30.000000	nontarget	10.000000	na
30.517134	0.050786	30.000000	nontarget	11.000000	na
30.567920	0.050050	30.000000	nontarget	12.000000	na
30.617970	0.037753	30.000000	nontarget	13.000000	na
30.655723	0.045260	30.000000	nontarget	14.000000	na
30.700983	0.038163	30.000000	nontarget	15.000000	na
30.739145	0.044697	30.000000	nontarget	16.000000	na
30.783842	0.038629	31.000000	nontarget	1.000000	na
30.822471	0.045463	31.000000	nontarget	2.000000	na
30.867934	0.049263	31.000000	nontarget	3.000000	30.899167
30.917197	0.050758	31.000000	nontarget	4.000000	na
30.967955	0.050416	31.000000	nontarget	5.000000	na
31.018371	0.037398	31.000000	nontarget	6.000000	na
31.055768	0.045819	31.000000	nontarget	7.000000	na
31.101587	0.050007	31.000000	nontarget	8.000000	na
31.151594	0.050029	31.000000	nontarget	9.000000	na
31.201623	0.049625	31.000000	nontarget	10.000000	na
31.251248	0.037784	31.000000	nontarget	11.000000	na
31.289033	0.045602	31.000000	nontarget	12.000000	na
31.334635	0.049440	31.000000	nontarget	13.000000	na
31.384075	0.050481	31.000000	nontarget	14.000000	na
31.434556	0.050028	31.000000	nontarget	15.000000	na
31.484584	0.050013	31.000000	nontarget	16.000000	na
31.534597	0.049660	32.000000	nontarget	1.000000	na
31.584258	0.050328	32.000000	nontarget	2.000000	na
31.634586	0.050015	32.000000	nontarget	3.000000	na
31.684601	0.049978	32.000000	nontarget	4.000000	na
31.734579	0.050409	32.000000	nontarget	5.000000	31.752215
31.784988	0.049452	32.000000	nontarget	6.000000	na
31.834439	0.050176	32.000000	nontarget	7.000000	na
31.884616	0.050078	32.000000	nontarget	8.000000	na
31.934694	0.049671	32.000000	nontarget	9.000000	na
31.984365	0.050067	32.000000	nontarget	10.000000	na
32.034432	0.050051	32.000000	nontarget	11.000000	na
32.084483	0.050144	32.000000	nontarget	12.000000	na
32.134626	0.049946	32.000000	nontarget	13.000000	na
32.184573	0.049798	32.000000	nontarget	14.000000	na
32.234370	0.050195	32.000000	nontarget	15.000000	na
32.284565	0.050079	32.000000	nontarget	16.000000	na
32.334644	0.049966	33.000000	nontarget	1.000000	na
32.384610	0.049466	33.000000	nontarget	2.000000	na
32.434076	0.050578	33.000000	nontarget	3.000000	na
32.484654	0.049387	33.000000	nontarget	4.000000	na
32.534041	0.038738	33.000000	nontarget	5.000000	na
32.572779	0.045622	33.000000	nontarget	6.000000	32.582922
32.618401	0.049818	33.000000	nontarget	7.000000	na
32.668219	0.048945	33.000000	nontarget	8.000000	na
32.717164	0.038847	33.000000	nontarget	9.000000	na
32.756011	0.045295	33.000000	nontarget	10.000000	na
32.801306	0.050049	33.000000	nontarget	11.000000	na
32.851355	0.049966	33.000000	nontarget	12.000000	na
32.901321	0.049835	33.000000	nontarget	13.000000	na
32.951156	0.050002	33.000000	nontarget	14.000000	na
33.001158	0.050171	33.000000	nontarget	15.000000	na
33.051329	0.049634	33.000000	nontarget	16.000000	na
33.100963	0.049721	34.000000	nontarget	1.000000	na
33.150684	0.050170	34.000000	nontarget	2.000000	na
33.200854	0.038596	34.000000	nontarget	3.000000	na
33.239450	0.045180	34.000000	nontarget	4.000000	na
33.284630	0.049213	34.000000	nontarget	5.000000	na
33.333842	0.050070	34.000000	nontarget	6.000000	33.340605
33.383912	0.050785	34.000000	nontarget	7.000000	na
33.434697	0.049883	34.000000	nontarget	8.000000	na
33.484581	0.049724	34.000000	nontarget	9.000000	na
33.534304	0.050680	34.000000	nontarget	10.000000	na
33.584985	0.049121	34.000000	nontarget	11.000000	na
33.634106	0.050339	34.000000	nontarget	12.000000	na
33.684445	0.050229	34.000000	nontarget	13.000000	na
33.734674	0.049961	34.000000	nontarget	14.000000	na
33.784635	0.049899	34.000000	nontarget	15.000000	na
33.834534	0.050472	34.000000	nontarget	16.000000	na
33.885006	0.049686	35.000000	target	1.000000	na
33.934692	0.049985	35.000000	target	2.000000	na
33.984677	0.049856	35.000000	target	3.000000	na
34.034534	0.037497	35.000000	target	4.000000	na
34.072031	0.045735	35.000000	target	5.000000	na
34.117767	0.049886	35.000000	target	6.000000	na
34.167652	0.050443	35.000000	target	7.000000	na
34.218096	0.049633	35.000000	target	8.000000	na
34.267728	0.050610	35.000000	target	9.000000	na
34.318338	0.049057	35.000000	target	10.000000	na
34.367395	0.050898	35.000000	target	11.000000	na
34.418292	0.037563	35.000000	target	12.000000	na
34.455855	0.044931	35.000000	target	13.000000	na
34.500786	0.050564	35.000000	target	14.000000	na
34.551350	0.037949	35.000000	target	15.000000	na
34.589299	0.045344	35.000000	target	16.000000	34.618756
34.634643	0.049740	36.000000	nontarget	1.000000	34.640676
34.684383	0.050332	36.000000	nontarget	2.000000	na
34.734715	0.049242	36.000000	nontarget	3.000000	na
34.783957	0.038857	36.000000	nontarget	4.000000	na
34.822814	0.045251	36.000000	nontarget	5.000000	na
34.868065	0.049348	36.000000	nontarget	6.000000	na
34.917413	0.050565	36.000000	nontarget	7.000000	na
34.967978	0.050353	36.000000	nontarget	8.000000	na
35.018331	0.049836	36.000000	nontarget	9.000000	na
35.068167	0.049945	36.000000	nontarget	10.000000	na
35.118112	0.049843	36.000000	nontarget	11.000000	na
35.167955	0.049990	36.000000	nontarget	12.000000	na
35.217945	0.049884	36.000000	nontarget	13.000000	na
35.267829	0.049744	36.000000	nontarget	14.000000	na
35.317573	0.050487	36.000000	nontarget	15.000000	na
35.368059	0.050256	36.000000	nontarget	16.000000	na
35.418315	0.050156	37.000000	nontarget	1.000000	na
35.468472	0.049853	37.000000	nontarget	2.000000	na
35.518325	0.049189	37.000000	nontarget	3.000000	na
35.567514	0.050323	37.000000	nontarget	4.000000	na
35.617837	0.049931	37.000000	nontarget	5.000000	na
35.667768	0.050319	37.000000	nontarget	6.000000	na
35.718087	0.049889	37.000000	nontarget	7.000000	na
35.767976	0.049864	37.000000	nontarget	8.000000	35.783461
35.817840	0.050471	37.000000	nontarget	9.000000	na
35.868311	0.037742	37.000000	nontarget	10.000000	na
35.906053	0.044905	37.000000	nontarget	11.000000	na
35.950958	0.050061	37.000000	nontarget	12.000000	na
36.001019	0.050015	37.000000	nontarget	13.000000	na
36.051034	0.050465	37.000000	nontarget	14.000000	na
36.101499	0.049380	37.000000	nontarget	15.000000	na
36.150878	0.050454	37.000000	nontarget	16.000000	na
36.201332	0.050471	38.000000	nontarget	1.000000	na
36.251803	0.050016	38.000000	nontarget	2.000000	na
36.301819	0.048946	38.000000	nontarget	3.000000	na
36.350765	0.050826	38.000000	nontarget	4.000000	na
36.401591	0.050286	38.000000	nontarget	5.000000	na
36.451877	0.049694	38.000000	nontarget	6.000000	na
36.501571	0.049838	38.000000	nontarget	7.000000	na
36.551409	0.049885	38.000000	nontarget	8.000000	na
36.601294	0.050051	38.000000	nontarget	9.000000	36.613547
36.651345	0.049806	38.000000	nontarget	10.000000	na
36.701151	0.049999	38.000000	nontarget	11.000000	na
36.751150	0.050773	38.000000	nontarget	12.000000	na
36.801923	0.049641	38.000000	nontarget	13.000000	na
36.851564	0.037708	38.000000	nontarget	14.000000	na
36.889273	0.045641	38.000000	nontarget	15.000000	na
36.934914	0.050214	38.000000	nontarget	16.000000	na
36.985128	0.049848	39.000000	nontarget	1.000000	na
37.034975	0.049911	39.000000	nontarget	2.000000	na
37.084886	0.049787	39.000000	nontarget	3.000000	na
37.134673	0.049913	39.000000	nontarget	4.000000	na
37.184586	0.050019	39.000000	nontarget	5.000000	na
37.234605	0.050660	39.000000	nontarget	6.000000	na
37.285265	0.049652	39.000000	nontarget	7.000000	na
37.334917	0.049969	39.000000	nontarget	8.000000	na
37.384886	0.050287	39.000000	nontarget	9.000000	na
37.435173	0.049885	39.000000	nontarget	10.000000	na
37.485059	0.050183	39.000000	nontarget	11.000000	37.505727
37.535241	0.049989	39.000000	nontarget	12.000000	na
37.585231	0.049637	39.000000	nontarget	13.000000	na
37.634868	0.050116	39.000000	nontarget	14.000000	na
37.684984	0.037534	39.000000	nontarget	15.000000	na
37.722518	0.045615	39.000000	nontarget	16.000000	na
37.768133	0.050259	40.000000	nontarget	1.000000	na
37.818392	0.050273	40.000000	nontarget	2.000000	na
37.868665	0.049764	40.000000	nontarget	3.000000	na
37.918429	0.049797	40.000000	nontarget	4.000000	na
37.968225	0.050115	40.000000	nontarget	5.000000	na
38.018340	0.050258	40.000000	nontarget	6.000000	na
38.068599	0.049550	40.000000	nontarget	7.000000	na
38.118149	0.037679	40.000000	nontarget	8.000000	na
38.155828	0.045277	40.000000	nontarget	9.000000	na
38.201105	0.038124	40.000000	nontarget	10.000000	na
38.239229	0.045705	40.000000	nontarget	11.000000	na
38.284934	0.050360	40.000000	nontarget	12.000000	na
38.335293	0.049697	40.000000	nontarget	13.000000	na
38.384990	0.049609	40.000000	nontarget	14.000000	na
38.434600	0.037450	40.000000	nontarget	15.000000	na
38.472050	0.046301	40.000000	nontarget	16.000000	na
38.518351	0.049611	41.000000	nontarget	1.000000	na
38.567962	0.051231	41.000000	nontarget	2.000000	na
38.619193	0.049335	41.000000	nontarget	3.000000	38.625104
38.668528	0.049845	41.000000	nontarget	4.000000	na
38.718373	0.037606	41.000000	nontarget	5.000000	na
38.755979	0.045696	41.000000	nontarget	6.000000	na
38.801675	0.049950	41.000000	nontarget	7.000000	na
38.851624	0.050013	41.000000	nontarget	8.000000	na
38.901638	0.050336	41.000000	nontarget	9.000000	na
38.951973	0.049791	41.000000	nontarget	10.000000	na
39.001764	0.049633	41.000000	nontarget	11.000000	na
39.051396	0.050288	41.000000	nontarget	12.000000	na
39.101684	0.050164	41.000000	nontarget	13.000000	na
39.151848	0.049783	41.000000	nontarget	14.000000	na
39.201631	0.050012	41.000000	nontarget	15.000000	na
39.251643	0.050004	41.000000	nontarget	16.000000	na
39.301648	0.050429	42.000000	target	1.000000	na
39.352077	0.049543	42.000000	target	2.000000	na
39.401620	0.049251	42.000000	target	3.000000	na
39.450872	0.051087	42.000000	target	4.000000	na
39.501959	0.048929	42.000000	target	5.000000	na
39.550889	0.050758	42.000000	target	6.000000	na
39.601646	0.050050	42.000000	target	7.000000	na
39.651697	0.049961	42.000000	target	8.000000	na
39.701657	0.050036	42.000000	target	9.000000	na
39.751693	0.050023	42.000000	target	10.000000	na
39.801716	0.049585	42.000000	target	11.000000	na
39.851301	0.049919	42.000000	target	12.000000	na
39.901220	0.037666	42.000000	target	13.000000	na
39.938887	0.046046	42.000000	target	14.000000	na
39.984933	0.050410	42.000000	target	15.000000	na
40.035343	0.049683	42.000000	target	16.000000	na
40.085027	0.050067	43.000000	target	1.000000	na
40.135094	0.049745	43.000000	target	2.000000	na
40.184839	0.049931	43.000000	target	3.000000	na
40.234770	0.049985	43.000000	target	4.000000	40.254150
40.284755	0.050205	43.000000	target	5.000000	na
40.334960	0.049687	43.000000	target	6.000000	na
40.384647	0.050681	43.000000	target	7.000000	na
40.435328	0.049772	43.000000	target	8.000000	na
40.485100	0.050208	43.000000	target	9.000000	na
40.535308	0.049570	43.000000	target	10.000000	na
40.584878	0.050131	43.000000	target	11.000000	na
40.635009	0.050413	43.000000	target	12.000000	na
40.685422	0.049891	43.000000	target	13.000000	na
40.735313	0.049649	43.000000	target	14.000000	na
40.784963	0.050351	43.000000	target	15.000000	na
40.835313	0.049711	43.000000	target	16.000000	na
40.885024	0.037461	44.000000	nontarget	1.000000	na
40.922485	0.046000	44.000000	nontarget	2.000000	na
40.968485	0.050005	44.000000	nontarget	3.000000	na
41.018491	0.050206	44.000000	nontarget	4.000000	na
41.068696	0.049520	44.000000	nontarget	5.000000	na
41.118216	0.050205	44.000000	nontarget	6.000000	na
41.168421	0.037447	44.000000	nontarget	7.000000	na
41.205868	0.045614	44.000000	nontarget	8.000000	na
41.251482	0.050276	44.000000	nontarget	9.000000	na
41.301758	0.049799	44.000000	nontarget	10.000000	na
41.351557	0.050206	44.000000	nontarget	11.000000	na
41.401763	0.049611	44.000000	nontarget	12.000000	41.413269
41.451374	0.050750	44.000000	nontarget	13.000000	na
41.502123	0.049020	44.000000	nontarget	14.000000	na
41.551143	0.037914	44.000000	nontarget	15.000000	na
41.589057	0.045911	44.000000	nontarget	16.000000	na
41.634968	0.049980	45.000000	nontarget	1.000000	na
41.684948	0.049820	45.000000	nontarget	2.000000	na
41.734768	0.037484	45.000000	nontarget	3.000000	na
41.772252	0.045773	45.000000	nontarget	4.000000	na
41.818025	0.050372	45.000000	nontarget	5.000000	na
41.868397	0.049822	45.000000	nontarget	6.000000	na
41.918219	0.050145	45.000000	nontarget	7.000000	na
41.968364	0.050022	45.000000	nontarget	8.000000	na
42.018386	0.049866	45.000000	nontarget	9.000000	na
42.068252	0.050234	45.000000	nontarget	10.000000	na
42.118486	0.049808	45.000000	nontarget	11.000000	na
42.168294	0.050127	45.000000	nontarget	12.000000	na
42.218421	0.050147	45.000000	nontarget	13.000000	na
42.268568	0.049868	45.000000	nontarget	14.000000	na
42.318436	0.049219	45.000000	nontarget	15.000000	na
42.367655	0.050656	45.000000	nontarget	16.000000	na
42.418311	0.050268	46.000000	target	1.000000	na
42.468579	0.049517	46.000000	target	2.000000	na
42.518096	0.050005	46.000000	target	3.000000	na
42.568101	0.049902	46.000000	target	4.000000	na
42.618003	0.037452	46.000000	target	5.000000	na
42.655455	0.045641	46.000000	target	6.000000	na
42.701096	0.050911	46.000000	target	7.000000	na
42.752007	0.049371	46.000000	target	8.000000	na
42.801378	0.049786	46.000000	target	9.000000	na
42.851164	0.050644	46.000000	target	10.000000	na
42.901808	0.050319	46.000000	target	11.000000	na
42.952126	0.049971	46.000000	target	12.000000	na
43.002097	0.049289	46.000000	target	13.000000	na
43.051386	0.050474	46.000000	target	14.000000	na
43.101860	0.049698	46.000000	target	15.000000	na
43.151557	0.049688	46.000000	target	16.000000	na
43.201245	0.050680	47.000000	nontarget	1.000000	43.230355
43.251925	0.050180	47.000000	nontarget	2.000000	na
43.302105	0.049184	47.000000	nontarget	3.000000	na
43.351290	0.037515	47.000000	nontarget	4.000000	na
43.388805	0.046439	47.000000	nontarget	5.000000	na
43.435245	0.049840	47.000000	nontarget	6.000000	na
43.485085	0.050066	47.000000	nontarget	7.000000	na
43.535151	0.050200	47.000000	nontarget	8.000000	na
43.585351	0.049883	47.000000	nontarget	9.000000	na
43.635234	0.049919	47.000000	nontarget	10.000000	na
43.685153	0.050314	47.000000	nontarget	11.000000	na
43.735466	0.049341	47.000000	nontarget	12.000000	na
43.784807	0.050349	47.000000	nontarget	13.000000	na
43.835156	0.050052	47.000000	nontarget	14.000000	na
43.885209	0.049931	47.000000	nontarget	15.000000	na
43.935140	0.049942	47.000000	nontarget	16.000000	na
43.985082	0.050145	48.000000	target	1.000000	na
44.035226	0.049362	48.000000	target	2.000000	na
44.084588	0.050243	48.000000	target	3.000000	na
44.134831	0.050271	48.000000	target	4.000000	na
44.185102	0.049574	48.000000	target	5.000000	na
44.234676	0.050356	48.000000	target	6.000000	na
44.285032	0.050120	48.000000	target	7.000000	na
44.335152	0.049013	48.000000	target	8.000000	na
44.384165	0.050982	48.000000	target	9.000000	na
44.435147	0.049857	48.000000	target	10.000000	na
44.485004	0.050275	48.000000	target	11.000000	na
44.535279	0.049845	48.000000	target	12.000000	na
44.585125	0.049235	48.000000	target	13.000000	na
44.634359	0.050625	48.000000	target	14.000000	na
44.684985	0.049935	48.000000	target	15.000000	na
44.734920	0.037678	48.000000	target	16.000000	na
44.772598	0.045884	49.000000	target	1.000000	na
44.818482	0.050006	49.000000	target	2.000000	na
44.868488	0.050249	49.000000	target	3.000000	na
44.918738	0.049572	49.000000	target	4.000000	na
44.968310	0.049944	49.000000	target	5.000000	na
45.018254	0.050347	49.000000	target	6.000000	na
45.068600	0.049629	49.000000	target	7.000000	na
45.118230	0.050032	49.000000	target	8.000000	na
45.168261	0.037566	49.000000	target	9.000000	na
45.205827	0.045144	49.000000	target	10.000000	na
45.250971	0.051039	49.000000	target	11.000000	na
45.302010	0.049942	49.000000	target	12.000000	na
45.351952	0.049268	49.000000	target	13.000000	na
45.401220	0.050081	49.000000	target	14.000000	na
45.451301	0.050532	49.000000	target	15.000000	na
45.501833	0.049318	49.000000	target	16.000000	na
45.551150	0.050219	50.000000	nontarget	1.000000	na
45.601370	0.050452	50.000000	nontarget	2.000000	45.625033
45.651822	0.050038	50.000000	nontarget	3.000000	na
45.701860	0.050136	50.000000	nontarget	4.000000	na
45.751996	0.049696	50.000000	nontarget	5.000000	na
45.801692	0.049864	50.000000	nontarget	6.000000	na
45.851557	0.050270	50.000000	nontarget	7.000000	na
45.901827	0.050150	50.000000	nontarget	8.000000	na
45.951977	0.049833	50.000000	nontarget	9.000000	na
46.001810	0.050133	50.000000	nontarget	10.000000	na
46.051943	0.049586	50.000000	nontarget	11.000000	na
46.101529	0.049709	50.000000	nontarget	12.000000	na
46.151238	0.050278	50.000000	nontarget	13.000000	na
46.201516	0.049736	50.000000	nontarget	14.000000	na
46.251252	0.050010	50.000000	nontarget	15.000000	na
46.301262	0.050596	50.000000	nontarget	16.000000	na
46.351858	0.049381	51.000000	nontarget	1.000000	na
46.401239	0.050592	51.000000	nontarget	2.000000	na
46.451830	0.049803	51.000000	nontarget	3.000000	46.463343
46.501634	0.050232	51.000000	nontarget	4.000000	na
46.551866	0.050050	51.000000	nontarget	5.000000	na
46.601915	0.049984	51.000000	nontarget	6.000000	na
46.651899	0.049973	51.000000	nontarget	7.000000	na
46.701872	0.049698	51.000000	nontarget	8.000000	na
46.751570	0.050218	51.000000	nontarget	9.000000	na
46.801788	0.049384	51.000000	nontarget	10.000000	na
46.851172	0.050205	51.000000	nontarget	11.000000	na
46.901377	0.050609	51.000000	nontarget	12.000000	na
46.951986	0.049198	51.000000	nontarget	13.000000	na
47.001185	0.050117	51.000000	nontarget	14.000000	na
47.051301	0.049848	51.000000	nontarget	15.000000	na
47.101149	0.050605	51.000000	nontarget	16.000000	na
47.151755	0.049946	52.000000	nontarget	1.000000	na
47.201701	0.039135	52.000000	nontarget	2.000000	47.233294
47.240835	0.044391	52.000000	nontarget	3.000000	na
47.285227	0.049996	52.000000	nontarget	4.000000	na
47.335222	0.049936	52.000000	nontarget	5.000000	na
47.385159	0.049440	52.000000	nontarget	6.000000	na
47.434598	0.050619	52.000000	nontarget	7.000000	na
47.485218	0.049619	52.000000	nontarget	8.000000	na
47.534837	0.050139	52.000000	nontarget	9.000000	na
47.584976	0.050270	52.000000	nontarget	10.000000	na
47.635246	0.049981	52.000000	nontarget	11.000000	na
47.685227	0.050189	52.000000	nontarget	12.000000	na
47.735416	0.049799	52.000000	nontarget	13.000000	na
47.785215	0.049864	52.000000	nontarget	14.000000	na
47.835079	0.050138	52.000000	nontarget	15.000000	na
47.885217	0.050190	52.000000	nontarget	16.000000	na
47.935406	0.049867	53.000000	nontarget	1.000000	na
47.985273	0.049739	53.000000	nontarget	2.000000	na
48.035012	0.050263	53.000000	nontarget	3.000000	na
48.085275	0.049916	53.000000	nontarget	4.000000	48.106386
48.135191	0.050038	53.000000	nontarget	5.000000	na
48.185229	0.049344	53.000000	nontarget	6.000000	na
48.234572	0.050674	53.000000	nontarget	7.000000	na
48.285247	0.049564	53.000000	nontarget	8.000000	na
48.334811	0.049759	53.000000	nontarget	9.000000	na
48.384570	0.050668	53.000000	nontarget	10.000000	na
48.435238	0.050016	53.000000	nontarget	11.000000	na
48.485254	0.049916	53.000000	nontarget	12.000000	na
48.535170	0.049529	53.000000	nontarget	13.000000	na
48.584699	0.050687	53.000000	nontarget	14.000000	na
48.635386	0.049579	53.000000	nontarget	15.000000	na
48.684965	0.050105	53.000000	nontarget	16.000000	na
48.735070	0.050220	54.000000	nontarget	1.000000	na
48.785290	0.050028	54.000000	nontarget	2.000000	na
48.835318	0.049997	54.000000	nontarget	3.000000	na
48.885315	0.049845	54.000000	nontarget	4.000000	na
48.935160	0.050078	54.000000	nontarget	5.000000	na
48.985239	0.050078	54.000000	nontarget	6.000000	49.017877
49.035317	0.050362	54.000000	nontarget	7.000000	na
49.085679	0.049877	54.000000	nontarget	8.000000	na
49.135556	0.049206	54.000000	nontarget	9.000000	na
49.184762	0.050541	54.000000	nontarget	10.000000	na
49.235303	0.050128	54.000000	nontarget	11.000000	na
49.285431	0.049355	54.000000	nontarget	12.000000	na
49.334786	0.050866	54.000000	nontarget	13.000000	na
49.385653	0.049729	54.000000	nontarget	14.000000	na
49.435381	0.049954	54.000000	nontarget	15.000000	na
49.485335	0.049426	54.000000	nontarget	16.000000	na
49.534761	0.050890	55.000000	nontarget	1.000000	na
49.585652	0.049744	55.000000	nontarget	2.000000	na
49.635395	0.050279	55.000000	nontarget	3.000000	na
49.685674	0.049150	55.000000	nontarget	4.000000	na
49.734824	0.050438	55.000000	nontarget	5.000000	na
49.785262	0.049910	55.000000	nontarget	6.000000	na
49.835172	0.050378	55.000000	nontarget	7.000000	na
49.885549	0.049746	55.000000	nontarget	8.000000	na
49.935296	0.049920	55.000000	nontarget	9.000000	49.942069
49.985215	0.049659	55.000000	nontarget	10.000000	na
50.034874	0.050518	55.000000	nontarget	11.000000	na
50.085392	0.049941	55.000000	nontarget	12.000000	na
50.135333	0.049972	55.000000	nontarget	13.000000	na
50.185305	0.049951	55.000000	nontarget	14.000000	na
50.235257	0.050021	55.000000	nontarget	15.000000	na
50.285277	0.049878	55.000000	nontarget	16.000000	na
50.335155	0.050150	56.000000	nontarget	1.000000	na
50.385305	0.050321	56.000000	nontarget	2.000000	na
50.435625	0.049207	56.000000	nontarget	3.000000	na
50.484832	0.049970	56.000000	nontarget	4.000000	na
50.534802	0.050467	56.000000	nontarget	5.000000	na
50.585269	0.049975	56.000000	nontarget	6.000000	na
50.635244	0.050221	56.000000	nontarget	7.000000	na
50.685466	0.050194	56.000000	nontarget	8.000000	na
50.735660	0.049368	56.000000	nontarget	9.000000	na
50.785027	0.050244	56.000000	nontarget	10.000000	na
50.835271	0.050093	56.000000	nontarget	11.000000	50.851232
50.885365	0.049981	56.000000	nontarget	12.000000	na
50.935346	0.049500	56.000000	nontarget	13.000000	na
50.984846	0.050498	56.000000	nontarget	14.000000	na
51.035344	0.049729	56.000000	nontarget	15.000000	na
51.085072	0.050169	56.000000	nontarget	16.000000	na
51.135241	0.050216	57.000000	nontarget	1.000000	na
51.185457	0.049555	57.000000	nontarget	2.000000	na
51.235012	0.050717	57.000000	nontarget	3.000000	na
51.285729	0.049691	57.000000	nontarget	4.000000	na
51.335420	0.049919	57.000000	nontarget	5.000000	na
51.385339	0.049231	57.000000	nontarget	6.000000	na
51.434570	0.050546	57.000000	nontarget	7.000000	na
51.485116	0.050209	57.000000	nontarget	8.000000	na
51.535324	0.049575	57.000000	nontarget	9.000000	na
51.584899	0.050456	57.000000	nontarget	10.000000	na
51.635356	0.049407	57.000000	nontarget	11.000000	na
51.684763	0.050076	57.000000	nontarget	12.000000	51.700839
51.734838	0.050526	57.000000	nontarget	13.000000	na
51.785364	0.050123	57.000000	nontarget	14.000000	na
51.835487	0.049810	57.000000	nontarget	15.000000	na
51.885298	0.050091	57.000000	nontarget	16.000000	na
51.935389	0.049224	58.000000	nontarget	1.000000	na
51.984613	0.050981	58.000000	nontarget	2.000000	na
52.035595	0.049817	58.000000	nontarget	3.000000	na
52.085412	0.049990	58.000000	nontarget	4.000000	na
52.135402	0.049810	58.000000	nontarget	5.000000	na
52.185211	0.050090	58.000000	nontarget	6.000000	na
52.235302	0.050075	58.000000	nontarget	7.000000	na
52.285377	0.049722	58.000000	nontarget	8.000000	na
52.335099	0.049996	58.000000	nontarget	9.000000	na
52.385094	0.050251	58.000000	nontarget	10.000000	na
52.435345	0.049727	58.000000	nontarget	11.000000	na
52.485071	0.049922	58.000000	nontarget	12.000000	na
52.534994	0.049836	58.000000	nontarget	13.000000	na
52.584830	0.050665	58.000000	nontarget	14.000000	na
52.635495	0.050123	58.000000	nontarget	15.000000	na
52.685618	0.049946	58.000000	nontarget	16.000000	na
52.735564	0.049613	59.000000	nontarget	1.000000	na
52.785177	0.050110	59.000000	nontarget	2.000000	na
52.835287	0.049889	59.000000	nontarget	3.000000	52.854984
52.885177	0.050605	59.000000	nontarget	4.000000	na
52.935781	0.049635	59.000000	nontarget	5.000000	na
52.985416	0.049571	59.000000	nontarget	6.000000	na
53.034987	0.050427	59.000000	nontarget	7.000000	na
53.085414	0.049738	59.000000	nontarget	8.000000	na
53.135152	0.049463	59.000000	nontarget	9.000000	na
53.184614	0.050780	59.000000	nontarget	10.000000	na
53.235394	0.049972	59.000000	nontarget	11.000000	na
53.285366	0.049929	59.000000	nontarget	12.000000	na
53.335295	0.050113	59.000000	nontarget	13.000000	na
53.385408	0.050064	59.000000	nontarget	14.000000	na
53.435472	0.050006	59.000000	nontarget	15.000000	na
53.485478	0.049938	59.000000	nontarget	16.000000	na
53.535416	0.049985	60.000000	target	1.000000	na
53.585401	0.050025	60.000000	target	2.000000	na
53.635426	0.049980	60.000000	target	3.000000	na
53.685406	0.049995	60.000000	target	4.000000	na
53.735401	0.050036	60.000000	target	5.000000	na
53.785437	0.049810	60.000000	target	6.000000	na
53.835247	0.049348	60.000000	target	7.000000	na
53.884595	0.050383	60.000000	target	8.000000	na
53.934978	0.050442	60.000000	target	9.000000	na
53.985420	0.050244	60.000000	target	10.000000	na
54.035664	0.049703	60.000000	target	11.000000	na
54.085367	0.050082	60.000000	target	12.000000	na
54.135449	0.049207	60.000000	target	13.000000	na
54.184655	0.050500	60.000000	target	14.000000	na
54.235156	0.050291	60.000000	target	15.000000	na
54.285447	0.049940	60.000000	target	16.000000	na
54.335387	0.049720	61.000000	nontarget	1.000000	na
54.385107	0.050334	61.000000	nontarget	2.000000	na
54.435441	0.049748	61.000000	nontarget	3.000000	54.468589
54.485189	0.049589	61.000000	nontarget	4.000000	na
54.534778	0.050642	61.000000	nontarget	5.000000	na
54.585420	0.049496	61.000000	nontarget	6.000000	na
54.634916	0.050548	61.000000	nontarget	7.000000	na
54.685464	0.049685	61.000000	nontarget	8.000000	na
54.735150	0.050302	61.000000	nontarget	9.000000	na
54.785452	0.049074	61.000000	nontarget	10.000000	na
54.834525	0.050064	61.000000	nontarget	11.000000	na
54.884590	0.050836	61.000000	nontarget	12.000000	na
54.935426	0.049246	61.000000	nontarget	13.000000	na
54.984671	0.050844	61.000000	nontarget	14.000000	na
55.035515	0.050122	61.000000	nontarget	15.000000	na
55.085638	0.049919	61.000000	nontarget	16.000000	na
55.135556	0.049899	62.000000	nontarget	1.000000	na
55.185456	0.049257	62.000000	nontarget	2.000000	na
55.234713	0.050459	62.000000	nontarget	3.000000	55.254388
55.285172	0.050217	62.000000	nontarget	4.000000	na
55.335389	0.050064	62.000000	nontarget	5.000000	na
55.385453	0.049745	62.000000	nontarget	6.000000	na
55.435197	0.050145	62.000000	nontarget	7.000000	na
55.485342	0.049769	62.000000	nontarget	8.000000	na
55.535111	0.049783	62.000000	nontarget	9.000000	na
55.584894	0.050067	62.000000	nontarget	10.000000	na
55.634961	0.049899	62.000000	nontarget	11.000000	na
55.684860	0.050604	62.000000	nontarget	12.000000	na
55.735464	0.049558	62.000000	nontarget	13.000000	na
55.785022	0.049680	62.000000	nontarget	14.000000	na
55.834702	0.050372	62.000000	nontarget	15.000000	na
55.885074	0.049720	62.000000	nontarget	16.000000	na
55.934794	0.050313	63.000000	nontarget	1.000000	na
55.985107	0.050121	63.000000	nontarget	2.000000	na
56.035228	0.050319	63.000000	nontarget	3.000000	na
56.085547	0.049597	63.000000	nontarget	4.000000	na
56.135144	0.050362	63.000000	nontarget	5.000000	56.141665
56.185507	0.049769	63.000000	nontarget	6.000000	na
56.235276	0.049898	63.000000	nontarget	7.000000	na
56.285174	0.050256	63.000000	nontarget	8.000000	na
56.335430	0.050085	63.000000	nontarget	9.000000	na
56.385515	0.049423	63.000000	nontarget	10.000000	na
56.434938	0.050148	63.000000	nontarget	11.000000	na
56.485086	0.049742	63.000000	nontarget	12.000000	na
56.534828	0.050646	63.000000	nontarget	13.000000	na
56.585474	0.049888	63.000000	nontarget	14.000000	na
56.635362	0.050107	63.000000	nontarget	15.000000	na
56.685470	0.049943	63.000000	nontarget	16.000000	na
56.735412	0.049414	64.000000	nontarget	1.000000	na
56.784826	0.050326	64.000000	nontarget	2.000000	na
56.835152	0.049950	64.000000	nontarget	3.000000	na
56.885102	0.050412	64.000000	nontarget	4.000000	na
56.935514	0.049988	64.000000	nontarget	5.000000	na
56.985502	0.049802	64.000000	nontarget	6.000000	na
57.035304	0.050201	64.000000	nontarget	7.000000	57.041950
57.085505	0.050022	64.000000	nontarget	8.000000	na
57.135527	0.050076	64.000000	nontarget	9.000000	na
57.185602	0.049922	64.000000	nontarget	10.000000	na
57.235524	0.050063	64.000000	nontarget	11.000000	na
57.285587	0.049930	64.000000	nontarget	12.000000	na
57.335517	0.049962	64.000000	nontarget	13.000000	na
57.385479	0.050023	64.000000	nontarget	14.000000	na
57.435502	0.050061	64.000000	nontarget	15.000000	na
57.485563	0.049941	64.000000	nontarget	16.000000	na
57.535505	0.049855	65.000000	nontarget	1.000000	na
57.585359	0.050192	65.000000	nontarget	2.000000	na
57.635552	0.050080	65.000000	nontarget	3.000000	na
57.685632	0.049904	65.000000	nontarget	4.000000	na
57.735536	0.049893	65.000000	nontarget	5.000000	na
57.785429	0.049829	65.000000	nontarget	6.000000	na
57.835258	0.049628	65.000000	nontarget	7.000000	na
57.884887	0.049922	65.000000	nontarget	8.000000	na
57.934808	0.050696	65.000000	nontarget	9.000000	na
57.985504	0.049899	65.000000	nontarget	10.000000	na
58.035403	0.050248	65.000000	nontarget	11.000000	na
58.085651	0.049234	65.000000	nontarget	12.000000	na
58.134885	0.050556	65.000000	nontarget	13.000000	na
58.185441	0.049881	65.000000	nontarget	14.000000	na
58.235323	0.051466	65.000000	nontarget	15.000000	na
58.286789	0.048330	65.000000	nontarget	16.000000	58.292778
58.335118	0.049791	66.000000	nontarget	1.000000	58.341823
58.384909	0.050655	66.000000	nontarget	2.000000	na
58.435564	0.049870	66.000000	nontarget	3.000000	na
58.485434	0.050128	66.000000	nontarget	4.000000	na
58.535562	0.049203	66.000000	nontarget	5.000000	na
58.584765	0.050197	66.000000	nontarget	6.000000	na
58.634963	0.050570	66.000000	nontarget	7.000000	na
58.685533	0.050205	66.000000	nontarget	8.000000	na
58.735738	0.049046	66.000000	nontarget	9.000000	na
58.784784	0.050231	66.000000	nontarget	10.000000	na
58.835016	0.050504	66.000000	nontarget	11.000000	na
58.885519	0.049271	66.000000	nontarget	12.000000	na
58.934790	0.050792	66.000000	nontarget	13.000000	na
58.985583	0.049575	66.000000	nontarget	14.000000	na
59.035158	0.050192	66.000000	nontarget	15.000000	na
59.085350	0.050512	66.000000	nontarget	16.000000	59.092320
59.135862	0.049458	67.000000	nontarget	1.000000	59.142579
59.185320	0.050273	67.000000	nontarget	2.000000	na
59.235594	0.050133	67.000000	nontarget	3.000000	na
59.285726	0.049963	67.000000	nontarget	4.000000	na
59.335689	0.049775	67.000000	nontarget	5.000000	na
59.385464	0.049357	67.000000	nontarget	6.000000	na
59.434821	0.050740	67.000000	nontarget	7.000000	na
59.485561	0.050117	67.000000	nontarget	8.000000	na
59.535678	0.049841	67.000000	nontarget	9.000000	na
59.585519	0.050150	67.000000	nontarget	10.000000	na
59.635669	0.049129	67.000000	nontarget	11.000000	na
59.684798	0.050982	67.000000	nontarget	12.000000	na
59.735780	0.049516	67.000000	nontarget	13.000000	na
59.785296	0.049998	67.000000	nontarget	14.000000	na
59.835294	0.049646	67.000000	nontarget	15.000000	na
59.884940	0.050661	67.000000	nontarget	16.000000	na
59.935601	0.049833	68.000000	nontarget	1.000000	59.955854
59.985434	0.049725	68.000000	nontarget	2.000000	na
60.035159	0.050671	68.000000	nontarget	3.000000	na
60.085830	0.049808	68.000000	nontarget	4.000000	na
60.135638	0.049948	68.000000	nontarget	5.000000	na
60.185586	0.049655	68.000000	nontarget	6.000000	na
60.235241	0.050356	68.000000	nontarget	7.000000	na
60.285597	0.050006	68.000000	nontarget	8.000000	na
60.335603	0.050171	68.000000	nontarget	9.000000	na
60.385774	0.049592	68.000000	nontarget	10.000000	na
60.435367	0.050107	68.000000	nontarget	11.000000	na
60.485473	0.049682	68.000000	nontarget	12.000000	na
60.535155	0.050456	68.000000	nontarget	13.000000	na
60.585611	0.049423	68.000000	nontarget	14.000000	na
60.635034	0.050833	68.000000	nontarget	15.000000	na
60.685867	0.049235	68.000000	nontarget	16.000000	na
60.735102	0.049661	69.000000	nontarget	1.000000	na
60.784764	0.050884	69.000000	nontarget	2.000000	na
60.835648	0.049409	69.000000	nontarget	3.000000	na
60.885058	0.050740	69.000000	nontarget	4.000000	60.901147
60.935797	0.049188	69.000000	nontarget	5.000000	na
60.984985	0.050145	69.000000	nontarget	6.000000	na
61.035131	0.050289	69.000000	nontarget	7.000000	na
61.085420	0.049389	69.000000	nontarget	8.000000	na
61.134809	0.050940	69.000000	nontarget	9.000000	na
61.185749	0.049410	69.000000	nontarget	10.000000	na
61.235159	0.049998	69.000000	nontarget	11.000000	na
61.285157	0.049609	69.000000	nontarget	12.000000	na
61.334765	0.050093	69.000000	nontarget	13.000000	na
61.384858	0.050225	69.000000	nontarget	14.000000	na
61.435084	0.050187	69.000000	nontarget	15.000000	na
61.485271	0.049834	69.000000	nontarget	16.000000	na
61.535105	0.050449	70.000000	nontarget	1.000000	na
61.585554	0.049970	70.000000	nontarget	2.000000	na
61.635524	0.050025	70.000000	nontarget	3.000000	na
61.685548	0.050052	70.000000	nontarget	4.000000	na
61.735600	0.050040	70.000000	nontarget	5.000000	na
61.785640	0.049992	70.000000	nontarget	6.000000	na
61.835632	0.050121	70.000000	nontarget	7.000000	na
61.885753	0.049946	70.000000	nontarget	8.000000	na
61.935699	0.049533	70.000000	nontarget	9.000000	61.942338
61.985232	0.050493	70.000000	nontarget	10.000000	na
62.035725	0.050039	70.000000	nontarget	11.000000	na
62.085764	0.049547	70.000000	nontarget	12.000000	na
62.135312	0.050338	70.000000	nontarget	13.000000	na
62.185649	0.050027	70.000000	nontarget	14.000000	na
62.235676	0.049620	70.000000	nontarget	15.000000	na
62.285296	0.049587	70.000000	nontarget	16.000000	na
62.334882	0.050221	71.000000	nontarget	1.000000	na
62.385104	0.050784	71.000000	nontarget	2.000000	na
62.435888	0.049628	71.000000	nontarget	3.000000	na
62.485515	0.050161	71.000000	nontarget	4.000000	na
62.535677	0.050154	71.000000	nontarget	5.000000	na
62.585831	0.049655	71.000000	nontarget	6.000000	na
62.635486	0.050299	71.000000	nontarget	7.000000	na
62.685785	0.050056	71.000000	nontarget	8.000000	na
62.735841	0.049895	71.000000	nontarget	9.000000	na
62.785736	0.050191	71.000000	nontarget	10.000000	na
62.835927	0.049125	71.000000	nontarget	11.000000	na
62.885052	0.050635	71.000000	nontarget	12.000000	na
62.935687	0.049986	71.000000	nontarget	13.000000	na
62.985673	0.050016	71.000000	nontarget	14.000000	na
63.035689	0.050083	71.000000	nontarget	15.000000	na
63.085773	0.049778	71.000000	nontarget	16.000000	63.092474
63.135551	0.049678	72.000000	nontarget	1.000000	63.142348
63.185229	0.050195	72.000000	nontarget	2.000000	na
63.235424	0.049601	72.000000	nontarget	3.000000	na
63.285025	0.049767	72.000000	nontarget	4.000000	na
63.334791	0.050880	72.000000	nontarget	5.000000	na
63.385671	0.049095	72.000000	nontarget	6.000000	na
63.434767	0.050967	72.000000	nontarget	7.000000	na
63.485733	0.049677	72.000000	nontarget	8.000000	na
63.535410	0.050307	72.000000	nontarget	9.000000	na
63.585717	0.049980	72.000000	nontarget	10.000000	na
63.635697	0.049681	72.000000	nontarget	11.000000	na
63.685378	0.050332	72.000000	nontarget	12.000000	na
63.735710	0.050130	72.000000	nontarget	13.000000	na
63.785840	0.049819	72.000000	nontarget	14.000000	na
63.835658	0.049860	72.000000	nontarget	15.000000	na
63.885519	0.050204	72.000000	nontarget	16.000000	na
63.935722	0.050178	73.000000	nontarget	1.000000	na
63.985900	0.050073	73.000000	nontarget	2.000000	na
64.035973	0.049606	73.000000	nontarget	3.000000	na
64.085579	0.050158	73.000000	nontarget	4.000000	64.118352
64.135737	0.049522	73.000000	nontarget	5.000000	na
64.185259	0.050445	73.000000	nontarget	6.000000	na
64.235704	0.049241	73.000000	nontarget	7.000000	na
64.284945	0.050239	73.000000	nontarget	8.000000	na
64.335184	0.050434	73.000000	nontarget	9.000000	na
64.385618	0.050107	73.000000	nontarget	10.000000	na
64.435725	0.050133	73.000000	nontarget	11.000000	na
64.485858	0.050149	73.000000	nontarget	12.000000	na
64.536007	0.050003	73.000000	nontarget	13.000000	na
64.586010	0.049668	73.000000	nontarget	14.000000	na
64.635678	0.049993	73.000000	nontarget	15.000000	na
64.685670	0.050039	73.000000	nontarget	16.000000	na
64.735709	0.050002	74.000000	nontarget	1.000000	na
64.785712	0.049943	74.000000	nontarget	2.000000	na
64.835654	0.049450	74.000000	nontarget	3.000000	na
64.885104	0.050924	74.000000	nontarget	4.000000	na
64.936028	0.049795	74.000000	nontarget	5.000000	na
64.985823	0.049399	74.000000	nontarget	6.000000	64.998951
65.035222	0.050552	74.000000	nontarget	7.000000	na
65.085774	0.049936	74.000000	nontarget	8.000000	na
65.135710	0.050024	74.000000	nontarget	9.000000	na
65.185734	0.049996	74.000000	nontarget	10.000000	na
65.235731	0.050001	74.000000	nontarget	11.000000	na
65.285731	0.050277	74.000000	nontarget	12.000000	na
65.336008	0.049547	74.000000	nontarget	13.000000	na
65.385556	0.049924	74.000000	nontarget	14.000000	na
65.435480	0.050533	74.000000	nontarget	15.000000	na
65.486013	0.049786	74.000000	nontarget	16.000000	na
65.535799	0.049931	75.000000	nontarget	1.000000	na
65.585731	0.049868	75.000000	nontarget	2.000000	na
65.635599	0.050483	75.000000	nontarget	3.000000	na
65.686082	0.049253	75.000000	nontarget	4.000000	na
65.735335	0.050516	75.000000	nontarget	5.000000	na
65.785851	0.049302	75.000000	nontarget	6.000000	na
65.835153	0.050416	75.000000	nontarget	7.000000	65.841793
65.885569	0.050093	75.000000	nontarget	8.000000	na
65.935662	0.050137	75.000000	nontarget	9.000000	na
65.985798	0.049742	75.000000	nontarget	10.000000	na
66.035541	0.050255	75.000000	nontarget	11.000000	na
66.085796	0.050032	75.000000	nontarget	12.000000	na
66.135828	0.050252	75.000000	nontarget	13.000000	na
66.186080	0.049338	75.000000	nontarget	14.000000	na
66.235417	0.050381	75.000000	nontarget	15.000000	na
66.285798	0.050031	75.000000	nontarget	16.000000	na
66.335829	0.050109	76.000000	nontarget	1.000000	na
66.385938	0.049618	76.000000	nontarget	2.000000	na
66.435556	0.049732	76.000000	nontarget	3.000000	na
66.485288	0.050835	76.000000	nontarget	4.000000	na
66.536122	0.050030	76.000000	nontarget	5.000000	na
66.586153	0.049616	76.000000	nontarget	6.000000	na
66.635768	0.049597	76.000000	nontarget	7.000000	na
66.685366	0.050456	76.000000	nontarget	8.000000	na
66.735822	0.049938	76.000000	nontarget	9.000000	66.759761
66.785759	0.049912	76.000000	nontarget	10.000000	na
66.835671	0.049949	76.000000	nontarget	11.000000	na
66.885620	0.050060	76.000000	nontarget	12.000000	na
66.935681	0.050077	76.000000	nontarget	13.000000	na
66.985758	0.050061	76.000000	nontarget	14.000000	na
67.035819	0.049949	76.000000	nontarget	15.000000	na
67.085768	0.050051	76.000000	nontarget	16.000000	na
67.135820	0.050131	77.000000	nontarget	1.000000	na
67.185950	0.049888	77.000000	nontarget	2.000000	na
67.235838	0.049995	77.000000	nontarget	3.000000	na
67.285833	0.049981	77.000000	nontarget	4.000000	na
67.335814	0.050323	77.000000	nontarget	5.000000	na
67.386137	0.049014	77.000000	nontarget	6.000000	na
67.435151	0.050651	77.000000	nontarget	7.000000	na
67.485801	0.050198	77.000000	nontarget	8.000000	na
67.535999	0.050059	77.000000	nontarget	9.000000	na
67.586058	0.050003	77.000000	nontarget	10.000000	na
67.636060	0.049770	77.000000	nontarget	11.000000	67.660829
67.685830	0.050288	77.000000	nontarget	12.000000	na
67.736119	0.049731	77.000000	nontarget	13.000000	na
67.785850	0.049585	77.000000	nontarget	14.000000	na
67.835435	0.049845	77.000000	nontarget	15.000000	na
67.885280	0.050354	77.000000	nontarget	16.000000	na
67.935634	0.050150	78.000000	nontarget	1.000000	na
67.985785	0.050006	78.000000	nontarget	2.000000	na
68.035790	0.049922	78.000000	nontarget	3.000000	na
68.085712	0.050287	78.000000	nontarget	4.000000	na
68.135999	0.049393	78.000000	nontarget	5.000000	na
68.185392	0.049820	78.000000	nontarget	6.000000	na
68.235212	0.050511	78.000000	nontarget	7.000000	na
68.285723	0.049652	78.000000	nontarget	8.000000	na
68.335375	0.050444	78.000000	nontarget	9.000000	na
68.385820	0.049877	78.000000	nontarget	10.000000	na
68.435697	0.050120	78.000000	nontarget	11.000000	na
68.485816	0.049996	78.000000	nontarget	12.000000	na
68.535813	0.049820	78.000000	nontarget	13.000000	na
68.585633	0.050109	78.000000	nontarget	14.000000	na
68.635742	0.050388	78.000000	nontarget	15.000000	68.663723
68.686131	0.049689	78.000000	nontarget	16.000000	na
68.735820	0.050015	79.000000	nontarget	1.000000	68.742433
68.785835	0.049336	79.000000	nontarget	2.000000	na
68.835171	0.050842	79.000000	nontarget	3.000000	na
68.886013	0.048879	79.000000	nontarget	4.000000	na
68.934892	0.051074	79.000000	nontarget	5.000000	na
68.985966	0.049248	79.000000	nontarget	6.000000	na
69.035214	0.050818	79.000000	nontarget	7.000000	na
69.086032	0.049306	79.000000	nontarget	8.000000	na
69.135338	0.055401	79.000000	nontarget	9.000000	na
69.190739	0.044570	79.000000	nontarget	10.000000	na
69.235309	0.050497	79.000000	nontarget	11.000000	na
69.285806	0.049996	79.000000	nontarget	12.000000	na
69.335803	0.049992	79.000000	nontarget	13.000000	na
69.385794	0.049857	79.000000	nontarget	14.000000	na
69.435651	0.049672	79.000000	nontarget	15.000000	na
69.485323	0.050337	79.000000	nontarget	16.000000	na
69.535660	0.050136	80.000000	nontarget	1.000000	na
69.585796	0.050027	80.000000	nontarget	2.000000	na
69.635823	0.050305	80.000000	nontarget	3.000000	69.651798
69.686128	0.049911	80.000000	nontarget	4.000000	na
69.736039	0.049900	80.000000	nontarget	5.000000	na
69.785939	0.049189	80.000000	nontarget	6.000000	na
69.835128	0.050687	80.000000	nontarget	7.000000	na
69.885815	0.049622	80.000000	nontarget	8.000000	na
69.935437	0.050325	80.000000	nontarget	9.000000	na
69.985762	0.049783	80.000000	nontarget	10.000000	na
70.035546	0.050244	80.000000	nontarget	11.000000	na
70.085789	0.050060	80.000000	nontarget	12.000000	na
70.135849	0.049582	80.000000	nontarget	13.000000	na
70.185431	0.050385	80.000000	nontarget	14.000000	na
70.235816	0.049997	80.000000	nontarget	15.000000	na
70.285813	0.050275	80.000000	nontarget	16.000000	na
70.336089	0.049438	81.000000	nontarget	1.000000	na
70.385526	0.050242	81.000000	nontarget	2.000000	na
70.435768	0.050146	81.000000	nontarget	3.000000	70.455361
70.485913	0.049974	81.000000	nontarget	4.000000	na
70.535887	0.049211	81.000000	nontarget	5.000000	na
70.585098	0.050062	81.000000	nontarget	6.000000	na
70.635160	0.050757	81.000000	nontarget	7.000000	na
70.685916	0.050003	81.000000	nontarget	8.000000	na
70.735920	0.049788	81.000000	nontarget	9.000000	na
70.785708	0.049851	81.000000	nontarget	10.000000	na
70.835558	0.050333	81.000000	nontarget	11.000000	na
70.885892	0.050152	81.000000	nontarget	12.000000	na
70.936044	0.049976	81.000000	nontarget	13.000000	na
70.986020	0.049107	81.000000	nontarget	14.000000	na
71.035127	0.050021	81.000000	nontarget	15.000000	na
71.085148	0.050120	81.000000	nontarget	16.000000	na
71.135268	0.050669	82.000000	nontarget	1.000000	na
71.185938	0.049971	82.000000	nontarget	2.000000	na
71.235909	0.049748	82.000000	nontarget	3.000000	na
71.285657	0.050117	82.000000	nontarget	4.000000	71.317405
71.335774	0.049769	82.000000	nontarget	5.000000	na
71.385543	0.049648	82.000000	nontarget	6.000000	na
71.435191	0.050668	82.000000	nontarget	7.000000	na
71.485858	0.049305	82.000000	nontarget	8.000000	na
71.535163	0.050706	82.000000	nontarget	9.000000	na
71.585869	0.050065	82.000000	nontarget	10.000000	na
71.635934	0.049924	82.000000	nontarget	11.000000	na
71.685858	0.050096	82.000000	nontarget	12.000000	na
71.735954	0.049963	82.000000	nontarget	13.000000	na
71.785917	0.049150	82.000000	nontarget	14.000000	na
71.835067	0.050793	82.000000	nontarget	15.000000	na
71.885860	0.049825	82.000000	nontarget	16.000000	na
71.935685	0.049726	83.000000	nontarget	1.000000	na
71.985411	0.050356	83.000000	nontarget	2.000000	na
72.035767	0.049665	83.000000	nontarget	3.000000	na
72.085432	0.050705	83.000000	nontarget	4.000000	na
72.136137	0.049705	83.000000	nontarget	5.000000	72.152166
72.185842	0.049724	83.000000	nontarget	6.000000	na
72.235567	0.050609	83.000000	nontarget	7.000000	na
72.286176	0.049294	83.000000	nontarget	8.000000	na
72.335469	0.050487	83.000000	nontarget	9.000000	na
72.385957	0.049990	83.000000	nontarget	10.000000	na
72.435947	0.049989	83.000000	nontarget	11.000000	na
72.485936	0.050002	83.000000	nontarget	12.000000	na
72.535938	0.049374	83.000000	nontarget	13.000000	na
72.585311	0.050161	83.000000	nontarget	14.000000	na
72.635472	0.050583	83.000000	nontarget	15.000000	na
72.686055	0.049229	83.000000	nontarget	16.000000	na
72.735284	0.050858	84.000000	nontarget	1.000000	na
72.786142	0.049640	84.000000	nontarget	2.000000	na
72.835782	0.050090	84.000000	nontarget	3.000000	na
72.885872	0.050087	84.000000	nontarget	4.000000	72.914692
72.935959	0.049943	84.000000	nontarget	5.000000	na
72.985903	0.050070	84.000000	nontarget	6.000000	na
73.035973	0.049364	84.000000	nontarget	7.000000	na
73.085336	0.050724	84.000000	nontarget	8.000000	na
73.136060	0.049454	84.000000	nontarget	9.000000	na
73.185514	0.050455	84.000000	nontarget	10.000000	na
73.235969	0.050003	84.000000	nontarget	11.000000	na
73.285972	0.049819	84.000000	nontarget	12.000000	na
73.335792	0.050286	84.000000	nontarget	13.000000	na
73.386078	0.049895	84.000000	nontarget	14.000000	na
73.435973	0.049408	84.000000	nontarget	15.000000	na
73.485380	0.050364	84.000000	nontarget	16.000000	na
73.535744	0.050295	85.000000	nontarget	1.000000	na
73.586039	0.049930	85.000000	nontarget	2.000000	na
73.635969	0.050002	85.000000	nontarget	3.000000	na
73.685971	0.049857	85.000000	nontarget	4.000000	na
73.735828	0.050336	85.000000	nontarget	5.000000	73.760526
73.786164	0.049861	85.000000	nontarget	6.000000	na
73.836025	0.049947	85.000000	nontarget	7.000000	na
73.885972	0.050167	85.000000	nontarget	8.000000	na
73.936139	0.049832	85.000000	nontarget	9.000000	na
73.985971	0.050183	85.000000	nontarget	10.000000	na
74.036154	0.049727	85.000000	nontarget	11.000000	na
74.085880	0.050275	85.000000	nontarget	12.000000	na
74.136156	0.049885	85.000000	nontarget	13.000000	na
74.186041	0.049342	85.000000	nontarget	14.000000	na
74.235383	0.050649	85.000000	nontarget	15.000000	na
74.286032	0.049936	85.000000	nontarget	16.000000	na
74.335968	0.049853	86.000000	nontarget	1.000000	na
74.385821	0.050344	86.000000	nontarget	2.000000	na
74.436165	0.049951	86.000000	nontarget	3.000000	na
74.486116	0.049851	86.000000	nontarget	4.000000	na
74.535966	0.049932	86.000000	nontarget	5.000000	na
74.585899	0.050068	86.000000	nontarget	6.000000	na
74.635966	0.049851	86.000000	nontarget	7.000000	na
74.685818	0.050098	86.000000	nontarget	8.000000	74.701793
74.735916	0.050144	86.000000	nontarget	9.000000	na
74.786060	0.049967	86.000000	nontarget	10.000000	na
74.836027	0.049697	86.000000	nontarget	11.000000	na
74.885723	0.049830	86.000000	nontarget	12.000000	na
74.935553	0.049978	86.000000	nontarget	13.000000	na
74.985531	0.050540	86.000000	nontarget	14.000000	na
75.036071	0.049647	86.000000	nontarget	15.000000	na
75.085718	0.049663	86.000000	nontarget	16.000000	na
75.135382	0.050665	87.000000	nontarget	1.000000	na
75.186046	0.049966	87.000000	nontarget	2.000000	na
75.236012	0.050041	87.000000	nontarget	3.000000	na
75.286053	0.049301	87.000000	nontarget	4.000000	na
75.335354	0.050723	87.000000	nontarget	5.000000	na
75.386078	0.049034	87.000000	nontarget	6.000000	na
75.435112	0.050442	87.000000	nontarget	7.000000	na
75.485554	0.050091	87.000000	nontarget	8.000000	na
75.535645	0.050383	87.000000	nontarget	9.000000	na
75.586028	0.050019	87.000000	nontarget	10.000000	na
75.636047	0.050043	87.000000	nontarget	11.000000	na
75.686090	0.049436	87.000000	nontarget	12.000000	75.692692
75.735526	0.050660	87.000000	nontarget	13.000000	na
75.786186	0.049656	87.000000	nontarget	14.000000	na
75.835843	0.050238	87.000000	nontarget	15.000000	na
75.886081	0.049897	87.000000	nontarget	16.000000	na
75.935978	0.050152	88.000000	target	1.000000	na
75.986130	0.049805	88.000000	target	2.000000	na
76.035935	0.049639	88.000000	target	3.000000	na
76.085573	0.049841	88.000000	target	4.000000	na
76.135415	0.049889	88.000000	target	5.000000	na
76.185304	0.050831	88.000000	target	6.000000	na
76.236135	0.049299	88.000000	target	7.000000	na
76.285434	0.050674	88.000000	target	8.000000	na
76.336108	0.049369	88.000000	target	9.000000	na
76.385478	0.050610	88.000000	target	10.000000	na
76.436088	0.050146	88.000000	target	11.000000	na
76.486233	0.049832	88.000000	target	12.000000	na
76.536066	0.049453	88.000000	target	13.000000	na
76.585519	0.050595	88.000000	target	14.000000	na
76.636113	0.049191	88.000000	target	15.000000	na
76.685305	0.050877	88.000000	target	16.000000	na
76.736182	0.049943	89.000000	nontarget	1.000000	na
76.786125	0.050034	89.000000	nontarget	2.000000	na
76.836159	0.049114	89.000000	nontarget	3.000000	na
76.885273	0.050503	89.000000	nontarget	4.000000	na
76.935776	0.050386	89.000000	nontarget	5.000000	na
76.986162	0.051936	89.000000	nontarget	6.000000	na
77.038098	0.047109	89.000000	nontarget	7.000000	77.044132
77.085207	0.050707	89.000000	nontarget	8.000000	na
77.135914	0.050214	89.000000	nontarget	9.000000	na
77.186128	0.049516	89.000000	nontarget	10.000000	na
77.235644	0.050570	89.000000	nontarget	11.000000	na
77.286214	0.049888	89.000000	nontarget	12.000000	na
77.336102	0.050086	89.000000	nontarget	13.000000	na
77.386189	0.049951	89.000000	nontarget	14.000000	na
77.436140	0.049885	89.000000	nontarget	15.000000	na
77.486025	0.049848	89.000000	nontarget	16.000000	na
77.535873	0.049675	90.000000	nontarget	1.000000	na
77.585548	0.050548	90.000000	nontarget	2.000000	na
77.636097	0.050077	90.000000	nontarget	3.000000	na
77.686174	0.049929	90.000000	nontarget	4.000000	na
77.736103	0.050053	90.000000	nontarget	5.000000	na
77.786156	0.049947	90.000000	nontarget	6.000000	na
77.836103	0.050004	90.000000	nontarget	7.000000	na
77.886106	0.049334	90.000000	nontarget	8.000000	77.913759
77.935440	0.050233	90.000000	nontarget	9.000000	na
77.985673	0.050156	90.000000	nontarget	10.000000	na
78.035829	0.050328	90.000000	nontarget	11.000000	na
78.086157	0.049925	90.000000	nontarget	12.000000	na
78.136083	0.049835	90.000000	nontarget	13.000000	na
78.185918	0.050465	90.000000	nontarget	14.000000	na
78.236383	0.049760	90.000000	nontarget	15.000000	na
78.286143	0.049923	90.000000	nontarget	16.000000	na
78.336066	0.050054	91.000000	nontarget	1.000000	na
78.386121	0.049238	91.000000	nontarget	2.000000	na
78.435358	0.050773	91.000000	nontarget	3.000000	na
78.486131	0.049882	91.000000	nontarget	4.000000	na
78.536013	0.050089	91.000000	nontarget	5.000000	na
78.586103	0.049074	91.000000	nontarget	6.000000	na
78.635176	0.050462	91.000000	nontarget	7.000000	na
78.685638	0.050005	91.000000	nontarget	8.000000	na
78.735643	0.050517	91.000000	nontarget	9.000000	78.750070
78.786161	0.050019	91.000000	nontarget	10.000000	na
78.836180	0.050097	91.000000	nontarget	11.000000	na
78.886277	0.049390	91.000000	nontarget	12.000000	na
78.935666	0.049978	91.000000	nontarget	13.000000	na
78.985645	0.050515	91.000000	nontarget	14.000000	na
79.036160	0.050096	91.000000	nontarget	15.000000	na
79.086256	0.049895	91.000000	nontarget	16.000000	na
79.136150	0.050448	92.000000	nontarget	1.000000	na
79.186598	0.049547	92.000000	nontarget	2.000000	na
79.236146	0.049608	92.000000	nontarget	3.000000	na
79.285754	0.050263	92.000000	nontarget	4.000000	na
79.336017	0.050105	92.000000	nontarget	5.000000	na
79.386122	0.050020	92.000000	nontarget	6.000000	na
79.436141	0.050393	92.000000	nontarget	7.000000	na
79.486534	0.049227	92.000000	nontarget	8.000000	na
79.535761	0.050478	92.000000	nontarget	9.000000	na
79.586240	0.049795	92.000000	nontarget	10.000000	na
79.636035	0.050109	92.000000	nontarget	11.000000	na
79.686144	0.050367	92.000000	nontarget	12.000000	79.713619
79.736511	0.049736	92.000000	nontarget	13.000000	na
79.786247	0.050187	92.000000	nontarget	14.000000	na
79.836434	0.049718	92.000000	nontarget	15.000000	na
79.886152	0.050039	92.000000	nontarget	16.000000	na
79.936191	0.050293	93.000000	nontarget	1.000000	na
79.986484	0.049173	93.000000	nontarget	2.000000	na
80.035657	0.050516	93.000000	nontarget	3.000000	na
80.086173	0.049972	93.000000	nontarget	4.000000	na
80.136145	0.049674	93.000000	nontarget	5.000000	na
80.185819	0.050573	93.000000	nontarget	6.000000	na
80.236392	0.049290	93.000000	nontarget	7.000000	na
80.285682	0.050398	93.000000	nontarget	8.000000	na
80.336080	0.049908	93.000000	nontarget	9.000000	na
80.385988	0.050172	93.000000	nontarget	10.000000	na
80.436160	0.050001	93.000000	nontarget	11.000000	na
80.486161	0.050186	93.000000	nontarget	12.000000	na
80.536347	0.049817	93.000000	nontarget	13.000000	na
80.586164	0.050317	93.000000	nontarget	14.000000	na
80.636481	0.049601	93.000000	nontarget	15.000000	na
80.686082	0.050063	93.000000	nontarget	16.000000	na
80.736145	0.050393	94.000000	nontarget	1.000000	80.742886
80.786538	0.049601	94.000000	nontarget	2.000000	na
80.836140	0.050105	94.000000	nontarget	3.000000	na
80.886244	0.049718	94.000000	nontarget	4.000000	na
80.935962	0.050296	94.000000	nontarget	5.000000	na
80.986258	0.050033	94.000000	nontarget	6.000000	na
81.036290	0.049854	94.000000	nontarget	7.000000	na
81.086145	0.050358	94.000000	nontarget	8.000000	na
81.136503	0.049654	94.000000	nontarget	9.000000	na
81.186156	0.050031	94.000000	nontarget	10.000000	na
81.236187	0.050071	94.000000	nontarget	11.000000	na
81.286258	0.049905	94.000000	nontarget	12.000000	na
81.336163	0.050003	94.000000	nontarget	13.000000	na
81.386166	0.049697	94.000000	nontarget	14.000000	na
81.435863	0.050364	94.000000	nontarget	15.000000	na
81.486227	0.049718	94.000000	nontarget	16.000000	na
81.535945	0.050001	95.000000	nontarget	1.000000	na
81.585946	0.050062	95.000000	nontarget	2.000000	81.601738
81.636008	0.049999	95.000000	nontarget	3.000000	na
81.686007	0.050383	95.000000	nontarget	4.000000	na
81.736390	0.049238	95.000000	nontarget	5.000000	na
81.785628	0.050755	95.000000	nontarget	6.000000	na
81.836383	0.050047	95.000000	nontarget	7.000000	na
81.886430	0.049682	95.000000	nontarget	8.000000	na
81.936112	0.050439	95.000000	nontarget	9.000000	na
81.986551	0.049561	95.000000	nontarget	10.000000	na
82.036112	0.049866	95.000000	nontarget	11.000000	na
82.085978	0.050021	95.000000	nontarget	12.000000	na
82.135998	0.049961	95.000000	nontarget	13.000000	na
82.185959	0.050028	95.000000	nontarget	14.000000	na
82.235987	0.049814	95.000000	nontarget	15.000000	na
82.285801	0.050749	95.000000	nontarget	16.000000	na
82.336551	0.049720	96.000000	nontarget	1.000000	na
82.386270	0.049723	96.000000	nontarget	2.000000	na
82.435993	0.050612	96.000000	nontarget	3.000000	82.452235
82.486605	0.049936	96.000000	nontarget	4.000000	na
82.536541	0.049695	96.000000	nontarget	5.000000	na
82.586236	0.050119	96.000000	nontarget	6.000000	na
82.636355	0.050199	96.000000	nontarget	7.000000	na
82.686554	0.049555	96.000000	nontarget	8.000000	na
82.736109	0.049421	96.000000	nontarget	9.000000	na
82.785529	0.050107	96.000000	nontarget	10.000000	na
82.835636	0.050799	96.000000	nontarget	11.000000	na
82.886435	0.049460	96.000000	nontarget	12.000000	na
82.935895	0.050717	96.000000	nontarget	13.000000	na
82.986613	0.049541	96.000000	nontarget	14.000000	na
83.036154	0.049496	96.000000	nontarget	15.000000	na
83.085650	0.050711	96.000000	nontarget	16.000000	na
83.136361	0.050165	97.000000	nontarget	1.000000	na
83.186526	0.049726	97.000000	nontarget	2.000000	na
83.236252	0.049840	97.000000	nontarget	3.000000	83.256068
83.286093	0.049598	97.000000	nontarget	4.000000	na
83.335690	0.050780	97.000000	nontarget	5.000000	na
83.386470	0.049913	97.000000	nontarget	6.000000	na
83.436383	0.050030	97.000000	nontarget	7.000000	na
83.486413	0.049788	97.000000	nontarget	8.000000	na
83.536201	0.049428	97.000000	nontarget	9.000000	na
83.585630	0.050679	97.000000	nontarget	10.000000	na
83.636308	0.049893	97.000000	nontarget	11.000000	na
83.686201	0.049704	97.000000	nontarget	12.000000	na
83.735905	0.050303	97.000000	nontarget	13.000000	na
83.786209	0.049894	97.000000	nontarget	14.000000	na
83.836103	0.050027	97.000000	nontarget	15.000000	na
83.886130	0.050381	97.000000	nontarget	16.000000	na
83.936510	0.049737	98.000000	nontarget	1.000000	na
83.986247	0.050050	98.000000	nontarget	2.000000	na
84.036297	0.049905	98.000000	nontarget	3.000000	84.052001
84.086202	0.049886	98.000000	nontarget	4.000000	na
84.136088	0.050111	98.000000	nontarget	5.000000	na
84.186199	0.050109	98.000000	nontarget	6.000000	na
84.236307	0.049617	98.000000	nontarget	7.000000	na
84.285925	0.049641	98.000000	nontarget	8.000000	na
84.335566	0.050747	98.000000	nontarget	9.000000	na
84.386313	0.049705	98.000000	nontarget	10.000000	na
84.436017	0.050183	98.000000	nontarget	11.000000	na
84.486200	0.050109	98.000000	nontarget	12.000000	na
84.536309	0.049981	98.000000	nontarget	13.000000	na
84.586290	0.049998	98.000000	nontarget	14.000000	na
84.636288	0.049514	98.000000	nontarget	15.000000	na
84.685801	0.050509	98.000000	nontarget	16.000000	na
84.736311	0.049965	99.000000	nontarget	1.000000	na
84.786276	0.050089	99.000000	nontarget	2.000000	84.802505
84.836365	0.049999	99.000000	nontarget	3.000000	na
84.886363	0.049952	99.000000	nontarget	4.000000	na
84.936316	0.049878	99.000000	nontarget	5.000000	na
84.986194	0.050305	99.000000	nontarget	6.000000	na
85.036499	0.049748	99.000000	nontarget	7.000000	na
85.086247	0.049776	99.000000	nontarget	8.000000	na
85.136023	0.050526	99.000000	nontarget	9.000000	na
85.186549	0.049534	99.000000	nontarget	10.000000	na
85.236084	0.049987	99.000000	nontarget	11.000000	na
85.286071	0.049893	99.000000	nontarget	12.000000	na
85.335964	0.050248	99.000000	nontarget	13.000000	na
85.386212	0.050069	99.000000	nontarget	14.000000	na
85.436281	0.050059	99.000000	nontarget	15.000000	na
85.486340	0.049946	99.000000	nontarget	16.000000	na
85.536286	0.050052	100.000000	nontarget	1.000000	na
85.586338	0.049451	100.000000	nontarget	2.000000	85.591870
85.635789	0.050592	100.000000	nontarget	3.000000	na
85.686382	0.049518	100.000000	nontarget	4.000000	na
85.735899	0.049997	100.000000	nontarget	5.000000	na
85.785896	0.050478	100.000000	nontarget	6.000000	na
85.836374	0.049905	100.000000	nontarget	7.000000	na
85.886279	0.049921	100.000000	nontarget	8.000000	na
85.936200	0.050277	100.000000	nontarget	9.000000	na
85.986477	0.050058	100.000000	nontarget	10.000000	na
86.036535	0.049506	100.000000	nontarget	11.000000	na
86.086041	0.049776	100.000000	nontarget	12.000000	na
86.135816	0.050723	100.000000	nontarget	13.000000	na
86.186540	0.049472	100.000000	nontarget	14.000000	na
86.236012	0.050057	100.000000	nontarget	15.000000	na
86.286068	0.050257	100.000000	nontarget	16.000000	na
86.336326	0.050107	101.000000	nontarget	1.000000	na
86.386433	0.049979	101.000000	nontarget	2.000000	86.398402
86.436411	0.049956	101.000000	nontarget	3.000000	na
86.486368	0.050156	101.000000	nontarget	4.000000	na
86.536524	0.049644	101.000000	nontarget	5.000000	na
86.586168	0.050160	101.000000	nontarget	6.000000	na
86.636327	0.049839	101.000000	nontarget	7.000000	na
86.686167	0.050220	101.000000	nontarget	8.000000	na
86.736386	0.049648	101.000000	nontarget	9.000000	na
86.786034	0.050028	101.000000	nontarget	10.000000	na
86.836063	0.050318	101.000000	nontarget	11.000000	na
86.886381	0.049479	101.000000	nontarget	12.000000	na
86.935860	0.050500	101.000000	nontarget	13.000000	na
86.986360	0.049958	101.000000	nontarget	14.000000	na
87.036318	0.050290	101.000000	nontarget	15.000000	na
87.086607	0.049642	101.000000	nontarget	16.000000	na
87.136249	0.049581	102.000000	nontarget	1.000000	na
87.185830	0.050576	102.000000	nontarget	2.000000	87.202185
87.236406	0.049749	102.000000	nontarget	3.000000	na
87.286155	0.049612	102.000000	nontarget	4.000000	na
87.335767	0.050868	102.000000	nontarget	5.000000	na
87.386635	0.049762	102.000000	nontarget	6.000000	na
87.436397	0.049970	102.000000	nontarget	7.000000	na
87.486366	0.049882	102.000000	nontarget	8.000000	na
87.536248	0.049686	102.000000	nontarget	9.000000	na
87.585934	0.050480	102.000000	nontarget	10.000000	na
87.636414	0.049815	102.000000	nontarget	11.000000	na
87.686229	0.049786	102.000000	nontarget	12.000000	na
87.736015	0.050034	102.000000	nontarget	13.000000	na
87.786049	0.050110	102.000000	nontarget	14.000000	na
87.836159	0.050152	102.000000	nontarget	15.000000	na
87.886311	0.049733	102.000000	nontarget	16.000000	na
87.936044	0.050333	103.000000	nontarget	1.000000	na
87.986377	0.049294	103.000000	nontarget	2.000000	na
88.035671	0.050783	103.000000	nontarget	3.000000	88.051349
88.086454	0.049921	103.000000	nontarget	4.000000	na
88.136376	0.049788	103.000000	nontarget	5.000000	na
88.186163	0.050022	103.000000	nontarget	6.000000	na
88.236185	0.050220	103.000000	nontarget	7.000000	na
88.286405	0.049547	103.000000	nontarget	8.000000	na
88.335952	0.050441	103.000000	nontarget	9.000000	na
88.386393	0.049971	103.000000	nontarget	10.000000	na
88.436364	0.049619	103.000000	nontarget	11.000000	na
88.485983	0.049986	103.000000	nontarget	12.000000	na
88.535968	0.050528	103.000000	nontarget	13.000000	na
88.586496	0.049753	103.000000	nontarget	14.000000	na
88.636249	0.050169	103.000000	nontarget	15.000000	na
88.686417	0.049935	103.000000	nontarget	16.000000	na
88.736352	0.050055	104.000000	nontarget	1.000000	na
88.786407	0.050120	104.000000	nontarget	2.000000	na
88.836528	0.049631	104.000000	nontarget	3.000000	na
88.886158	0.049893	104.000000	nontarget	4.000000	na
88.936052	0.050367	104.000000	nontarget	5.000000	88.964107
88.986419	0.050030	104.000000	nontarget	6.000000	na
89.036449	0.049958	104.000000	nontarget	7.000000	na
89.086407	0.050183	104.000000	nontarget	8.000000	na
89.136591	0.049100	104.000000	nontarget	9.000000	na
89.185691	0.050888	104.000000	nontarget	10.000000	na
89.236579	0.049855	104.000000	nontarget	11.000000	na
89.286433	0.049996	104.000000	nontarget	12.000000	na
89.336429	0.049593	104.000000	nontarget	13.000000	na
89.386022	0.049983	104.000000	nontarget	14.000000	na
89.436005	0.050434	104.000000	nontarget	15.000000	na
89.486439	0.049979	104.000000	nontarget	16.000000	na
89.536417	0.049508	105.000000	nontarget	1.000000	na
89.585925	0.050505	105.000000	nontarget	2.000000	na
89.636430	0.049740	105.000000	nontarget	3.000000	na
89.686170	0.050263	105.000000	nontarget	4.000000	na
89.736433	0.049252	105.000000	nontarget	5.000000	na
89.785685	0.050129	105.000000	nontarget	6.000000	na
89.835814	0.050522	105.000000	nontarget	7.000000	na
89.886336	0.050293	105.000000	nontarget	8.000000	na
89.936629	0.049839	105.000000	nontarget	9.000000	89.965122
89.986468	0.049874	105.000000	nontarget	10.000000	na
90.036341	0.050157	105.000000	nontarget	11.000000	na
90.086498	0.050024	105.000000	nontarget	12.000000	na
90.136522	0.049869	105.000000	nontarget	13.000000	na
90.186391	0.050082	105.000000	nontarget	14.000000	na
90.236473	0.050024	105.000000	nontarget	15.000000	na
90.286497	0.049966	105.000000	nontarget	16.000000	na
90.336463	0.049560	106.000000	nontarget	1.000000	na
90.386023	0.050547	106.000000	nontarget	2.000000	na
90.436570	0.049438	106.000000	nontarget	3.000000	na
90.486007	0.050095	106.000000	nontarget	4.000000	na
90.536103	0.050347	106.000000	nontarget	5.000000	na
90.586449	0.049924	106.000000	nontarget	6.000000	na
90.636373	0.049467	106.000000	nontarget	7.000000	na
90.685840	0.050626	106.000000	nontarget	8.000000	na
90.736466	0.049985	106.000000	nontarget	9.000000	na
90.786451	0.050008	106.000000	nontarget	10.000000	na
90.836459	0.049877	106.000000	nontarget	11.000000	na
90.886336	0.050148	106.000000	nontarget	12.000000	na
90.936484	0.050072	106.000000	nontarget	13.000000	na
90.986556	0.049634	106.000000	nontarget	14.000000	91.023338
91.036190	0.049828	106.000000	nontarget	15.000000	na
91.086018	0.050464	106.000000	nontarget	16.000000	na
91.136482	0.049988	107.000000	nontarget	1.000000	91.143172
91.186470	0.049933	107.000000	nontarget	2.000000	na
91.236402	0.049289	107.000000	nontarget	3.000000	na
91.285691	0.050910	107.000000	nontarget	4.000000	na
91.336601	0.049390	107.000000	nontarget	5.000000	na
91.385991	0.050430	107.000000	nontarget	6.000000	na
91.436422	0.049919	107.000000	nontarget	7.000000	na
91.486341	0.049561	107.000000	nontarget	8.000000	na
91.535902	0.050791	107.000000	nontarget	9.000000	na
91.586693	0.049295	107.000000	nontarget	10.000000	na
91.635987	0.050523	107.000000	nontarget	11.000000	na
91.686510	0.049982	107.000000	nontarget	12.000000	na
91.736492	0.050014	107.000000	nontarget	13.000000	na
91.786507	0.049799	107.000000	nontarget	14.000000	na
91.836306	0.050182	107.000000	nontarget	15.000000	na
91.886488	0.049760	107.000000	nontarget	16.000000	na
91.936248	0.049546	108.000000	nontarget	1.000000	na
91.985794	0.050690	108.000000	nontarget	2.000000	na
92.036484	0.049430	108.000000	nontarget	3.000000	na
92.085915	0.050589	108.000000	nontarget	4.000000	92.091842
92.136504	0.050139	108.000000	nontarget	5.000000	na
92.186642	0.049878	108.000000	nontarget	6.000000	na
92.236521	0.050109	108.000000	nontarget	7.000000	na
92.286630	0.049560	108.000000	nontarget	8.000000	na
92.336190	0.049654	108.000000	nontarget	9.000000	na
92.385844	0.050687	108.000000	nontarget	10.000000	na
92.436531	0.049856	108.000000	nontarget	11.000000	na
92.486388	0.050053	108.000000	nontarget	12.000000	na
92.536441	0.049886	108.000000	nontarget	13.000000	na
92.586327	0.049578	108.000000	nontarget	14.000000	na
92.635905	0.050618	108.000000	nontarget	15.000000	na
92.686524	0.049988	108.000000	nontarget	16.000000	na
92.736512	0.049966	109.000000	nontarget	1.000000	na
92.786478	0.050036	109.000000	nontarget	2.000000	na
92.836513	0.050081	109.000000	nontarget	3.000000	na
92.886594	0.049716	109.000000	nontarget	4.000000	na
92.936310	0.050250	109.000000	nontarget	5.000000	na
92.986560	0.049764	109.000000	nontarget	6.000000	93.009235
93.036324	0.049578	109.000000	nontarget	7.000000	na
93.085902	0.050299	109.000000	nontarget	8.000000	na
93.136201	0.049592	109.000000	nontarget	9.000000	na
93.185793	0.050876	109.000000	nontarget	10.000000	na
93.236669	0.049892	109.000000	nontarget	11.000000	na
93.286560	0.049662	109.000000	nontarget	12.000000	na
93.336223	0.049983	109.000000	nontarget	13.000000	na
93.386206	0.049885	109.000000	nontarget	14.000000	na
93.436091	0.049897	109.000000	nontarget	15.000000	na
93.485988	0.049919	109.000000	nontarget	16.000000	na
93.535907	0.049781	110.000000	nontarget	1.000000	na
93.585688	0.051145	110.000000	nontarget	2.000000	na
93.636833	0.049819	110.000000	nontarget	3.000000	na
93.686652	0.049798	110.000000	nontarget	4.000000	na
93.736450	0.050105	110.000000	nontarget	5.000000	na
93.786555	0.049800	110.000000	nontarget	6.000000	na
93.836356	0.050272	110.000000	nontarget	7.000000	na
93.886628	0.049929	110.000000	nontarget	8.000000	na
93.936557	0.050053	110.000000	nontarget	9.000000	na
93.986610	0.049650	110.000000	nontarget	10.000000	na
94.036260	0.050679	110.000000	nontarget	11.000000	na
94.086939	0.049193	110.000000	nontarget	12.000000	na
94.136132	0.050524	110.000000	nontarget	13.000000	na
94.186656	0.049994	110.000000	nontarget	14.000000	na
94.236650	0.049970	110.000000	nontarget	15.000000	na
94.286620	0.049875	110.000000	nontarget	16.000000	na
94.336495	0.050480	111.000000	nontarget	1.000000	na
94.386975	0.048904	111.000000	nontarget	2.000000	na
94.435879	0.050922	111.000000	nontarget	3.000000	94.442557
94.486801	0.050003	111.000000	nontarget	4.000000	na
94.536804	0.049478	111.000000	nontarget	5.000000	na
94.586282	0.050715	111.000000	nontarget	6.000000	na
94.636997	0.049391	111.000000	nontarget	7.000000	na
94.686389	0.049715	111.000000	nontarget	8.000000	na
94.736104	0.049935	111.000000	nontarget	9.000000	na
94.786039	0.049928	111.000000	nontarget	10.000000	na
94.835966	0.050759	111.000000	nontarget	11.000000	na
94.886725	0.049828	111.000000	nontarget	12.000000	na
94.936553	0.050100	111.000000	nontarget	13.000000	na
94.986652	0.049747	111.000000	nontarget	14.000000	na
95.036399	0.050221	111.000000	nontarget	15.000000	na
95.086621	0.050013	111.000000	nontarget	16.000000	na
95.136634	0.049670	112.000000	nontarget	1.000000	na
95.186304	0.049898	112.000000	nontarget	2.000000	95.198175
95.236203	0.050597	112.000000	nontarget	3.000000	na
95.286800	0.049767	112.000000	nontarget	4.000000	na
95.336566	0.049494	112.000000	nontarget	5.000000	na
95.386060	0.050526	112.000000	nontarget	6.000000	na
95.436586	0.050167	112.000000	nontarget	7.000000	na
95.486753	0.049287	112.000000	nontarget	8.000000	na
95.536040	0.050601	112.000000	nontarget	9.000000	na
95.586642	0.049626	112.000000	nontarget	10.000000	na
95.636268	0.050027	112.000000	nontarget	11.000000	na
95.686295	0.049974	112.000000	nontarget	12.000000	na
95.736269	0.050757	112.000000	nontarget	13.000000	na
95.787026	0.049671	112.000000	nontarget	14.000000	na
95.836698	0.049758	112.000000	nontarget	15.000000	na
95.886456	0.050148	112.000000	nontarget	16.000000	na
95.936604	0.049281	113.000000	nontarget	1.000000	na
95.985885	0.050595	113.000000	nontarget	2.000000	na
96.036480	0.050071	113.000000	nontarget	3.000000	96.048191
96.086552	0.050228	113.000000	nontarget	4.000000	na
96.136779	0.049862	113.000000	nontarget	5.000000	na
96.186641	0.050365	113.000000	nontarget	6.000000	na
96.237006	0.049057	113.000000	nontarget	7.000000	na
96.286063	0.050533	113.000000	nontarget	8.000000	na
96.336595	0.049826	113.000000	nontarget	9.000000	na
96.386421	0.050163	113.000000	nontarget	10.000000	na
96.436585	0.049637	113.000000	nontarget	11.000000	na
96.486222	0.050370	113.000000	nontarget	12.000000	na
96.536592	0.049840	113.000000	nontarget	13.000000	na
96.586432	0.050295	113.000000	nontarget	14.000000	na
96.636726	0.050148	113.000000	nontarget	15.000000	na
96.686874	0.049919	113.000000	nontarget	16.000000	na
96.736793	0.049927	114.000000	nontarget	1.000000	na
96.786721	0.049970	114.000000	nontarget	2.000000	na
96.836691	0.050304	114.000000	nontarget	3.000000	na
96.886995	0.049802	114.000000	nontarget	4.000000	na
96.936797	0.050036	114.000000	nontarget	5.000000	na
96.986833	0.049753	114.000000	nontarget	6.000000	97.015075
97.036585	0.050054	114.000000	nontarget	7.000000	na
97.086640	0.049855	114.000000	nontarget	8.000000	na
97.136494	0.050135	114.000000	nontarget	9.000000	na
97.186630	0.049541	114.000000	nontarget	10.000000	na
97.236171	0.050699	114.000000	nontarget	11.000000	na
97.286870	0.049768	114.000000	nontarget	12.000000	na
97.336637	0.050085	114.000000	nontarget	13.000000	na
97.386722	0.049925	114.000000	nontarget	14.000000	na
97.436647	0.050092	114.000000	nontarget	15.000000	na
97.486740	0.049411	114.000000	nontarget	16.000000	na
97.536150	0.050422	115.000000	nontarget	1.000000	na
97.586572	0.049884	115.000000	nontarget	2.000000	na
97.636456	0.049777	115.000000	nontarget	3.000000	na
97.686233	0.050589	115.000000	nontarget	4.000000	na
97.736822	0.049814	115.000000	nontarget	5.000000	na
97.786636	0.049916	115.000000	nontarget	6.000000	97.793186
97.836552	0.049851	115.000000	nontarget	7.000000	na
97.886403	0.050729	115.000000	nontarget	8.000000	na
97.937132	0.049107	115.000000	nontarget	9.000000	na
97.986239	0.050620	115.000000	nontarget	10.000000	na
98.036859	0.049232	115.000000	nontarget	11.000000	na
98.086091	0.050246	115.000000	nontarget	12.000000	na
98.136337	0.050373	115.000000	nontarget	13.000000	na
98.186710	0.049654	115.000000	nontarget	14.000000	na
98.236364	0.050346	115.000000	nontarget	15.000000	na
98.286711	0.050156	115.000000	nontarget	16.000000	na
98.336867	0.049218	116.000000	nontarget	1.000000	na
98.386084	0.051116	116.000000	nontarget	2.000000	na
98.437200	0.049094	116.000000	nontarget	3.000000	98.443964
98.486294	0.050274	116.000000	nontarget	4.000000	na
98.536568	0.050382	116.000000	nontarget	5.000000	na
98.586950	0.049532	116.000000	nontarget	6.000000	na
98.636482	0.050288	116.000000	nontarget	7.000000	na
98.686770	0.049610	116.000000	nontarget	8.000000	na
98.736380	0.050566	116.000000	nontarget	9.000000	na
98.786946	0.049854	116.000000	nontarget	10.000000	na
98.836800	0.049746	116.000000	nontarget	11.000000	na
98.886546	0.049824	116.000000	nontarget	12.000000	na
98.936370	0.050410	116.000000	nontarget	13.000000	na
98.986780	0.049878	116.000000	nontarget	14.000000	na
99.036658	0.049991	116.000000	nontarget	15.000000	na
99.086648	0.050328	116.000000	nontarget	16.000000	na
99.136976	0.049758	117.000000	nontarget	1.000000	na
99.186734	0.049960	117.000000	nontarget	2.000000	na
99.236695	0.049892	117.000000	nontarget	3.000000	na
99.286587	0.049947	117.000000	nontarget	4.000000	99.301766
99.336534	0.050217	117.000000	nontarget	5.000000	na
99.386751	0.049718	117.000000	nontarget	6.000000	na
99.436469	0.049505	117.000000	nontarget	7.000000	na
99.485974	0.050097	117.000000	nontarget	8.000000	na
99.536071	0.049931	117.000000	nontarget	9.000000	na
99.586002	0.050731	117.000000	nontarget	10.000000	na
99.636733	0.050009	117.000000	nontarget	11.000000	na
99.686742	0.049812	117.000000	nontarget	12.000000	na
99.736555	0.050380	117.000000	nontarget	13.000000	na
99.786935	0.049933	117.000000	nontarget	14.000000	na
99.836867	0.049907	117.000000	nontarget	15.000000	na
99.886774	0.049973	117.000000	nontarget	16.000000	na
99.936747	0.049961	118.000000	target	1.000000	na
99.986708	0.049707	118.000000	target	2.000000	na
100.036416	0.050344	118.000000	target	3.000000	na
100.086760	0.049887	118.000000	target	4.000000	na
100.136647	0.049979	118.000000	target	5.000000	na
100.186626	0.049679	118.000000	target	6.000000	na
100.236305	0.049850	118.000000	target	7.000000	na
100.286155	0.050017	118.000000	target	8.000000	na
100.336173	0.050742	118.000000	target	9.000000	na
100.386914	0.049877	118.000000	target	10.000000	na
100.436791	0.049960	118.000000	target	11.000000	na
100.486752	0.050159	118.000000	target	12.000000	na
100.536911	0.050065	118.000000	target	13.000000	na
100.586976	0.049829	118.000000	target	14.000000	na
100.636805	0.049567	118.000000	target	15.000000	na
100.686371	0.050394	118.000000	target	16.000000	na
100.736765	0.050063	119.000000	nontarget	1.000000	100.764348
100.786829	0.049770	119.000000	nontarget	2.000000	na
100.836598	0.050224	119.000000	nontarget	3.000000	na
100.886823	0.049936	119.000000	nontarget	4.000000	na
100.936758	0.050053	119.000000	nontarget	5.000000	na
100.986811	0.049777	119.000000	nontarget	6.000000	na
101.036589	0.049848	119.000000	nontarget	7.000000	na
101.086437	0.050470	119.000000	nontarget	8.000000	na
101.136907	0.049881	119.000000	nontarget	9.000000	na
101.186788	0.049736	119.000000	nontarget	10.000000	na
101.236524	0.049701	119.000000	nontarget	11.000000	na
101.286225	0.050518	119.000000	nontarget	12.000000	na
101.336743	0.050074	119.000000	nontarget	13.000000	na
101.386817	0.049966	119.000000	nontarget	14.000000	na
101.436783	0.049706	119.000000	nontarget	15.000000	na
101.486489	0.050402	119.000000	nontarget	16.000000	na
101.536891	0.049966	120.000000	nontarget	1.000000	na
101.586857	0.049965	120.000000	nontarget	2.000000	na
101.636822	0.049638	120.000000	nontarget	3.000000	na
101.686460	0.050411	120.000000	nontarget	4.000000	na
101.736871	0.049047	120.000000	nontarget	5.000000	101.773031
101.785918	0.050675	120.000000	nontarget	6.000000	na
101.836593	0.050209	120.000000	nontarget	7.000000	na
101.886802	0.050177	120.000000	nontarget	8.000000	na
101.936979	0.049960	120.000000	nontarget	9.000000	na
101.986939	0.049207	120.000000	nontarget	10.000000	na
102.036146	0.050692	120.000000	nontarget	11.000000	na
102.086838	0.049904	120.000000	nontarget	12.000000	na
102.136742	0.050197	120.000000	nontarget	13.000000	na
102.186939	0.049227	120.000000	nontarget	14.000000	na
102.236165	0.050639	120.000000	nontarget	15.000000	na
102.286805	0.049698	120.000000	nontarget	16.000000	na
102.336503	0.049618	121.000000	target	1.000000	na
102.386121	0.050588	121.000000	target	2.000000	na
102.436709	0.049439	121.000000	target	3.000000	na
102.486148	0.050620	121.000000	target	4.000000	na
102.536769	0.050029	121.000000	target	5.000000	na
102.586798	0.049487	121.000000	target	6.000000	na
102.636285	0.050479	121.000000	target	7.000000	na
102.686764	0.049382	121.000000	target	8.000000	na
102.736146	0.049886	121.000000	target	9.000000	na
102.786032	0.050497	121.000000	target	10.000000	na
102.836529	0.050248	121.000000	target	11.000000	na
102.886778	0.049878	121.000000	target	12.000000	na
102.936655	0.050228	121.000000	target	13.000000	na
102.986883	0.049206	121.000000	target	14.000000	na
103.036088	0.050442	121.000000	target	15.000000	na
103.086530	0.049780	121.000000	target	16.000000	na
