onset	duration	trial_number	trial_type	frame_number	time_of_response
8.067341	0.049740	1.000000	nontarget	1.000000	na
8.117081	0.049512	1.000000	nontarget	2.000000	na
8.166593	0.050027	1.000000	nontarget	3.000000	na
8.216620	0.049983	1.000000	nontarget	4.000000	na
8.266603	0.049948	1.000000	nontarget	5.000000	na
8.316551	0.050480	1.000000	nontarget	6.000000	na
8.367031	0.049824	1.000000	nontarget	7.000000	na
8.416855	0.050186	1.000000	nontarget	8.000000	na
8.467041	0.050020	1.000000	nontarget	9.000000	na
8.517061	0.049714	1.000000	nontarget	10.000000	na
8.566775	0.050266	1.000000	nontarget	11.000000	na
8.617042	0.049348	1.000000	nontarget	12.000000	na
8.666390	0.050228	1.000000	nontarget	13.000000	na
8.716619	0.050404	1.000000	nontarget	14.000000	8.733925
8.767022	0.049992	1.000000	nontarget	15.000000	na
8.817015	0.049558	1.000000	nontarget	16.000000	na
8.866573	0.050330	2.000000	nontarget	1.000000	8.873391
8.916903	0.050119	2.000000	nontarget	2.000000	na
8.967022	0.050195	2.000000	nontarget	3.000000	na
9.017217	0.049965	2.000000	nontarget	4.000000	na
9.067182	0.049607	2.000000	nontarget	5.000000	na
9.116790	0.049365	2.000000	nontarget	6.000000	na
9.166154	0.050671	2.000000	nontarget	7.000000	na
9.216825	0.049671	2.000000	nontarget	8.000000	na
9.266496	0.049982	2.000000	nontarget	9.000000	na
9.316477	0.050546	2.000000	nontarget	10.000000	na
9.367023	0.050040	2.000000	nontarget	11.000000	9.391138
9.417063	0.049388	2.000000	nontarget	12.000000	na
9.466452	0.050494	2.000000	nontarget	13.000000	na
9.516946	0.049507	2.000000	nontarget	14.000000	na
9.566452	0.050419	2.000000	nontarget	15.000000	na
9.616871	0.049590	2.000000	nontarget	16.000000	na
9.666461	0.050629	3.000000	nontarget	1.000000	na
9.717090	0.049404	3.000000	nontarget	2.000000	na
9.766494	0.050183	3.000000	nontarget	3.000000	na
9.816676	0.050261	3.000000	nontarget	4.000000	na
9.866938	0.050176	3.000000	nontarget	5.000000	na
9.917114	0.049649	3.000000	nontarget	6.000000	na
9.966763	0.050439	3.000000	nontarget	7.000000	na
10.017202	0.049157	3.000000	nontarget	8.000000	na
10.066359	0.050063	3.000000	nontarget	9.000000	na
10.116422	0.050586	3.000000	nontarget	10.000000	na
10.167008	0.049446	3.000000	nontarget	11.000000	na
10.216454	0.050481	3.000000	nontarget	12.000000	na
10.266935	0.049479	3.000000	nontarget	13.000000	10.273238
10.316413	0.050733	3.000000	nontarget	14.000000	na
10.367146	0.049649	3.000000	nontarget	15.000000	na
10.416795	0.049608	3.000000	nontarget	16.000000	na
10.466403	0.050553	4.000000	nontarget	1.000000	na
10.516956	0.049837	4.000000	nontarget	2.000000	na
10.566793	0.050042	4.000000	nontarget	3.000000	na
10.616835	0.050187	4.000000	nontarget	4.000000	na
10.667022	0.050151	4.000000	nontarget	5.000000	na
10.717173	0.049696	4.000000	nontarget	6.000000	na
10.766869	0.050147	4.000000	nontarget	7.000000	na
10.817016	0.049969	4.000000	nontarget	8.000000	na
10.866985	0.049063	4.000000	nontarget	9.000000	na
10.916047	0.050241	4.000000	nontarget	10.000000	na
10.966289	0.050819	4.000000	nontarget	11.000000	na
11.017107	0.049181	4.000000	nontarget	12.000000	11.032201
11.066289	0.050440	4.000000	nontarget	13.000000	na
11.116728	0.049903	4.000000	nontarget	14.000000	na
11.166631	0.050238	4.000000	nontarget	15.000000	na
11.216869	0.050318	4.000000	nontarget	16.000000	na
11.267186	0.049790	5.000000	target	1.000000	na
11.316976	0.050046	5.000000	target	2.000000	na
11.367022	0.050183	5.000000	target	3.000000	na
11.417205	0.049802	5.000000	target	4.000000	na
11.467007	0.049951	5.000000	target	5.000000	na
11.516958	0.050023	5.000000	target	6.000000	na
11.566981	0.049866	5.000000	target	7.000000	na
11.616847	0.050189	5.000000	target	8.000000	na
11.667036	0.050136	5.000000	target	9.000000	na
11.717172	0.049938	5.000000	target	10.000000	na
11.767110	0.049882	5.000000	target	11.000000	11.788654
11.816992	0.049367	5.000000	target	12.000000	na
11.866359	0.050305	5.000000	target	13.000000	na
11.916664	0.050243	5.000000	target	14.000000	na
11.966907	0.049844	5.000000	target	15.000000	na
12.016751	0.050456	5.000000	target	16.000000	na
12.067208	0.049129	6.000000	nontarget	1.000000	na
12.116336	0.050724	6.000000	nontarget	2.000000	na
12.167061	0.049665	6.000000	nontarget	3.000000	na
12.216726	0.050260	6.000000	nontarget	4.000000	na
12.266985	0.050262	6.000000	nontarget	5.000000	na
12.317247	0.049864	6.000000	nontarget	6.000000	na
12.367112	0.049872	6.000000	nontarget	7.000000	na
12.416984	0.049287	6.000000	nontarget	8.000000	na
12.466272	0.050704	6.000000	nontarget	9.000000	na
12.516975	0.049273	6.000000	nontarget	10.000000	12.523503
12.566248	0.050076	6.000000	nontarget	11.000000	na
12.616324	0.050380	6.000000	nontarget	12.000000	na
12.666704	0.049705	6.000000	nontarget	13.000000	na
12.716409	0.050774	6.000000	nontarget	14.000000	na
12.767183	0.049084	6.000000	nontarget	15.000000	na
12.816267	0.050734	6.000000	nontarget	16.000000	na
12.867000	0.049946	7.000000	nontarget	1.000000	na
12.916947	0.049426	7.000000	nontarget	2.000000	na
12.966373	0.050849	7.000000	nontarget	3.000000	na
13.017221	0.049042	7.000000	nontarget	4.000000	na
13.066264	0.050543	7.000000	nontarget	5.000000	na
13.116807	0.049293	7.000000	nontarget	6.000000	na
13.166100	0.050893	7.000000	nontarget	7.000000	na
13.216992	0.049977	7.000000	nontarget	8.000000	na
13.266969	0.050001	7.000000	nontarget	9.000000	na
13.316970	0.049382	7.000000	nontarget	10.000000	na
13.366353	0.050334	7.000000	nontarget	11.000000	na
13.416687	0.049523	7.000000	nontarget	12.000000	13.427988
13.466209	0.050365	7.000000	nontarget	13.000000	na
13.516574	0.050342	7.000000	nontarget	14.000000	na
13.566916	0.050049	7.000000	nontarget	15.000000	na
13.616965	0.050014	7.000000	nontarget	16.000000	na
13.666979	0.049978	8.000000	nontarget	1.000000	na
13.716957	0.049657	8.000000	nontarget	2.000000	na
13.766614	0.049713	8.000000	nontarget	3.000000	na
13.816327	0.049883	8.000000	nontarget	4.000000	na
13.866210	0.049995	8.000000	nontarget	5.000000	na
13.916206	0.049987	8.000000	nontarget	6.000000	na
13.966193	0.051005	8.000000	nontarget	7.000000	na
14.017197	0.049010	8.000000	nontarget	8.000000	na
14.066207	0.049965	8.000000	nontarget	9.000000	na
14.116172	0.050176	8.000000	nontarget	10.000000	na
14.166348	0.050267	8.000000	nontarget	11.000000	na
14.216614	0.050494	8.000000	nontarget	12.000000	na
14.267108	0.049049	8.000000	nontarget	13.000000	na
14.316158	0.050988	8.000000	nontarget	14.000000	na
14.367145	0.049807	8.000000	nontarget	15.000000	na
14.416953	0.050026	8.000000	nontarget	16.000000	na
14.466979	0.049188	9.000000	target	1.000000	na
14.516167	0.050018	9.000000	target	2.000000	na
14.566185	0.050774	9.000000	target	3.000000	na
14.616958	0.050095	9.000000	target	4.000000	na
14.667053	0.049191	9.000000	target	5.000000	na
14.716244	0.049904	9.000000	target	6.000000	na
14.766148	0.050100	9.000000	target	7.000000	na
14.816249	0.049910	9.000000	target	8.000000	na
14.866158	0.049969	9.000000	target	9.000000	na
14.916127	0.050810	9.000000	target	10.000000	na
14.966937	0.050308	9.000000	target	11.000000	na
15.017245	0.049772	9.000000	target	12.000000	na
15.067017	0.049094	9.000000	target	13.000000	na
15.116111	0.050817	9.000000	target	14.000000	na
15.166928	0.049716	9.000000	target	15.000000	na
15.216643	0.050310	9.000000	target	16.000000	15.223229
15.266954	0.049379	10.000000	nontarget	1.000000	15.273464
15.316333	0.049749	10.000000	nontarget	2.000000	na
15.366082	0.051024	10.000000	nontarget	3.000000	na
15.417106	0.049825	10.000000	nontarget	4.000000	na
15.466931	0.049872	10.000000	nontarget	5.000000	na
15.516803	0.049874	10.000000	nontarget	6.000000	na
15.566678	0.049405	10.000000	nontarget	7.000000	na
15.616082	0.050860	10.000000	nontarget	8.000000	na
15.666942	0.049916	10.000000	nontarget	9.000000	na
15.716859	0.050187	10.000000	nontarget	10.000000	na
15.767045	0.049918	10.000000	nontarget	11.000000	na
15.816963	0.049102	10.000000	nontarget	12.000000	na
15.866065	0.050903	10.000000	nontarget	13.000000	na
15.916968	0.049926	10.000000	nontarget	14.000000	na
15.966894	0.050293	10.000000	nontarget	15.000000	na
16.017187	0.049654	10.000000	nontarget	16.000000	na
16.066841	0.049198	11.000000	nontarget	1.000000	16.073387
16.116038	0.050867	11.000000	nontarget	2.000000	na
16.166906	0.049860	11.000000	nontarget	3.000000	na
16.216766	0.050044	11.000000	nontarget	4.000000	na
16.266810	0.049587	11.000000	nontarget	5.000000	na
16.316397	0.050238	11.000000	nontarget	6.000000	na
16.366636	0.050324	11.000000	nontarget	7.000000	na
16.416959	0.050008	11.000000	nontarget	8.000000	na
16.466967	0.049197	11.000000	nontarget	9.000000	na
16.516164	0.050807	11.000000	nontarget	10.000000	na
16.566972	0.050334	11.000000	nontarget	11.000000	na
16.617306	0.048691	11.000000	nontarget	12.000000	na
16.665998	0.051275	11.000000	nontarget	13.000000	na
16.717273	0.049817	11.000000	nontarget	14.000000	na
16.767090	0.049817	11.000000	nontarget	15.000000	na
16.816908	0.050201	11.000000	nontarget	16.000000	16.823778
16.867108	0.049840	12.000000	nontarget	1.000000	16.873708
16.916948	0.049959	12.000000	nontarget	2.000000	na
16.966907	0.049092	12.000000	nontarget	3.000000	na
17.015999	0.050525	12.000000	nontarget	4.000000	na
17.066524	0.050433	12.000000	nontarget	5.000000	na
17.116957	0.049472	12.000000	nontarget	6.000000	na
17.166429	0.050320	12.000000	nontarget	7.000000	na
17.216749	0.050175	12.000000	nontarget	8.000000	na
17.266925	0.049873	12.000000	nontarget	9.000000	na
17.316798	0.050310	12.000000	nontarget	10.000000	na
17.367108	0.049823	12.000000	nontarget	11.000000	na
17.416930	0.050089	12.000000	nontarget	12.000000	na
17.467019	0.049982	12.000000	nontarget	13.000000	na
17.517001	0.050127	12.000000	nontarget	14.000000	na
17.567128	0.049734	12.000000	nontarget	15.000000	na
17.616862	0.050209	12.000000	nontarget	16.000000	17.636593
17.667070	0.049894	13.000000	nontarget	1.000000	17.673618
17.716964	0.049984	13.000000	nontarget	2.000000	na
17.766948	0.049863	13.000000	nontarget	3.000000	na
17.816811	0.049597	13.000000	nontarget	4.000000	na
17.866408	0.050818	13.000000	nontarget	5.000000	na
17.917225	0.049581	13.000000	nontarget	6.000000	na
17.966806	0.049205	13.000000	nontarget	7.000000	na
18.016011	0.051008	13.000000	nontarget	8.000000	na
18.067019	0.049949	13.000000	nontarget	9.000000	na
18.116968	0.049635	13.000000	nontarget	10.000000	na
18.166603	0.050513	13.000000	nontarget	11.000000	na
18.217116	0.049350	13.000000	nontarget	12.000000	na
18.266466	0.050577	13.000000	nontarget	13.000000	na
18.317043	0.049823	13.000000	nontarget	14.000000	na
18.366866	0.050408	13.000000	nontarget	15.000000	na
18.417274	0.049559	13.000000	nontarget	16.000000	18.448794
18.466833	0.049994	14.000000	nontarget	1.000000	18.473458
18.516828	0.050465	14.000000	nontarget	2.000000	na
18.567293	0.049636	14.000000	nontarget	3.000000	na
18.616929	0.049886	14.000000	nontarget	4.000000	na
18.666815	0.050519	14.000000	nontarget	5.000000	na
18.717334	0.054159	14.000000	nontarget	6.000000	na
18.771493	0.045337	14.000000	nontarget	7.000000	na
18.816830	0.049876	14.000000	nontarget	8.000000	na
18.866706	0.049800	14.000000	nontarget	9.000000	na
18.916506	0.050474	14.000000	nontarget	10.000000	na
18.966980	0.050230	14.000000	nontarget	11.000000	na
19.017210	0.049710	14.000000	nontarget	12.000000	na
19.066920	0.050004	14.000000	nontarget	13.000000	na
19.116924	0.050080	14.000000	nontarget	14.000000	na
19.167004	0.050088	14.000000	nontarget	15.000000	na
19.217091	0.049688	14.000000	nontarget	16.000000	19.241244
19.266780	0.050136	15.000000	nontarget	1.000000	19.272543
19.316915	0.049952	15.000000	nontarget	2.000000	na
19.366867	0.049966	15.000000	nontarget	3.000000	na
19.416833	0.050070	15.000000	nontarget	4.000000	na
19.466903	0.050061	15.000000	nontarget	5.000000	na
19.516964	0.049848	15.000000	nontarget	6.000000	na
19.566812	0.049880	15.000000	nontarget	7.000000	na
19.616692	0.050233	15.000000	nontarget	8.000000	na
19.666925	0.050137	15.000000	nontarget	9.000000	na
19.717062	0.050001	15.000000	nontarget	10.000000	na
19.767063	0.049446	15.000000	nontarget	11.000000	na
19.816509	0.050427	15.000000	nontarget	12.000000	na
19.866936	0.049579	15.000000	nontarget	13.000000	na
19.916515	0.050405	15.000000	nontarget	14.000000	na
19.966920	0.049676	15.000000	nontarget	15.000000	na
20.016596	0.050061	15.000000	nontarget	16.000000	20.022915
20.066657	0.050241	16.000000	nontarget	1.000000	20.073206
20.116898	0.050048	16.000000	nontarget	2.000000	na
20.166945	0.049468	16.000000	nontarget	3.000000	na
20.216414	0.050497	16.000000	nontarget	4.000000	na
20.266911	0.050062	16.000000	nontarget	5.000000	na
20.316972	0.049999	16.000000	nontarget	6.000000	na
20.366972	0.050172	16.000000	nontarget	7.000000	na
20.417144	0.049706	16.000000	nontarget	8.000000	na
20.466850	0.049900	16.000000	nontarget	9.000000	na
20.516750	0.049525	16.000000	nontarget	10.000000	na
20.566275	0.050555	16.000000	nontarget	11.000000	na
20.616830	0.050242	16.000000	nontarget	12.000000	na
20.667072	0.049873	16.000000	nontarget	13.000000	na
20.716945	0.049901	16.000000	nontarget	14.000000	na
20.766846	0.050064	16.000000	nontarget	15.000000	na
20.816910	0.049613	16.000000	nontarget	16.000000	na
20.866523	0.049451	17.000000	nontarget	1.000000	na
20.915974	0.050300	17.000000	nontarget	2.000000	20.922109
20.966275	0.050355	17.000000	nontarget	3.000000	na
21.016629	0.050013	17.000000	nontarget	4.000000	na
21.066642	0.050373	17.000000	nontarget	5.000000	na
21.117015	0.049859	17.000000	nontarget	6.000000	na
21.166874	0.049249	17.000000	nontarget	7.000000	na
21.216122	0.050782	17.000000	nontarget	8.000000	na
21.266904	0.050028	17.000000	nontarget	9.000000	na
21.316933	0.049937	17.000000	nontarget	10.000000	na
21.366870	0.049921	17.000000	nontarget	11.000000	na
21.416791	0.050081	17.000000	nontarget	12.000000	na
21.466872	0.050002	17.000000	nontarget	13.000000	na
21.516874	0.049515	17.000000	nontarget	14.000000	na
21.566389	0.050670	17.000000	nontarget	15.000000	21.572807
21.617059	0.049812	17.000000	nontarget	16.000000	na
21.666872	0.049460	18.000000	nontarget	1.000000	21.673395
21.716332	0.050082	18.000000	nontarget	2.000000	na
21.766414	0.050054	18.000000	nontarget	3.000000	na
21.816468	0.049803	18.000000	nontarget	4.000000	na
21.866271	0.050631	18.000000	nontarget	5.000000	na
21.916902	0.049479	18.000000	nontarget	6.000000	na
21.966381	0.050789	18.000000	nontarget	7.000000	na
22.017171	0.049732	18.000000	nontarget	8.000000	na
22.066902	0.049814	18.000000	nontarget	9.000000	na
22.116717	0.050134	18.000000	nontarget	10.000000	na
22.166850	0.050064	18.000000	nontarget	11.000000	na
22.216914	0.049977	18.000000	nontarget	12.000000	na
22.266890	0.049847	18.000000	nontarget	13.000000	na
22.316737	0.050139	18.000000	nontarget	14.000000	22.323369
22.366876	0.049512	18.000000	nontarget	15.000000	na
22.416388	0.050513	18.000000	nontarget	16.000000	na
22.466901	0.049472	19.000000	nontarget	1.000000	na
22.516373	0.050069	19.000000	nontarget	2.000000	na
22.566442	0.050453	19.000000	nontarget	3.000000	na
22.616896	0.049890	19.000000	nontarget	4.000000	na
22.666786	0.050338	19.000000	nontarget	5.000000	na
22.717124	0.049399	19.000000	nontarget	6.000000	na
22.766523	0.050263	19.000000	nontarget	7.000000	na
22.816787	0.050109	19.000000	nontarget	8.000000	na
22.866896	0.050133	19.000000	nontarget	9.000000	na
22.917029	0.049915	19.000000	nontarget	10.000000	na
22.966944	0.049063	19.000000	nontarget	11.000000	na
23.016006	0.050818	19.000000	nontarget	12.000000	na
23.066824	0.049626	19.000000	nontarget	13.000000	23.073390
23.116450	0.050280	19.000000	nontarget	14.000000	na
23.166730	0.050011	19.000000	nontarget	15.000000	na
23.216741	0.049880	19.000000	nontarget	16.000000	na
23.266621	0.050116	20.000000	nontarget	1.000000	na
23.316737	0.050236	20.000000	nontarget	2.000000	na
23.366973	0.050007	20.000000	nontarget	3.000000	na
23.416981	0.050091	20.000000	nontarget	4.000000	na
23.467071	0.049546	20.000000	nontarget	5.000000	na
23.516618	0.050104	20.000000	nontarget	6.000000	na
23.566722	0.049714	20.000000	nontarget	7.000000	na
23.616436	0.050419	20.000000	nontarget	8.000000	na
23.666855	0.050016	20.000000	nontarget	9.000000	na
23.716871	0.049946	20.000000	nontarget	10.000000	na
23.766817	0.050062	20.000000	nontarget	11.000000	na
23.816879	0.049517	20.000000	nontarget	12.000000	na
23.866397	0.050657	20.000000	nontarget	13.000000	na
23.917053	0.049655	20.000000	nontarget	14.000000	23.928453
23.966708	0.049176	20.000000	nontarget	15.000000	na
24.015884	0.050930	20.000000	nontarget	16.000000	na
24.066814	0.049939	21.000000	nontarget	1.000000	24.073423
24.116752	0.050159	21.000000	nontarget	2.000000	na
24.166911	0.049578	21.000000	nontarget	3.000000	na
24.216489	0.049661	21.000000	nontarget	4.000000	na
24.266150	0.050201	21.000000	nontarget	5.000000	na
24.316352	0.050515	21.000000	nontarget	6.000000	na
24.366867	0.050016	21.000000	nontarget	7.000000	na
24.416883	0.049257	21.000000	nontarget	8.000000	na
24.466140	0.050602	21.000000	nontarget	9.000000	na
24.516742	0.050000	21.000000	nontarget	10.000000	na
24.566742	0.050170	21.000000	nontarget	11.000000	na
24.616912	0.049901	21.000000	nontarget	12.000000	na
24.666812	0.050033	21.000000	nontarget	13.000000	na
24.716845	0.049902	21.000000	nontarget	14.000000	na
24.766747	0.049174	21.000000	nontarget	15.000000	na
24.815922	0.050883	21.000000	nontarget	16.000000	na
24.866804	0.050034	22.000000	nontarget	1.000000	na
24.916838	0.049791	22.000000	nontarget	2.000000	na
24.966629	0.049120	22.000000	nontarget	3.000000	24.972818
25.015749	0.051078	22.000000	nontarget	4.000000	na
25.066828	0.049877	22.000000	nontarget	5.000000	na
25.116704	0.049575	22.000000	nontarget	6.000000	na
25.166279	0.050470	22.000000	nontarget	7.000000	na
25.216750	0.050010	22.000000	nontarget	8.000000	na
25.266760	0.049504	22.000000	nontarget	9.000000	na
25.316264	0.050378	22.000000	nontarget	10.000000	na
25.366642	0.049966	22.000000	nontarget	11.000000	na
25.416608	0.050196	22.000000	nontarget	12.000000	na
25.466803	0.049973	22.000000	nontarget	13.000000	na
25.516776	0.050125	22.000000	nontarget	14.000000	na
25.566902	0.049401	22.000000	nontarget	15.000000	na
25.616303	0.050433	22.000000	nontarget	16.000000	na
25.666736	0.049896	23.000000	target	1.000000	na
25.716632	0.049216	23.000000	target	2.000000	na
25.765847	0.050606	23.000000	target	3.000000	na
25.816453	0.050318	23.000000	target	4.000000	na
25.866771	0.050101	23.000000	target	5.000000	na
25.916873	0.049673	23.000000	target	6.000000	na
25.966546	0.049226	23.000000	target	7.000000	na
26.015771	0.050868	23.000000	target	8.000000	na
26.066639	0.050105	23.000000	target	9.000000	na
26.116744	0.049951	23.000000	target	10.000000	na
26.166696	0.049516	23.000000	target	11.000000	na
26.216211	0.050076	23.000000	target	12.000000	na
26.266288	0.049682	23.000000	target	13.000000	na
26.315970	0.050591	23.000000	target	14.000000	na
26.366560	0.050129	23.000000	target	15.000000	na
26.416689	0.049890	23.000000	target	16.000000	na
26.466579	0.050071	24.000000	target	1.000000	na
26.516649	0.050034	24.000000	target	2.000000	na
26.566684	0.050011	24.000000	target	3.000000	na
26.616695	0.050080	24.000000	target	4.000000	na
26.666775	0.050128	24.000000	target	5.000000	na
26.716903	0.049199	24.000000	target	6.000000	na
26.766102	0.050038	24.000000	target	7.000000	na
26.816140	0.050614	24.000000	target	8.000000	na
26.866754	0.049306	24.000000	target	9.000000	na
26.916060	0.050048	24.000000	target	10.000000	na
26.966108	0.049593	24.000000	target	11.000000	na
27.015701	0.050287	24.000000	target	12.000000	na
27.065988	0.050744	24.000000	target	13.000000	na
27.116731	0.049883	24.000000	target	14.000000	na
27.166614	0.049448	24.000000	target	15.000000	na
27.216062	0.050621	24.000000	target	16.000000	27.231514
27.266683	0.050136	25.000000	nontarget	1.000000	27.273243
27.316819	0.049203	25.000000	nontarget	2.000000	na
27.366023	0.050817	25.000000	nontarget	3.000000	na
27.416840	0.049528	25.000000	nontarget	4.000000	na
27.466368	0.050308	25.000000	nontarget	5.000000	na
27.516676	0.049991	25.000000	nontarget	6.000000	na
27.566667	0.049974	25.000000	nontarget	7.000000	na
27.616641	0.049745	25.000000	nontarget	8.000000	na
27.666386	0.050242	25.000000	nontarget	9.000000	na
27.716628	0.049985	25.000000	nontarget	10.000000	na
27.766613	0.049913	25.000000	nontarget	11.000000	na
27.816527	0.049716	25.000000	nontarget	12.000000	na
27.866242	0.049748	25.000000	nontarget	13.000000	na
27.915990	0.050487	25.000000	nontarget	14.000000	na
27.966477	0.050325	25.000000	nontarget	15.000000	na
28.016802	0.049494	25.000000	nontarget	16.000000	na
28.066296	0.050499	26.000000	target	1.000000	na
28.116795	0.049742	26.000000	target	2.000000	na
28.166537	0.050101	26.000000	target	3.000000	na
28.216638	0.049142	26.000000	target	4.000000	na
28.265780	0.050692	26.000000	target	5.000000	na
28.316473	0.050137	26.000000	target	6.000000	na
28.366609	0.050024	26.000000	target	7.000000	na
28.416634	0.049912	26.000000	target	8.000000	na
28.466546	0.049746	26.000000	target	9.000000	na
28.516292	0.050400	26.000000	target	10.000000	na
28.566691	0.049906	26.000000	target	11.000000	na
28.616597	0.050307	26.000000	target	12.000000	na
28.666904	0.049631	26.000000	target	13.000000	na
28.716535	0.050017	26.000000	target	14.000000	na
28.766552	0.050029	26.000000	target	15.000000	na
28.816581	0.050202	26.000000	target	16.000000	na
28.866783	0.050119	27.000000	nontarget	1.000000	28.873231
28.916901	0.050002	27.000000	nontarget	2.000000	na
28.966904	0.048887	27.000000	nontarget	3.000000	na
29.015790	0.050295	27.000000	nontarget	4.000000	na
29.066085	0.050681	27.000000	nontarget	5.000000	na
29.116766	0.049738	27.000000	nontarget	6.000000	na
29.166503	0.049908	27.000000	nontarget	7.000000	na
29.216411	0.050259	27.000000	nontarget	8.000000	na
29.266670	0.049374	27.000000	nontarget	9.000000	na
29.316044	0.049840	27.000000	nontarget	10.000000	na
29.365884	0.050247	27.000000	nontarget	11.000000	na
29.416131	0.050669	27.000000	nontarget	12.000000	na
29.466800	0.050061	27.000000	nontarget	13.000000	na
29.516861	0.049496	27.000000	nontarget	14.000000	na
29.566357	0.050405	27.000000	nontarget	15.000000	na
29.616763	0.049878	27.000000	nontarget	16.000000	na
29.666641	0.049637	28.000000	nontarget	1.000000	na
29.716278	0.050463	28.000000	nontarget	2.000000	29.727447
29.766741	0.049384	28.000000	nontarget	3.000000	na
29.816125	0.050519	28.000000	nontarget	4.000000	na
29.866644	0.050114	28.000000	nontarget	5.000000	na
29.916758	0.049703	28.000000	nontarget	6.000000	na
29.966460	0.049301	28.000000	nontarget	7.000000	na
30.015762	0.051043	28.000000	nontarget	8.000000	na
30.066804	0.049698	28.000000	nontarget	9.000000	na
30.116502	0.050131	28.000000	nontarget	10.000000	na
30.166633	0.049847	28.000000	nontarget	11.000000	na
30.216480	0.050143	28.000000	nontarget	12.000000	na
30.266623	0.050097	28.000000	nontarget	13.000000	na
30.316720	0.049795	28.000000	nontarget	14.000000	na
30.366515	0.050131	28.000000	nontarget	15.000000	na
30.416646	0.049984	28.000000	nontarget	16.000000	na
30.466630	0.050160	29.000000	nontarget	1.000000	na
30.516790	0.049664	29.000000	nontarget	2.000000	na
30.566454	0.050145	29.000000	nontarget	3.000000	30.597264
30.616599	0.050142	29.000000	nontarget	4.000000	na
30.666741	0.049343	29.000000	nontarget	5.000000	na
30.716084	0.050345	29.000000	nontarget	6.000000	na
30.766429	0.049654	29.000000	nontarget	7.000000	na
30.816083	0.050645	29.000000	nontarget	8.000000	na
30.866728	0.049816	29.000000	nontarget	9.000000	na
30.916544	0.049978	29.000000	nontarget	10.000000	na
30.966522	0.048963	29.000000	nontarget	11.000000	na
31.015485	0.050698	29.000000	nontarget	12.000000	na
31.066183	0.049572	29.000000	nontarget	13.000000	na
31.115755	0.050406	29.000000	nontarget	14.000000	na
31.166161	0.049493	29.000000	nontarget	15.000000	na
31.215654	0.050738	29.000000	nontarget	16.000000	na
31.266391	0.050021	30.000000	nontarget	1.000000	na
31.316412	0.049958	30.000000	nontarget	2.000000	na
31.366370	0.050031	30.000000	nontarget	3.000000	na
31.416401	0.049886	30.000000	nontarget	4.000000	na
31.466287	0.049495	30.000000	nontarget	5.000000	na
31.515782	0.050956	30.000000	nontarget	6.000000	31.551838
31.566737	0.049413	30.000000	nontarget	7.000000	na
31.616150	0.050234	30.000000	nontarget	8.000000	na
31.666385	0.050206	30.000000	nontarget	9.000000	na
31.716591	0.050129	30.000000	nontarget	10.000000	na
31.766720	0.049248	30.000000	nontarget	11.000000	na
31.815968	0.050401	30.000000	nontarget	12.000000	na
31.866369	0.049640	30.000000	nontarget	13.000000	na
31.916009	0.049778	30.000000	nontarget	14.000000	na
31.965787	0.049758	30.000000	nontarget	15.000000	na
32.015545	0.050518	30.000000	nontarget	16.000000	na
32.066063	0.050350	31.000000	nontarget	1.000000	na
32.116413	0.049964	31.000000	nontarget	2.000000	na
32.166376	0.049376	31.000000	nontarget	3.000000	na
32.215752	0.050958	31.000000	nontarget	4.000000	na
32.266709	0.049961	31.000000	nontarget	5.000000	na
32.316670	0.049832	31.000000	nontarget	6.000000	32.323340
32.366502	0.049780	31.000000	nontarget	7.000000	na
32.416282	0.050360	31.000000	nontarget	8.000000	na
32.466642	0.048851	31.000000	nontarget	9.000000	na
32.515494	0.051125	31.000000	nontarget	10.000000	na
32.566619	0.049672	31.000000	nontarget	11.000000	na
32.616291	0.050393	31.000000	nontarget	12.000000	na
32.666684	0.049959	31.000000	nontarget	13.000000	na
32.716643	0.049583	31.000000	nontarget	14.000000	na
32.766226	0.050423	31.000000	nontarget	15.000000	na
32.816648	0.050049	31.000000	nontarget	16.000000	na
32.866698	0.049391	32.000000	nontarget	1.000000	na
32.916089	0.050164	32.000000	nontarget	2.000000	na
32.966253	0.050120	32.000000	nontarget	3.000000	33.001615
33.016373	0.049870	32.000000	nontarget	4.000000	na
33.066243	0.050434	32.000000	nontarget	5.000000	na
33.116677	0.048835	32.000000	nontarget	6.000000	na
33.165512	0.051169	32.000000	nontarget	7.000000	na
33.216681	0.049306	32.000000	nontarget	8.000000	na
33.265987	0.050289	32.000000	nontarget	9.000000	na
33.316275	0.049780	32.000000	nontarget	10.000000	na
33.366056	0.050284	32.000000	nontarget	11.000000	na
33.416339	0.049067	32.000000	nontarget	12.000000	na
33.465406	0.049984	32.000000	nontarget	13.000000	na
33.515390	0.050868	32.000000	nontarget	14.000000	na
33.566258	0.050002	32.000000	nontarget	15.000000	na
33.616260	0.050189	32.000000	nontarget	16.000000	na
33.666449	0.049180	33.000000	nontarget	1.000000	na
33.715629	0.049786	33.000000	nontarget	2.000000	33.722250
33.765415	0.050785	33.000000	nontarget	3.000000	na
33.816200	0.050329	33.000000	nontarget	4.000000	na
33.866529	0.049252	33.000000	nontarget	5.000000	na
33.915781	0.050449	33.000000	nontarget	6.000000	na
33.966230	0.049073	33.000000	nontarget	7.000000	na
34.015302	0.051054	33.000000	nontarget	8.000000	na
34.066356	0.049826	33.000000	nontarget	9.000000	na
34.116182	0.050013	33.000000	nontarget	10.000000	na
34.166195	0.050203	33.000000	nontarget	11.000000	na
34.216398	0.049754	33.000000	nontarget	12.000000	na
34.266152	0.050250	33.000000	nontarget	13.000000	na
34.316403	0.049085	33.000000	nontarget	14.000000	na
34.365488	0.050178	33.000000	nontarget	15.000000	na
34.415666	0.050497	33.000000	nontarget	16.000000	na
34.466163	0.049181	34.000000	nontarget	1.000000	34.490436
34.515344	0.050804	34.000000	nontarget	2.000000	na
34.566148	0.049993	34.000000	nontarget	3.000000	na
34.616140	0.049632	34.000000	nontarget	4.000000	na
34.665772	0.050486	34.000000	nontarget	5.000000	na
34.716258	0.049141	34.000000	nontarget	6.000000	na
34.765399	0.050247	34.000000	nontarget	7.000000	na
34.815646	0.050506	34.000000	nontarget	8.000000	na
34.866152	0.049976	34.000000	nontarget	9.000000	na
34.916128	0.050022	34.000000	nontarget	10.000000	na
34.966151	0.049259	34.000000	nontarget	11.000000	na
35.015409	0.050606	34.000000	nontarget	12.000000	na
35.066015	0.050102	34.000000	nontarget	13.000000	na
35.116117	0.050023	34.000000	nontarget	14.000000	na
35.166140	0.049597	34.000000	nontarget	15.000000	na
35.215736	0.050381	34.000000	nontarget	16.000000	35.240414
35.266118	0.050173	35.000000	nontarget	1.000000	35.272658
35.316291	0.049609	35.000000	nontarget	2.000000	na
35.365900	0.050067	35.000000	nontarget	3.000000	na
35.415967	0.050320	35.000000	nontarget	4.000000	na
35.466287	0.049775	35.000000	nontarget	5.000000	na
35.516062	0.050053	35.000000	nontarget	6.000000	na
35.566115	0.049252	35.000000	nontarget	7.000000	na
35.615367	0.050019	35.000000	nontarget	8.000000	na
35.665386	0.050708	35.000000	nontarget	9.000000	na
35.716094	0.050183	35.000000	nontarget	10.000000	na
35.766277	0.049795	35.000000	nontarget	11.000000	na
35.816071	0.050084	35.000000	nontarget	12.000000	na
35.866155	0.049523	35.000000	nontarget	13.000000	na
35.915678	0.050404	35.000000	nontarget	14.000000	na
35.966083	0.049364	35.000000	nontarget	15.000000	na
36.015447	0.049904	35.000000	nontarget	16.000000	na
36.065352	0.050027	36.000000	target	1.000000	na
36.115379	0.050245	36.000000	target	2.000000	na
36.165624	0.049845	36.000000	target	3.000000	na
36.215469	0.049904	36.000000	target	4.000000	na
36.265373	0.050075	36.000000	target	5.000000	na
36.315448	0.049912	36.000000	target	6.000000	na
36.365360	0.050008	36.000000	target	7.000000	na
36.415368	0.050018	36.000000	target	8.000000	na
36.465386	0.050824	36.000000	target	9.000000	na
36.516210	0.048859	36.000000	target	10.000000	na
36.565069	0.050314	36.000000	target	11.000000	na
36.615384	0.050653	36.000000	target	12.000000	na
36.666037	0.049996	36.000000	target	13.000000	na
36.716032	0.049966	36.000000	target	14.000000	na
36.765998	0.050029	36.000000	target	15.000000	na
36.816027	0.049308	36.000000	target	16.000000	na
36.865335	0.050420	37.000000	nontarget	1.000000	na
36.915755	0.050262	37.000000	nontarget	2.000000	36.922006
36.966017	0.049220	37.000000	nontarget	3.000000	na
37.015238	0.050749	37.000000	nontarget	4.000000	na
37.065987	0.050268	37.000000	nontarget	5.000000	na
37.116255	0.049744	37.000000	nontarget	6.000000	na
37.165999	0.049966	37.000000	nontarget	7.000000	na
37.215965	0.049656	37.000000	nontarget	8.000000	na
37.265621	0.050356	37.000000	nontarget	9.000000	na
37.315977	0.050013	37.000000	nontarget	10.000000	na
37.365990	0.049974	37.000000	nontarget	11.000000	na
37.415963	0.050033	37.000000	nontarget	12.000000	na
37.465996	0.049886	37.000000	nontarget	13.000000	na
37.515882	0.050149	37.000000	nontarget	14.000000	na
37.566031	0.050071	37.000000	nontarget	15.000000	na
37.616102	0.049178	37.000000	nontarget	16.000000	na
37.665281	0.050699	38.000000	target	1.000000	na
37.715980	0.049105	38.000000	target	2.000000	na
37.765085	0.050258	38.000000	target	3.000000	na
37.815343	0.050576	38.000000	target	4.000000	na
37.865919	0.049428	38.000000	target	5.000000	na
37.915347	0.049747	38.000000	target	6.000000	na
37.965094	0.049969	38.000000	target	7.000000	na
38.015063	0.050746	38.000000	target	8.000000	na
38.065809	0.049404	38.000000	target	9.000000	na
38.115213	0.050892	38.000000	target	10.000000	na
38.166104	0.049499	38.000000	target	11.000000	na
38.215603	0.050327	38.000000	target	12.000000	na
38.265930	0.049428	38.000000	target	13.000000	na
38.315359	0.050349	38.000000	target	14.000000	na
38.365708	0.049622	38.000000	target	15.000000	na
38.415330	0.049873	38.000000	target	16.000000	na
38.465203	0.050848	39.000000	nontarget	1.000000	38.471423
38.516050	0.049281	39.000000	nontarget	2.000000	na
38.565332	0.050283	39.000000	nontarget	3.000000	na
38.615615	0.050131	39.000000	nontarget	4.000000	na
38.665746	0.050343	39.000000	nontarget	5.000000	na
38.716089	0.048982	39.000000	nontarget	6.000000	na
38.765071	0.050099	39.000000	nontarget	7.000000	na
38.815170	0.050153	39.000000	nontarget	8.000000	na
38.865324	0.050117	39.000000	nontarget	9.000000	na
38.915440	0.050507	39.000000	nontarget	10.000000	na
38.965947	0.049310	39.000000	nontarget	11.000000	na
39.015257	0.050408	39.000000	nontarget	12.000000	na
39.065664	0.050239	39.000000	nontarget	13.000000	na
39.115903	0.049798	39.000000	nontarget	14.000000	na
39.165701	0.050108	39.000000	nontarget	15.000000	na
39.215809	0.049285	39.000000	nontarget	16.000000	na
39.265094	0.050671	40.000000	nontarget	1.000000	39.271659
39.315766	0.049285	40.000000	nontarget	2.000000	na
39.365051	0.050263	40.000000	nontarget	3.000000	na
39.415314	0.050568	40.000000	nontarget	4.000000	na
39.465882	0.050174	40.000000	nontarget	5.000000	na
39.516056	0.049801	40.000000	nontarget	6.000000	na
39.565858	0.049732	40.000000	nontarget	7.000000	na
39.615590	0.050286	40.000000	nontarget	8.000000	na
39.665876	0.049428	40.000000	nontarget	9.000000	na
39.715304	0.049996	40.000000	nontarget	10.000000	na
39.765300	0.049997	40.000000	nontarget	11.000000	na
39.815297	0.050598	40.000000	nontarget	12.000000	na
39.865895	0.049399	40.000000	nontarget	13.000000	na
39.915294	0.049855	40.000000	nontarget	14.000000	39.938717
39.965149	0.049894	40.000000	nontarget	15.000000	na
40.015043	0.050509	40.000000	nontarget	16.000000	na
40.065552	0.050187	41.000000	nontarget	1.000000	40.072268
40.115739	0.050174	41.000000	nontarget	2.000000	na
40.165914	0.049190	41.000000	nontarget	3.000000	na
40.215103	0.051002	41.000000	nontarget	4.000000	na
40.266105	0.049602	41.000000	nontarget	5.000000	na
40.315708	0.049588	41.000000	nontarget	6.000000	na
40.365296	0.050024	41.000000	nontarget	7.000000	na
40.415319	0.050461	41.000000	nontarget	8.000000	na
40.465781	0.049537	41.000000	nontarget	9.000000	na
40.515317	0.049971	41.000000	nontarget	10.000000	na
40.565288	0.050524	41.000000	nontarget	11.000000	na
40.615812	0.049993	41.000000	nontarget	12.000000	na
40.665805	0.050021	41.000000	nontarget	13.000000	na
40.715827	0.049517	41.000000	nontarget	14.000000	na
40.765344	0.050258	41.000000	nontarget	15.000000	na
40.815602	0.049683	41.000000	nontarget	16.000000	na
40.865285	0.050508	42.000000	nontarget	1.000000	40.892323
40.915793	0.049353	42.000000	nontarget	2.000000	na
40.965146	0.049914	42.000000	nontarget	3.000000	na
41.015060	0.050250	42.000000	nontarget	4.000000	na
41.065310	0.050437	42.000000	nontarget	5.000000	na
41.115747	0.049303	42.000000	nontarget	6.000000	na
41.165050	0.049774	42.000000	nontarget	7.000000	na
41.214824	0.050586	42.000000	nontarget	8.000000	na
41.265410	0.049887	42.000000	nontarget	9.000000	na
41.315297	0.049952	42.000000	nontarget	10.000000	na
41.365249	0.049837	42.000000	nontarget	11.000000	na
41.415086	0.050637	42.000000	nontarget	12.000000	na
41.465723	0.049922	42.000000	nontarget	13.000000	na
41.515645	0.049533	42.000000	nontarget	14.000000	na
41.565178	0.050352	42.000000	nontarget	15.000000	na
41.615530	0.050228	42.000000	nontarget	16.000000	na
41.665759	0.050258	43.000000	nontarget	1.000000	na
41.716017	0.049800	43.000000	nontarget	2.000000	41.722585
41.765817	0.049995	43.000000	nontarget	3.000000	na
41.815811	0.049872	43.000000	nontarget	4.000000	na
41.865684	0.050044	43.000000	nontarget	5.000000	na
41.915728	0.049998	43.000000	nontarget	6.000000	na
41.965726	0.049348	43.000000	nontarget	7.000000	na
42.015075	0.050643	43.000000	nontarget	8.000000	na
42.065717	0.049832	43.000000	nontarget	9.000000	na
42.115549	0.050315	43.000000	nontarget	10.000000	na
42.165864	0.049510	43.000000	nontarget	11.000000	na
42.215374	0.049878	43.000000	nontarget	12.000000	na
42.265252	0.049977	43.000000	nontarget	13.000000	na
42.315229	0.049681	43.000000	nontarget	14.000000	na
42.364910	0.050373	43.000000	nontarget	15.000000	na
42.415283	0.050408	43.000000	nontarget	16.000000	na
42.465691	0.049764	44.000000	nontarget	1.000000	na
42.515455	0.050007	44.000000	nontarget	2.000000	42.521988
42.565462	0.049586	44.000000	nontarget	3.000000	na
42.615048	0.050582	44.000000	nontarget	4.000000	na
42.665631	0.049823	44.000000	nontarget	5.000000	na
42.715454	0.050147	44.000000	nontarget	6.000000	na
42.765601	0.050007	44.000000	nontarget	7.000000	na
42.815609	0.049647	44.000000	nontarget	8.000000	na
42.865255	0.050010	44.000000	nontarget	9.000000	na
42.915266	0.050315	44.000000	nontarget	10.000000	na
42.965581	0.049597	44.000000	nontarget	11.000000	na
43.015178	0.050656	44.000000	nontarget	12.000000	na
43.065834	0.049120	44.000000	nontarget	13.000000	na
43.114954	0.050213	44.000000	nontarget	14.000000	na
43.165167	0.050510	44.000000	nontarget	15.000000	na
43.215677	0.049439	44.000000	nontarget	16.000000	43.222300
43.265115	0.050132	45.000000	nontarget	1.000000	43.271683
43.315247	0.049558	45.000000	nontarget	2.000000	na
43.364805	0.049942	45.000000	nontarget	3.000000	na
43.414748	0.050524	45.000000	nontarget	4.000000	na
43.465271	0.050080	45.000000	nontarget	5.000000	na
43.515352	0.050204	45.000000	nontarget	6.000000	na
43.565556	0.050392	45.000000	nontarget	7.000000	na
43.615948	0.049360	45.000000	nontarget	8.000000	na
43.665307	0.049955	45.000000	nontarget	9.000000	na
43.715262	0.049886	45.000000	nontarget	10.000000	na
43.765148	0.050105	45.000000	nontarget	11.000000	na
43.815253	0.050382	45.000000	nontarget	12.000000	na
43.865635	0.049925	45.000000	nontarget	13.000000	na
43.915560	0.049703	45.000000	nontarget	14.000000	na
43.965263	0.049445	45.000000	nontarget	15.000000	na
44.014707	0.050558	45.000000	nontarget	16.000000	44.029961
44.065265	0.050207	46.000000	nontarget	1.000000	44.071797
44.115472	0.049629	46.000000	nontarget	2.000000	na
44.165101	0.050420	46.000000	nontarget	3.000000	na
44.215521	0.049741	46.000000	nontarget	4.000000	na
44.265262	0.049979	46.000000	nontarget	5.000000	na
44.315241	0.050522	46.000000	nontarget	6.000000	na
44.365764	0.049472	46.000000	nontarget	7.000000	na
44.415235	0.050417	46.000000	nontarget	8.000000	na
44.465652	0.049492	46.000000	nontarget	9.000000	na
44.515144	0.049991	46.000000	nontarget	10.000000	na
44.565135	0.049769	46.000000	nontarget	11.000000	na
44.614904	0.050383	46.000000	nontarget	12.000000	na
44.665288	0.049992	46.000000	nontarget	13.000000	na
44.715280	0.050119	46.000000	nontarget	14.000000	na
44.765399	0.049883	46.000000	nontarget	15.000000	na
44.815282	0.049527	46.000000	nontarget	16.000000	na
44.864810	0.050457	47.000000	nontarget	1.000000	44.871429
44.915267	0.050286	47.000000	nontarget	2.000000	na
44.965553	0.049619	47.000000	nontarget	3.000000	na
45.015172	0.050022	47.000000	nontarget	4.000000	na
45.065194	0.050144	47.000000	nontarget	5.000000	na
45.115339	0.050059	47.000000	nontarget	6.000000	na
45.165398	0.049506	47.000000	nontarget	7.000000	na
45.214903	0.050874	47.000000	nontarget	8.000000	na
45.265777	0.048918	47.000000	nontarget	9.000000	na
45.314695	0.050178	47.000000	nontarget	10.000000	na
45.364873	0.050344	47.000000	nontarget	11.000000	na
45.415217	0.049901	47.000000	nontarget	12.000000	na
45.465118	0.049919	47.000000	nontarget	13.000000	na
45.515037	0.049854	47.000000	nontarget	14.000000	na
45.564891	0.050350	47.000000	nontarget	15.000000	na
45.615240	0.049766	47.000000	nontarget	16.000000	45.621848
45.665007	0.050150	48.000000	nontarget	1.000000	45.671646
45.715156	0.050353	48.000000	nontarget	2.000000	na
45.765509	0.049731	48.000000	nontarget	3.000000	na
45.815240	0.049976	48.000000	nontarget	4.000000	na
45.865216	0.050042	48.000000	nontarget	5.000000	na
45.915258	0.049836	48.000000	nontarget	6.000000	na
45.965094	0.049829	48.000000	nontarget	7.000000	na
46.014923	0.049914	48.000000	nontarget	8.000000	na
46.064836	0.050866	48.000000	nontarget	9.000000	na
46.115702	0.050086	48.000000	nontarget	10.000000	na
46.165788	0.049454	48.000000	nontarget	11.000000	na
46.215243	0.049649	48.000000	nontarget	12.000000	na
46.264891	0.050341	48.000000	nontarget	13.000000	na
46.315233	0.049711	48.000000	nontarget	14.000000	na
46.364944	0.050595	48.000000	nontarget	15.000000	na
46.415538	0.049985	48.000000	nontarget	16.000000	46.450158
46.465524	0.050088	49.000000	nontarget	1.000000	46.472095
46.515611	0.049521	49.000000	nontarget	2.000000	na
46.565132	0.050636	49.000000	nontarget	3.000000	na
46.615768	0.049447	49.000000	nontarget	4.000000	na
46.665215	0.049993	49.000000	nontarget	5.000000	na
46.715208	0.050024	49.000000	nontarget	6.000000	na
46.765232	0.049972	49.000000	nontarget	7.000000	na
46.815203	0.050005	49.000000	nontarget	8.000000	na
46.865209	0.050025	49.000000	nontarget	9.000000	na
46.915234	0.050302	49.000000	nontarget	10.000000	na
46.965536	0.049751	49.000000	nontarget	11.000000	na
47.015287	0.050035	49.000000	nontarget	12.000000	na
47.065323	0.049898	49.000000	nontarget	13.000000	na
47.115220	0.050308	49.000000	nontarget	14.000000	na
47.165529	0.049356	49.000000	nontarget	15.000000	na
47.214885	0.050320	49.000000	nontarget	16.000000	na
47.265205	0.050023	50.000000	nontarget	1.000000	47.271772
47.315228	0.049630	50.000000	nontarget	2.000000	na
47.364857	0.050267	50.000000	nontarget	3.000000	na
47.415125	0.050060	50.000000	nontarget	4.000000	na
47.465185	0.049745	50.000000	nontarget	5.000000	na
47.514929	0.050206	50.000000	nontarget	6.000000	na
47.565135	0.050058	50.000000	nontarget	7.000000	na
47.615194	0.050035	50.000000	nontarget	8.000000	na
47.665229	0.050089	50.000000	nontarget	9.000000	na
47.715318	0.049882	50.000000	nontarget	10.000000	na
47.765201	0.050274	50.000000	nontarget	11.000000	na
47.815475	0.049717	50.000000	nontarget	12.000000	na
47.865191	0.050430	50.000000	nontarget	13.000000	na
47.915622	0.049554	50.000000	nontarget	14.000000	na
47.965176	0.049880	50.000000	nontarget	15.000000	na
48.015056	0.050128	50.000000	nontarget	16.000000	na
48.065184	0.050029	51.000000	nontarget	1.000000	48.071814
48.115213	0.050002	51.000000	nontarget	2.000000	na
48.165216	0.049954	51.000000	nontarget	3.000000	na
48.215170	0.049852	51.000000	nontarget	4.000000	na
48.265022	0.050499	51.000000	nontarget	5.000000	na
48.315521	0.049760	51.000000	nontarget	6.000000	na
48.365281	0.049608	51.000000	nontarget	7.000000	na
48.414889	0.050157	51.000000	nontarget	8.000000	na
48.465046	0.050170	51.000000	nontarget	9.000000	na
48.515216	0.049843	51.000000	nontarget	10.000000	na
48.565059	0.049843	51.000000	nontarget	11.000000	na
48.614902	0.050600	51.000000	nontarget	12.000000	na
48.665502	0.049699	51.000000	nontarget	13.000000	na
48.715201	0.050005	51.000000	nontarget	14.000000	na
48.765207	0.050242	51.000000	nontarget	15.000000	na
48.815449	0.049994	51.000000	nontarget	16.000000	na
48.865442	0.049730	52.000000	nontarget	1.000000	na
48.915172	0.049807	52.000000	nontarget	2.000000	48.945729
48.964979	0.050247	52.000000	nontarget	3.000000	na
49.015226	0.049307	52.000000	nontarget	4.000000	na
49.064533	0.050588	52.000000	nontarget	5.000000	na
49.115121	0.050055	52.000000	nontarget	6.000000	na
49.165176	0.050004	52.000000	nontarget	7.000000	na
49.215181	0.050078	52.000000	nontarget	8.000000	na
49.265258	0.049259	52.000000	nontarget	9.000000	na
49.314518	0.050661	52.000000	nontarget	10.000000	na
49.365179	0.050012	52.000000	nontarget	11.000000	na
49.415191	0.049924	52.000000	nontarget	12.000000	na
49.465115	0.050058	52.000000	nontarget	13.000000	na
49.515173	0.049797	52.000000	nontarget	14.000000	na
49.564970	0.050466	52.000000	nontarget	15.000000	na
49.615436	0.049750	52.000000	nontarget	16.000000	na
49.665186	0.049998	53.000000	nontarget	1.000000	na
49.715185	0.049935	53.000000	nontarget	2.000000	na
49.765120	0.050054	53.000000	nontarget	3.000000	49.796135
49.815174	0.050271	53.000000	nontarget	4.000000	na
49.865445	0.049730	53.000000	nontarget	5.000000	na
49.915176	0.049981	53.000000	nontarget	6.000000	na
49.965157	0.050107	53.000000	nontarget	7.000000	na
50.015264	0.049655	53.000000	nontarget	8.000000	na
50.064919	0.050254	53.000000	nontarget	9.000000	na
50.115173	0.050013	53.000000	nontarget	10.000000	na
50.165186	0.049638	53.000000	nontarget	11.000000	na
50.214825	0.050254	53.000000	nontarget	12.000000	na
50.265079	0.050104	53.000000	nontarget	13.000000	na
50.315184	0.049995	53.000000	nontarget	14.000000	na
50.365179	0.049979	53.000000	nontarget	15.000000	na
50.415158	0.050026	53.000000	nontarget	16.000000	na
50.465184	0.049979	54.000000	nontarget	1.000000	na
50.515163	0.049936	54.000000	nontarget	2.000000	na
50.565099	0.049946	54.000000	nontarget	3.000000	na
50.615044	0.050112	54.000000	nontarget	4.000000	na
50.665156	0.050020	54.000000	nontarget	5.000000	na
50.715177	0.049938	54.000000	nontarget	6.000000	na
50.765115	0.049500	54.000000	nontarget	7.000000	na
50.814614	0.049640	54.000000	nontarget	8.000000	50.821429
50.864254	0.050912	54.000000	nontarget	9.000000	na
50.915167	0.049909	54.000000	nontarget	10.000000	na
50.965075	0.050014	54.000000	nontarget	11.000000	na
51.015089	0.050054	54.000000	nontarget	12.000000	na
51.065144	0.049976	54.000000	nontarget	13.000000	na
51.115119	0.049599	54.000000	nontarget	14.000000	na
51.164718	0.050410	54.000000	nontarget	15.000000	na
51.215127	0.050028	54.000000	nontarget	16.000000	na
51.265155	0.049528	55.000000	nontarget	1.000000	na
51.314683	0.050428	55.000000	nontarget	2.000000	na
51.365111	0.049547	55.000000	nontarget	3.000000	na
51.414658	0.050473	55.000000	nontarget	4.000000	na
51.465131	0.049600	55.000000	nontarget	5.000000	51.476558
51.514731	0.050139	55.000000	nontarget	6.000000	na
51.564871	0.050279	55.000000	nontarget	7.000000	na
51.615150	0.049774	55.000000	nontarget	8.000000	na
51.664924	0.050117	55.000000	nontarget	9.000000	na
51.715041	0.050065	55.000000	nontarget	10.000000	na
51.765105	0.049995	55.000000	nontarget	11.000000	na
51.815100	0.049862	55.000000	nontarget	12.000000	na
51.864962	0.050211	55.000000	nontarget	13.000000	na
51.915173	0.049934	55.000000	nontarget	14.000000	na
51.965107	0.049921	55.000000	nontarget	15.000000	na
52.015028	0.049743	55.000000	nontarget	16.000000	na
52.064771	0.050284	56.000000	target	1.000000	na
52.115055	0.050031	56.000000	target	2.000000	na
52.165086	0.049819	56.000000	target	3.000000	na
52.214906	0.050234	56.000000	target	4.000000	na
52.265140	0.049720	56.000000	target	5.000000	na
52.314860	0.050287	56.000000	target	6.000000	na
52.365147	0.049507	56.000000	target	7.000000	na
52.414654	0.050421	56.000000	target	8.000000	na
52.465075	0.049247	56.000000	target	9.000000	na
52.514322	0.050196	56.000000	target	10.000000	na
52.564519	0.050518	56.000000	target	11.000000	na
52.615037	0.049394	56.000000	target	12.000000	na
52.664431	0.049982	56.000000	target	13.000000	na
52.714413	0.050235	56.000000	target	14.000000	na
52.764648	0.050363	56.000000	target	15.000000	na
52.815012	0.049994	56.000000	target	16.000000	na
52.865005	0.050133	57.000000	nontarget	1.000000	52.871552
52.915139	0.049381	57.000000	nontarget	2.000000	na
52.964520	0.050097	57.000000	nontarget	3.000000	na
53.014616	0.050495	57.000000	nontarget	4.000000	na
53.065111	0.049779	57.000000	nontarget	5.000000	na
53.114889	0.049831	57.000000	nontarget	6.000000	na
53.164720	0.049886	57.000000	nontarget	7.000000	na
53.214606	0.050158	57.000000	nontarget	8.000000	na
53.264764	0.049612	57.000000	nontarget	9.000000	na
53.314376	0.050102	57.000000	nontarget	10.000000	na
53.364478	0.050666	57.000000	nontarget	11.000000	na
53.415143	0.049894	57.000000	nontarget	12.000000	na
53.465038	0.049696	57.000000	nontarget	13.000000	na
53.514734	0.050253	57.000000	nontarget	14.000000	na
53.564986	0.049971	57.000000	nontarget	15.000000	na
53.614958	0.049912	57.000000	nontarget	16.000000	na
53.664870	0.049967	58.000000	nontarget	1.000000	53.671456
53.714837	0.049933	58.000000	nontarget	2.000000	na
53.764771	0.050264	58.000000	nontarget	3.000000	na
53.815034	0.049424	58.000000	nontarget	4.000000	na
53.864459	0.050085	58.000000	nontarget	5.000000	na
53.914544	0.050258	58.000000	nontarget	6.000000	na
53.964803	0.050110	58.000000	nontarget	7.000000	na
54.014912	0.049989	58.000000	nontarget	8.000000	na
54.064901	0.049601	58.000000	nontarget	9.000000	na
54.114503	0.050452	58.000000	nontarget	10.000000	na
54.164955	0.049982	58.000000	nontarget	11.000000	na
54.214937	0.050022	58.000000	nontarget	12.000000	na
54.264959	0.049968	58.000000	nontarget	13.000000	na
54.314926	0.050007	58.000000	nontarget	14.000000	na
54.364933	0.049983	58.000000	nontarget	15.000000	na
54.414916	0.050009	58.000000	nontarget	16.000000	na
54.464925	0.049518	59.000000	nontarget	1.000000	54.471430
54.514442	0.050502	59.000000	nontarget	2.000000	na
54.564945	0.050002	59.000000	nontarget	3.000000	na
54.614947	0.049959	59.000000	nontarget	4.000000	na
54.664906	0.049598	59.000000	nontarget	5.000000	na
54.714504	0.050189	59.000000	nontarget	6.000000	na
54.764693	0.050187	59.000000	nontarget	7.000000	na
54.814880	0.049737	59.000000	nontarget	8.000000	na
54.864616	0.049802	59.000000	nontarget	9.000000	na
54.914418	0.050165	59.000000	nontarget	10.000000	na
54.964583	0.050007	59.000000	nontarget	11.000000	na
55.014590	0.050441	59.000000	nontarget	12.000000	na
55.065031	0.049769	59.000000	nontarget	13.000000	na
55.114801	0.049666	59.000000	nontarget	14.000000	na
55.164467	0.050035	59.000000	nontarget	15.000000	na
55.214501	0.050190	59.000000	nontarget	16.000000	na
55.264691	0.049963	60.000000	nontarget	1.000000	na
55.314654	0.050175	60.000000	nontarget	2.000000	na
55.364829	0.050044	60.000000	nontarget	3.000000	na
55.414872	0.050006	60.000000	nontarget	4.000000	55.446207
55.464878	0.050016	60.000000	nontarget	5.000000	na
55.514894	0.049962	60.000000	nontarget	6.000000	na
55.564856	0.050001	60.000000	nontarget	7.000000	na
55.614857	0.049838	60.000000	nontarget	8.000000	na
55.664695	0.049921	60.000000	nontarget	9.000000	na
55.714616	0.050299	60.000000	nontarget	10.000000	na
55.764914	0.049040	60.000000	nontarget	11.000000	na
55.813954	0.050224	60.000000	nontarget	12.000000	na
55.864178	0.050767	60.000000	nontarget	13.000000	na
55.914945	0.049192	60.000000	nontarget	14.000000	na
55.964137	0.050229	60.000000	nontarget	15.000000	na
56.014366	0.050295	60.000000	nontarget	16.000000	na
56.064661	0.049438	61.000000	target	1.000000	na
56.114099	0.050750	61.000000	target	2.000000	na
56.164849	0.049559	61.000000	target	3.000000	na
56.214408	0.049672	61.000000	target	4.000000	na
56.264080	0.050772	61.000000	target	5.000000	na
56.314852	0.049781	61.000000	target	6.000000	na
56.364634	0.050281	61.000000	target	7.000000	na
56.414915	0.050117	61.000000	target	8.000000	na
56.465032	0.049769	61.000000	target	9.000000	na
56.514801	0.049462	61.000000	target	10.000000	na
56.564263	0.050500	61.000000	target	11.000000	na
56.614762	0.050033	61.000000	target	12.000000	na
56.664795	0.050109	61.000000	target	13.000000	na
56.714905	0.049727	61.000000	target	14.000000	na
56.764632	0.050022	61.000000	target	15.000000	na
56.814654	0.050124	61.000000	target	16.000000	na
56.864778	0.050027	62.000000	target	1.000000	na
56.914805	0.050000	62.000000	target	2.000000	na
56.964806	0.049678	62.000000	target	3.000000	na
57.014483	0.049874	62.000000	target	4.000000	na
57.064357	0.050457	62.000000	target	5.000000	na
57.114815	0.049989	62.000000	target	6.000000	na
57.164804	0.049797	62.000000	target	7.000000	na
57.214600	0.050187	62.000000	target	8.000000	na
57.264788	0.049594	62.000000	target	9.000000	na
57.314382	0.050374	62.000000	target	10.000000	na
57.364756	0.050017	62.000000	target	11.000000	na
57.414773	0.049584	62.000000	target	12.000000	na
57.464357	0.050401	62.000000	target	13.000000	na
57.514758	0.049325	62.000000	target	14.000000	na
57.564083	0.050574	62.000000	target	15.000000	na
57.614656	0.050383	62.000000	target	16.000000	na
57.665040	0.049453	63.000000	nontarget	1.000000	57.671639
57.714492	0.050141	63.000000	nontarget	2.000000	na
57.764633	0.050241	63.000000	nontarget	3.000000	na
57.814874	0.049838	63.000000	nontarget	4.000000	na
57.864712	0.049990	63.000000	nontarget	5.000000	na
57.914702	0.049981	63.000000	nontarget	6.000000	na
57.964682	0.050215	63.000000	nontarget	7.000000	na
58.014897	0.049183	63.000000	nontarget	8.000000	na
58.064080	0.049983	63.000000	nontarget	9.000000	na
58.114063	0.050664	63.000000	nontarget	10.000000	na
58.164727	0.049349	63.000000	nontarget	11.000000	na
58.214077	0.050172	63.000000	nontarget	12.000000	na
58.264249	0.049956	63.000000	nontarget	13.000000	na
58.314205	0.050532	63.000000	nontarget	14.000000	na
58.364737	0.049076	63.000000	nontarget	15.000000	na
58.413813	0.050867	63.000000	nontarget	16.000000	na
58.464680	0.049500	64.000000	nontarget	1.000000	na
58.514180	0.050000	64.000000	nontarget	2.000000	58.542650
58.564180	0.049967	64.000000	nontarget	3.000000	na
58.614147	0.050516	64.000000	nontarget	4.000000	na
58.664663	0.050032	64.000000	nontarget	5.000000	na
58.714694	0.050101	64.000000	nontarget	6.000000	na
58.764795	0.049718	64.000000	nontarget	7.000000	na
58.814513	0.050139	64.000000	nontarget	8.000000	na
58.864652	0.049493	64.000000	nontarget	9.000000	na
58.914145	0.050724	64.000000	nontarget	10.000000	na
58.964869	0.049849	64.000000	nontarget	11.000000	na
59.014717	0.049590	64.000000	nontarget	12.000000	na
59.064307	0.050361	64.000000	nontarget	13.000000	na
59.114668	0.050089	64.000000	nontarget	14.000000	na
59.164757	0.049780	64.000000	nontarget	15.000000	na
59.214537	0.049906	64.000000	nontarget	16.000000	na
59.264443	0.049650	65.000000	nontarget	1.000000	na
59.314093	0.050082	65.000000	nontarget	2.000000	na
59.364175	0.050562	65.000000	nontarget	3.000000	59.390892
59.414737	0.049877	65.000000	nontarget	4.000000	na
59.464614	0.050009	65.000000	nontarget	5.000000	na
59.514623	0.049348	65.000000	nontarget	6.000000	na
59.563971	0.050472	65.000000	nontarget	7.000000	na
59.614442	0.049860	65.000000	nontarget	8.000000	na
59.664302	0.050092	65.000000	nontarget	9.000000	na
59.714394	0.050573	65.000000	nontarget	10.000000	na
59.764967	0.049531	65.000000	nontarget	11.000000	na
59.814498	0.049680	65.000000	nontarget	12.000000	na
59.864178	0.049869	65.000000	nontarget	13.000000	na
59.914047	0.050727	65.000000	nontarget	14.000000	na
59.964774	0.049144	65.000000	nontarget	15.000000	na
60.013918	0.050550	65.000000	nontarget	16.000000	na
60.064468	0.049407	66.000000	nontarget	1.000000	na
60.113876	0.050489	66.000000	nontarget	2.000000	na
60.164364	0.050398	66.000000	nontarget	3.000000	na
60.214762	0.049745	66.000000	nontarget	4.000000	60.230782
60.264508	0.049805	66.000000	nontarget	5.000000	na
60.314312	0.050516	66.000000	nontarget	6.000000	na
60.364828	0.049818	66.000000	nontarget	7.000000	na
60.414646	0.050168	66.000000	nontarget	8.000000	na
60.464815	0.049756	66.000000	nontarget	9.000000	na
60.514571	0.050312	66.000000	nontarget	10.000000	na
60.564884	0.048914	66.000000	nontarget	11.000000	na
60.613798	0.050753	66.000000	nontarget	12.000000	na
60.664551	0.049850	66.000000	nontarget	13.000000	na
60.714401	0.050024	66.000000	nontarget	14.000000	na
60.764426	0.050079	66.000000	nontarget	15.000000	na
60.814504	0.050043	66.000000	nontarget	16.000000	na
60.864547	0.049949	67.000000	nontarget	1.000000	na
60.914496	0.050049	67.000000	nontarget	2.000000	na
60.964545	0.050169	67.000000	nontarget	3.000000	na
61.014715	0.049789	67.000000	nontarget	4.000000	61.030200
61.064504	0.050009	67.000000	nontarget	5.000000	na
61.114513	0.050210	67.000000	nontarget	6.000000	na
61.164722	0.049436	67.000000	nontarget	7.000000	na
61.214158	0.050330	67.000000	nontarget	8.000000	na
61.264488	0.050262	67.000000	nontarget	9.000000	na
61.314749	0.050038	67.000000	nontarget	10.000000	na
61.364788	0.049331	67.000000	nontarget	11.000000	na
61.414119	0.050362	67.000000	nontarget	12.000000	na
61.464481	0.050182	67.000000	nontarget	13.000000	na
61.514662	0.049310	67.000000	nontarget	14.000000	na
61.563973	0.050586	67.000000	nontarget	15.000000	na
61.614558	0.049560	67.000000	nontarget	16.000000	na
61.664118	0.050256	68.000000	nontarget	1.000000	na
61.714373	0.049734	68.000000	nontarget	2.000000	na
61.764108	0.049842	68.000000	nontarget	3.000000	na
61.813949	0.050717	68.000000	nontarget	4.000000	na
61.864666	0.049931	68.000000	nontarget	5.000000	na
61.914597	0.049857	68.000000	nontarget	6.000000	na
61.964455	0.049951	68.000000	nontarget	7.000000	na
62.014405	0.050397	68.000000	nontarget	8.000000	62.043260
62.064802	0.049606	68.000000	nontarget	9.000000	na
62.114409	0.049957	68.000000	nontarget	10.000000	na
62.164365	0.050108	68.000000	nontarget	11.000000	na
62.214474	0.049535	68.000000	nontarget	12.000000	na
62.264009	0.050713	68.000000	nontarget	13.000000	na
62.314722	0.049913	68.000000	nontarget	14.000000	na
62.364635	0.049268	68.000000	nontarget	15.000000	na
62.413903	0.050533	68.000000	nontarget	16.000000	na
62.464436	0.049938	69.000000	nontarget	1.000000	na
62.514373	0.049999	69.000000	nontarget	2.000000	na
62.564372	0.050275	69.000000	nontarget	3.000000	na
62.614648	0.049875	69.000000	nontarget	4.000000	na
62.664523	0.049415	69.000000	nontarget	5.000000	na
62.713938	0.049813	69.000000	nontarget	6.000000	62.720578
62.763752	0.050640	69.000000	nontarget	7.000000	na
62.814391	0.050226	69.000000	nontarget	8.000000	na
62.864617	0.050070	69.000000	nontarget	9.000000	na
62.914687	0.049688	69.000000	nontarget	10.000000	na
62.964375	0.049909	69.000000	nontarget	11.000000	na
63.014283	0.050267	69.000000	nontarget	12.000000	na
63.064550	0.049671	69.000000	nontarget	13.000000	na
63.114221	0.050177	69.000000	nontarget	14.000000	na
63.164399	0.049953	69.000000	nontarget	15.000000	na
63.214351	0.050168	69.000000	nontarget	16.000000	na
63.264519	0.050085	70.000000	nontarget	1.000000	na
63.314604	0.050077	70.000000	nontarget	2.000000	na
63.364681	0.049634	70.000000	nontarget	3.000000	na
63.414315	0.049996	70.000000	nontarget	4.000000	na
63.464311	0.050248	70.000000	nontarget	5.000000	63.470833
63.514560	0.049659	70.000000	nontarget	6.000000	na
63.564219	0.049417	70.000000	nontarget	7.000000	na
63.613636	0.050687	70.000000	nontarget	8.000000	na
63.664323	0.050053	70.000000	nontarget	9.000000	na
63.714377	0.049942	70.000000	nontarget	10.000000	na
63.764318	0.049899	70.000000	nontarget	11.000000	na
63.814217	0.050252	70.000000	nontarget	12.000000	na
63.864469	0.049845	70.000000	nontarget	13.000000	na
63.914315	0.049496	70.000000	nontarget	14.000000	na
63.963811	0.050194	70.000000	nontarget	15.000000	na
64.014005	0.049650	70.000000	nontarget	16.000000	na
64.063655	0.050679	71.000000	nontarget	1.000000	na
64.114334	0.049371	71.000000	nontarget	2.000000	64.120921
64.163704	0.050484	71.000000	nontarget	3.000000	na
64.214188	0.049387	71.000000	nontarget	4.000000	na
64.263575	0.050700	71.000000	nontarget	5.000000	na
64.314274	0.049332	71.000000	nontarget	6.000000	na
64.363606	0.049985	71.000000	nontarget	7.000000	na
64.413591	0.050571	71.000000	nontarget	8.000000	na
64.464162	0.050110	71.000000	nontarget	9.000000	na
64.514272	0.049708	71.000000	nontarget	10.000000	na
64.563980	0.049822	71.000000	nontarget	11.000000	na
64.613802	0.050437	71.000000	nontarget	12.000000	na
64.664239	0.049866	71.000000	nontarget	13.000000	na
64.714105	0.050308	71.000000	nontarget	14.000000	na
64.764413	0.049858	71.000000	nontarget	15.000000	na
64.814270	0.049871	71.000000	nontarget	16.000000	na
64.864141	0.050142	72.000000	nontarget	1.000000	na
64.914284	0.049425	72.000000	nontarget	2.000000	64.922812
64.963709	0.049835	72.000000	nontarget	3.000000	na
65.013544	0.050013	72.000000	nontarget	4.000000	na
65.063557	0.050675	72.000000	nontarget	5.000000	na
65.114232	0.050012	72.000000	nontarget	6.000000	na
65.164244	0.049189	72.000000	nontarget	7.000000	na
65.213433	0.050775	72.000000	nontarget	8.000000	na
65.264207	0.049992	72.000000	nontarget	9.000000	na
65.314199	0.049638	72.000000	nontarget	10.000000	na
65.363837	0.050126	72.000000	nontarget	11.000000	na
65.413964	0.050425	72.000000	nontarget	12.000000	na
65.464389	0.049266	72.000000	nontarget	13.000000	na
65.513655	0.050135	72.000000	nontarget	14.000000	na
65.563790	0.050202	72.000000	nontarget	15.000000	na
65.613991	0.049830	72.000000	nontarget	16.000000	na
65.663822	0.050252	73.000000	nontarget	1.000000	na
65.714074	0.050347	73.000000	nontarget	2.000000	na
65.764421	0.049714	73.000000	nontarget	3.000000	na
65.814135	0.050026	73.000000	nontarget	4.000000	65.820415
65.864161	0.049998	73.000000	nontarget	5.000000	na
65.914159	0.049999	73.000000	nontarget	6.000000	na
65.964158	0.050060	73.000000	nontarget	7.000000	na
66.014218	0.050003	73.000000	nontarget	8.000000	na
66.064221	0.049468	73.000000	nontarget	9.000000	na
66.113690	0.050429	73.000000	nontarget	10.000000	na
66.164119	0.049577	73.000000	nontarget	11.000000	na
66.213696	0.050403	73.000000	nontarget	12.000000	na
66.264099	0.049615	73.000000	nontarget	13.000000	na
66.313714	0.049969	73.000000	nontarget	14.000000	na
66.363683	0.050475	73.000000	nontarget	15.000000	na
66.414159	0.048919	73.000000	nontarget	16.000000	na
66.463078	0.051045	74.000000	target	1.000000	na
66.514123	0.049989	74.000000	target	2.000000	na
66.564112	0.050022	74.000000	target	3.000000	na
66.614133	0.049479	74.000000	target	4.000000	na
66.663612	0.050639	74.000000	target	5.000000	na
66.714251	0.049230	74.000000	target	6.000000	na
66.763481	0.050949	74.000000	target	7.000000	na
66.814430	0.049690	74.000000	target	8.000000	na
66.864120	0.050005	74.000000	target	9.000000	na
66.914125	0.050148	74.000000	target	10.000000	na
66.964273	0.049730	74.000000	target	11.000000	na
67.014003	0.050046	74.000000	target	12.000000	na
67.064049	0.049873	74.000000	target	13.000000	na
67.113921	0.050436	74.000000	target	14.000000	na
67.164357	0.049526	74.000000	target	15.000000	na
67.213883	0.050107	74.000000	target	16.000000	na
67.263990	0.050077	75.000000	target	1.000000	na
67.314067	0.049913	75.000000	target	2.000000	na
67.363980	0.050058	75.000000	target	3.000000	na
67.414038	0.050087	75.000000	target	4.000000	na
67.464124	0.050172	75.000000	target	5.000000	na
67.514297	0.049264	75.000000	target	6.000000	na
67.563561	0.050310	75.000000	target	7.000000	na
67.613870	0.049647	75.000000	target	8.000000	na
67.663518	0.050534	75.000000	target	9.000000	na
67.714052	0.050000	75.000000	target	10.000000	na
67.764052	0.049128	75.000000	target	11.000000	na
67.813180	0.050745	75.000000	target	12.000000	na
67.863925	0.049445	75.000000	target	13.000000	na
67.913370	0.050852	75.000000	target	14.000000	na
67.964223	0.048940	75.000000	target	15.000000	na
68.013163	0.050867	75.000000	target	16.000000	na
68.064030	0.049752	76.000000	nontarget	1.000000	68.070598
68.113781	0.050456	76.000000	nontarget	2.000000	na
68.164238	0.049134	76.000000	nontarget	3.000000	na
68.213372	0.050273	76.000000	nontarget	4.000000	na
68.263645	0.050358	76.000000	nontarget	5.000000	na
68.314003	0.050087	76.000000	nontarget	6.000000	na
68.364089	0.049983	76.000000	nontarget	7.000000	na
68.414073	0.049603	76.000000	nontarget	8.000000	na
68.463676	0.050290	76.000000	nontarget	9.000000	na
68.513965	0.049481	76.000000	nontarget	10.000000	na
68.563447	0.050104	76.000000	nontarget	11.000000	na
68.613551	0.050169	76.000000	nontarget	12.000000	na
68.663720	0.050110	76.000000	nontarget	13.000000	na
68.713830	0.050163	76.000000	nontarget	14.000000	na
68.763993	0.050225	76.000000	nontarget	15.000000	na
68.814218	0.049665	76.000000	nontarget	16.000000	na
68.863883	0.049598	77.000000	nontarget	1.000000	na
68.913481	0.050663	77.000000	nontarget	2.000000	na
68.964144	0.049016	77.000000	nontarget	3.000000	68.970742
69.013160	0.050810	77.000000	nontarget	4.000000	na
69.063971	0.049287	77.000000	nontarget	5.000000	na
69.113257	0.050426	77.000000	nontarget	6.000000	na
69.163683	0.050239	77.000000	nontarget	7.000000	na
69.213922	0.050144	77.000000	nontarget	8.000000	na
69.264066	0.049689	77.000000	nontarget	9.000000	na
69.313755	0.049583	77.000000	nontarget	10.000000	na
69.363338	0.050018	77.000000	nontarget	11.000000	na
69.413356	0.049914	77.000000	nontarget	12.000000	na
69.463269	0.050900	77.000000	nontarget	13.000000	na
69.514169	0.049904	77.000000	nontarget	14.000000	na
69.564073	0.049855	77.000000	nontarget	15.000000	na
69.613928	0.049839	77.000000	nontarget	16.000000	69.649411
69.663767	0.050161	78.000000	nontarget	1.000000	69.670319
69.713928	0.050005	78.000000	nontarget	2.000000	na
69.763933	0.049960	78.000000	nontarget	3.000000	na
69.813893	0.050302	78.000000	nontarget	4.000000	na
69.864195	0.049570	78.000000	nontarget	5.000000	na
69.913765	0.050122	78.000000	nontarget	6.000000	na
69.963887	0.050262	78.000000	nontarget	7.000000	na
70.014148	0.049755	78.000000	nontarget	8.000000	na
70.063903	0.050129	78.000000	nontarget	9.000000	na
70.114032	0.049892	78.000000	nontarget	10.000000	na
70.163924	0.049975	78.000000	nontarget	11.000000	na
70.213900	0.049998	78.000000	nontarget	12.000000	na
70.263898	0.050078	78.000000	nontarget	13.000000	na
70.313975	0.049845	78.000000	nontarget	14.000000	na
70.363820	0.049857	78.000000	nontarget	15.000000	na
70.413678	0.049337	78.000000	nontarget	16.000000	na
70.463014	0.050412	79.000000	nontarget	1.000000	na
70.513426	0.049905	79.000000	nontarget	2.000000	na
70.563332	0.050471	79.000000	nontarget	3.000000	70.578504
70.613803	0.050083	79.000000	nontarget	4.000000	na
70.663886	0.050033	79.000000	nontarget	5.000000	na
70.713919	0.049270	79.000000	nontarget	6.000000	na
70.763189	0.050378	79.000000	nontarget	7.000000	na
70.813567	0.050278	79.000000	nontarget	8.000000	na
70.863845	0.050034	79.000000	nontarget	9.000000	na
70.913879	0.049940	79.000000	nontarget	10.000000	na
70.963819	0.049654	79.000000	nontarget	11.000000	na
71.013473	0.050341	79.000000	nontarget	12.000000	na
71.063814	0.049979	79.000000	nontarget	13.000000	na
71.113793	0.049760	79.000000	nontarget	14.000000	na
71.163553	0.050224	79.000000	nontarget	15.000000	na
71.213777	0.049809	79.000000	nontarget	16.000000	na
71.263585	0.050215	80.000000	nontarget	1.000000	na
71.313800	0.049810	80.000000	nontarget	2.000000	71.328966
71.363610	0.050232	80.000000	nontarget	3.000000	na
71.413842	0.049282	80.000000	nontarget	4.000000	na
71.463124	0.050357	80.000000	nontarget	5.000000	na
71.513482	0.050345	80.000000	nontarget	6.000000	na
71.563826	0.049340	80.000000	nontarget	7.000000	na
71.613166	0.050218	80.000000	nontarget	8.000000	na
71.663384	0.050430	80.000000	nontarget	9.000000	na
71.713814	0.049721	80.000000	nontarget	10.000000	na
71.763535	0.050293	80.000000	nontarget	11.000000	na
71.813828	0.050174	80.000000	nontarget	12.000000	na
71.864002	0.049263	80.000000	nontarget	13.000000	na
71.913265	0.050530	80.000000	nontarget	14.000000	na
71.963795	0.050057	80.000000	nontarget	15.000000	na
72.013852	0.049963	80.000000	nontarget	16.000000	na
72.063815	0.049589	81.000000	nontarget	1.000000	72.083763
72.113404	0.050498	81.000000	nontarget	2.000000	na
72.163903	0.049166	81.000000	nontarget	3.000000	na
72.213069	0.050649	81.000000	nontarget	4.000000	na
72.263718	0.049850	81.000000	nontarget	5.000000	na
72.313568	0.049908	81.000000	nontarget	6.000000	na
72.363477	0.049753	81.000000	nontarget	7.000000	72.370091
72.413229	0.050428	81.000000	nontarget	8.000000	na
72.463657	0.050124	81.000000	nontarget	9.000000	na
72.513781	0.049862	81.000000	nontarget	10.000000	na
72.563642	0.049420	81.000000	nontarget	11.000000	na
72.613062	0.049955	81.000000	nontarget	12.000000	na
72.663017	0.050213	81.000000	nontarget	13.000000	na
72.713231	0.049985	81.000000	nontarget	14.000000	na
72.763216	0.050409	81.000000	nontarget	15.000000	na
72.813625	0.049373	81.000000	nontarget	16.000000	72.836292
72.862998	0.050390	82.000000	nontarget	1.000000	72.869578
72.913389	0.050327	82.000000	nontarget	2.000000	na
72.963716	0.049739	82.000000	nontarget	3.000000	na
73.013455	0.050473	82.000000	nontarget	4.000000	na
73.063927	0.049814	82.000000	nontarget	5.000000	na
73.113742	0.049998	82.000000	nontarget	6.000000	na
73.163739	0.049335	82.000000	nontarget	7.000000	na
73.213075	0.050582	82.000000	nontarget	8.000000	na
73.263656	0.050210	82.000000	nontarget	9.000000	na
73.313866	0.049678	82.000000	nontarget	10.000000	na
73.363544	0.049536	82.000000	nontarget	11.000000	na
73.413079	0.050141	82.000000	nontarget	12.000000	na
73.463220	0.050707	82.000000	nontarget	13.000000	na
73.513927	0.049778	82.000000	nontarget	14.000000	na
73.563706	0.050128	82.000000	nontarget	15.000000	na
73.613834	0.049900	82.000000	nontarget	16.000000	na
73.663733	0.049932	83.000000	nontarget	1.000000	na
73.713666	0.049421	83.000000	nontarget	2.000000	73.741824
73.763087	0.050305	83.000000	nontarget	3.000000	na
73.813391	0.050192	83.000000	nontarget	4.000000	na
73.863584	0.049460	83.000000	nontarget	5.000000	na
73.913044	0.050622	83.000000	nontarget	6.000000	na
73.963665	0.050199	83.000000	nontarget	7.000000	na
74.013864	0.049718	83.000000	nontarget	8.000000	na
74.063582	0.049501	83.000000	nontarget	9.000000	na
74.113083	0.050051	83.000000	nontarget	10.000000	na
74.163133	0.050471	83.000000	nontarget	11.000000	na
74.213604	0.049548	83.000000	nontarget	12.000000	na
74.263152	0.050378	83.000000	nontarget	13.000000	na
74.313529	0.049463	83.000000	nontarget	14.000000	na
74.362992	0.050690	83.000000	nontarget	15.000000	na
74.413683	0.050227	83.000000	nontarget	16.000000	na
74.463909	0.049684	84.000000	nontarget	1.000000	na
74.513593	0.050259	84.000000	nontarget	2.000000	na
74.563852	0.049201	84.000000	nontarget	3.000000	74.592674
74.613053	0.050765	84.000000	nontarget	4.000000	na
74.663817	0.049872	84.000000	nontarget	5.000000	na
74.713689	0.050198	84.000000	nontarget	6.000000	na
74.763888	0.049691	84.000000	nontarget	7.000000	na
74.813579	0.049614	84.000000	nontarget	8.000000	na
74.863193	0.050458	84.000000	nontarget	9.000000	na
74.913651	0.050156	84.000000	nontarget	10.000000	na
74.963807	0.049736	84.000000	nontarget	11.000000	na
75.013543	0.050332	84.000000	nontarget	12.000000	na
75.063875	0.050084	84.000000	nontarget	13.000000	na
75.113960	0.049796	84.000000	nontarget	14.000000	na
75.163756	0.049731	84.000000	nontarget	15.000000	na
75.213487	0.050075	84.000000	nontarget	16.000000	na
75.263562	0.049490	85.000000	nontarget	1.000000	na
75.313052	0.050835	85.000000	nontarget	2.000000	na
75.363887	0.049157	85.000000	nontarget	3.000000	na
75.413044	0.050557	85.000000	nontarget	4.000000	75.419678
75.463602	0.049543	85.000000	nontarget	5.000000	na
75.513145	0.050384	85.000000	nontarget	6.000000	na
75.563529	0.050148	85.000000	nontarget	7.000000	na
75.613677	0.049730	85.000000	nontarget	8.000000	na
75.663407	0.050377	85.000000	nontarget	9.000000	na
75.713784	0.049745	85.000000	nontarget	10.000000	na
75.763529	0.050120	85.000000	nontarget	11.000000	na
75.813648	0.050088	85.000000	nontarget	12.000000	na
75.863737	0.049928	85.000000	nontarget	13.000000	na
75.913664	0.049927	85.000000	nontarget	14.000000	na
75.963592	0.049421	85.000000	nontarget	15.000000	na
76.013012	0.050538	85.000000	nontarget	16.000000	na
76.063550	0.050043	86.000000	nontarget	1.000000	na
76.113593	0.049798	86.000000	nontarget	2.000000	na
76.163392	0.050153	86.000000	nontarget	3.000000	na
76.213545	0.049730	86.000000	nontarget	4.000000	76.237447
76.263275	0.050089	86.000000	nontarget	5.000000	na
76.313364	0.050378	86.000000	nontarget	6.000000	na
76.363742	0.049653	86.000000	nontarget	7.000000	na
76.413395	0.050166	86.000000	nontarget	8.000000	na
76.463560	0.049965	86.000000	nontarget	9.000000	na
76.513525	0.049207	86.000000	nontarget	10.000000	na
76.562732	0.050430	86.000000	nontarget	11.000000	na
76.613162	0.050294	86.000000	nontarget	12.000000	na
76.663457	0.050061	86.000000	nontarget	13.000000	na
76.713518	0.049926	86.000000	nontarget	14.000000	na
76.763443	0.049422	86.000000	nontarget	15.000000	na
76.812865	0.050582	86.000000	nontarget	16.000000	na
76.863447	0.050229	87.000000	nontarget	1.000000	na
76.913677	0.049327	87.000000	nontarget	2.000000	na
76.963004	0.050665	87.000000	nontarget	3.000000	na
77.013669	0.050123	87.000000	nontarget	4.000000	77.032619
77.063792	0.049579	87.000000	nontarget	5.000000	na
77.113371	0.050150	87.000000	nontarget	6.000000	na
77.163521	0.049995	87.000000	nontarget	7.000000	na
77.213516	0.050012	87.000000	nontarget	8.000000	na
77.263528	0.049939	87.000000	nontarget	9.000000	na
77.313467	0.049918	87.000000	nontarget	10.000000	na
77.363385	0.049712	87.000000	nontarget	11.000000	na
77.413097	0.050444	87.000000	nontarget	12.000000	na
77.463541	0.049224	87.000000	nontarget	13.000000	na
77.512765	0.050695	87.000000	nontarget	14.000000	na
77.563459	0.049651	87.000000	nontarget	15.000000	na
77.613110	0.050418	87.000000	nontarget	16.000000	na
77.663528	0.049922	88.000000	nontarget	1.000000	na
77.713449	0.050111	88.000000	nontarget	2.000000	na
77.763560	0.049551	88.000000	nontarget	3.000000	na
77.813111	0.050328	88.000000	nontarget	4.000000	77.837711
77.863439	0.050087	88.000000	nontarget	5.000000	na
77.913526	0.050198	88.000000	nontarget	6.000000	na
77.963724	0.048992	88.000000	nontarget	7.000000	na
78.012717	0.050544	88.000000	nontarget	8.000000	na
78.063260	0.049526	88.000000	nontarget	9.000000	na
78.112786	0.050606	88.000000	nontarget	10.000000	na
78.163392	0.049860	88.000000	nontarget	11.000000	na
78.213252	0.050260	88.000000	nontarget	12.000000	na
78.263512	0.050189	88.000000	nontarget	13.000000	na
78.313701	0.049579	88.000000	nontarget	14.000000	na
78.363280	0.049979	88.000000	nontarget	15.000000	na
78.413259	0.050145	88.000000	nontarget	16.000000	na
78.463404	0.050104	89.000000	nontarget	1.000000	na
78.513508	0.050031	89.000000	nontarget	2.000000	na
78.563539	0.049188	89.000000	nontarget	3.000000	na
78.612727	0.050621	89.000000	nontarget	4.000000	na
78.663348	0.049577	89.000000	nontarget	5.000000	na
78.712926	0.050199	89.000000	nontarget	6.000000	na
78.763125	0.049976	89.000000	nontarget	7.000000	78.794612
78.813100	0.050403	89.000000	nontarget	8.000000	na
78.863503	0.049904	89.000000	nontarget	9.000000	na
78.913407	0.049804	89.000000	nontarget	10.000000	na
78.963212	0.050234	89.000000	nontarget	11.000000	na
79.013445	0.049874	89.000000	nontarget	12.000000	na
79.063319	0.049433	89.000000	nontarget	13.000000	na
79.112752	0.050348	89.000000	nontarget	14.000000	na
79.163100	0.049872	89.000000	nontarget	15.000000	na
79.212972	0.049779	89.000000	nontarget	16.000000	na
79.262750	0.050569	90.000000	nontarget	1.000000	na
79.313320	0.049646	90.000000	nontarget	2.000000	na
79.362965	0.049981	90.000000	nontarget	3.000000	na
79.412946	0.050533	90.000000	nontarget	4.000000	na
79.463479	0.050020	90.000000	nontarget	5.000000	79.483651
79.513499	0.049378	90.000000	nontarget	6.000000	na
79.562877	0.049751	90.000000	nontarget	7.000000	na
79.612628	0.050368	90.000000	nontarget	8.000000	na
79.662996	0.050453	90.000000	nontarget	9.000000	na
79.713449	0.049999	90.000000	nontarget	10.000000	na
79.763448	0.049690	90.000000	nontarget	11.000000	na
79.813137	0.050150	90.000000	nontarget	12.000000	na
79.863287	0.050111	90.000000	nontarget	13.000000	na
79.913397	0.049261	90.000000	nontarget	14.000000	na
79.962658	0.050338	90.000000	nontarget	15.000000	na
80.012996	0.050275	90.000000	nontarget	16.000000	na
80.063271	0.049365	91.000000	target	1.000000	na
80.112637	0.050749	91.000000	target	2.000000	na
80.163386	0.050027	91.000000	target	3.000000	na
80.213413	0.049838	91.000000	target	4.000000	na
80.263251	0.049586	91.000000	target	5.000000	na
80.312838	0.049948	91.000000	target	6.000000	na
80.362786	0.050412	91.000000	target	7.000000	na
80.413198	0.049403	91.000000	target	8.000000	na
80.462601	0.050211	91.000000	target	9.000000	na
80.512812	0.050594	91.000000	target	10.000000	na
80.563406	0.050074	91.000000	target	11.000000	na
80.613480	0.049858	91.000000	target	12.000000	na
80.663338	0.049638	91.000000	target	13.000000	na
80.712976	0.049965	91.000000	target	14.000000	na
80.762941	0.050155	91.000000	target	15.000000	na
80.813096	0.049834	91.000000	target	16.000000	80.824478
80.862929	0.049738	92.000000	nontarget	1.000000	80.869549
80.912667	0.050745	92.000000	nontarget	2.000000	na
80.963412	0.049683	92.000000	nontarget	3.000000	na
81.013095	0.049898	92.000000	nontarget	4.000000	na
81.062993	0.050045	92.000000	nontarget	5.000000	na
81.113038	0.050201	92.000000	nontarget	6.000000	na
81.163239	0.049963	92.000000	nontarget	7.000000	na
81.213202	0.049397	92.000000	nontarget	8.000000	na
81.262599	0.050488	92.000000	nontarget	9.000000	na
81.313087	0.049770	92.000000	nontarget	10.000000	na
81.362857	0.050222	92.000000	nontarget	11.000000	na
81.413080	0.050085	92.000000	nontarget	12.000000	na
81.463165	0.049654	92.000000	nontarget	13.000000	na
81.512819	0.049696	92.000000	nontarget	14.000000	na
81.562515	0.050608	92.000000	nontarget	15.000000	81.585626
81.613122	0.050043	92.000000	nontarget	16.000000	na
81.663166	0.049285	93.000000	nontarget	1.000000	81.669739
81.712451	0.050494	93.000000	nontarget	2.000000	na
81.762946	0.050024	93.000000	nontarget	3.000000	na
81.812970	0.049469	93.000000	nontarget	4.000000	na
81.862439	0.050740	93.000000	nontarget	5.000000	na
81.913179	0.049951	93.000000	nontarget	6.000000	na
81.963130	0.049416	93.000000	nontarget	7.000000	na
82.012545	0.050584	93.000000	nontarget	8.000000	na
82.063130	0.049519	93.000000	nontarget	9.000000	na
82.112649	0.050516	93.000000	nontarget	10.000000	na
82.163165	0.049597	93.000000	nontarget	11.000000	na
82.212761	0.050366	93.000000	nontarget	12.000000	na
82.263127	0.049288	93.000000	nontarget	13.000000	na
82.312415	0.050229	93.000000	nontarget	14.000000	na
82.362644	0.050174	93.000000	nontarget	15.000000	na
82.412818	0.049577	93.000000	nontarget	16.000000	82.428401
82.462394	0.050017	94.000000	nontarget	1.000000	82.468995
82.512412	0.050838	94.000000	nontarget	2.000000	na
82.563250	0.049320	94.000000	nontarget	3.000000	na
82.612570	0.050557	94.000000	nontarget	4.000000	na
82.663127	0.048997	94.000000	nontarget	5.000000	na
82.712124	0.050987	94.000000	nontarget	6.000000	na
82.763111	0.049242	94.000000	nontarget	7.000000	na
82.812353	0.050701	94.000000	nontarget	8.000000	na
82.863054	0.050031	94.000000	nontarget	9.000000	na
82.913085	0.049968	94.000000	nontarget	10.000000	na
82.963054	0.049832	94.000000	nontarget	11.000000	na
83.012886	0.050419	94.000000	nontarget	12.000000	na
83.063304	0.049283	94.000000	nontarget	13.000000	na
83.112588	0.050655	94.000000	nontarget	14.000000	na
83.163243	0.049224	94.000000	nontarget	15.000000	na
83.212467	0.050612	94.000000	nontarget	16.000000	na
83.263079	0.049568	95.000000	target	1.000000	na
83.312646	0.050354	95.000000	target	2.000000	na
83.363001	0.050048	95.000000	target	3.000000	na
83.413049	0.049279	95.000000	target	4.000000	na
83.462328	0.050434	95.000000	target	5.000000	na
83.512762	0.049720	95.000000	target	6.000000	na
83.562482	0.050100	95.000000	target	7.000000	na
83.612582	0.050622	95.000000	target	8.000000	na
83.663204	0.049842	95.000000	target	9.000000	na
83.713046	0.049884	95.000000	target	10.000000	na
83.762930	0.049812	95.000000	target	11.000000	na
83.812742	0.050295	95.000000	target	12.000000	na
83.863037	0.050007	95.000000	target	13.000000	na
83.913045	0.049576	95.000000	target	14.000000	na
83.962621	0.050304	95.000000	target	15.000000	na
84.012925	0.050006	95.000000	target	16.000000	na
84.062931	0.050082	96.000000	nontarget	1.000000	na
84.113013	0.049995	96.000000	nontarget	2.000000	na
84.163008	0.050027	96.000000	nontarget	3.000000	na
84.213036	0.049852	96.000000	nontarget	4.000000	84.247090
84.262887	0.050251	96.000000	nontarget	5.000000	na
84.313138	0.049843	96.000000	nontarget	6.000000	na
84.362981	0.049524	96.000000	nontarget	7.000000	na
84.412505	0.050315	96.000000	nontarget	8.000000	na
84.462820	0.049847	96.000000	nontarget	9.000000	na
84.512667	0.050316	96.000000	nontarget	10.000000	na
84.562983	0.050020	96.000000	nontarget	11.000000	na
84.613003	0.049616	96.000000	nontarget	12.000000	na
84.662619	0.050297	96.000000	nontarget	13.000000	na
84.712916	0.050002	96.000000	nontarget	14.000000	na
84.762918	0.049997	96.000000	nontarget	15.000000	na
84.812915	0.049374	96.000000	nontarget	16.000000	na
84.862288	0.050608	97.000000	nontarget	1.000000	na
84.912897	0.049730	97.000000	nontarget	2.000000	84.918335
84.962627	0.050305	97.000000	nontarget	3.000000	na
85.012932	0.049558	97.000000	nontarget	4.000000	na
85.062490	0.049858	97.000000	nontarget	5.000000	na
85.112347	0.050520	97.000000	nontarget	6.000000	na
85.162867	0.049462	97.000000	nontarget	7.000000	na
85.212330	0.050185	97.000000	nontarget	8.000000	na
85.262515	0.050368	97.000000	nontarget	9.000000	na
85.312883	0.050042	97.000000	nontarget	10.000000	na
85.362925	0.050005	97.000000	nontarget	11.000000	na
85.412930	0.049987	97.000000	nontarget	12.000000	na
85.462917	0.049998	97.000000	nontarget	13.000000	na
85.512916	0.049817	97.000000	nontarget	14.000000	na
85.562733	0.050083	97.000000	nontarget	15.000000	na
85.612816	0.050312	97.000000	nontarget	16.000000	85.619356
85.663128	0.049074	98.000000	nontarget	1.000000	85.669708
85.712202	0.050846	98.000000	nontarget	2.000000	na
85.763048	0.049971	98.000000	nontarget	3.000000	na
85.813019	0.049881	98.000000	nontarget	4.000000	na
85.862900	0.049567	98.000000	nontarget	5.000000	na
85.912467	0.050093	98.000000	nontarget	6.000000	na
85.962560	0.050293	98.000000	nontarget	7.000000	na
86.012853	0.049000	98.000000	nontarget	8.000000	na
86.061853	0.051048	98.000000	nontarget	9.000000	na
86.112901	0.049999	98.000000	nontarget	10.000000	na
86.162900	0.049976	98.000000	nontarget	11.000000	na
86.212876	0.049986	98.000000	nontarget	12.000000	na
86.262862	0.049701	98.000000	nontarget	13.000000	na
86.312562	0.050335	98.000000	nontarget	14.000000	na
86.362897	0.050003	98.000000	nontarget	15.000000	na
86.412900	0.049961	98.000000	nontarget	16.000000	na
86.462862	0.049442	99.000000	nontarget	1.000000	na
86.512304	0.050597	99.000000	nontarget	2.000000	na
86.562901	0.049986	99.000000	nontarget	3.000000	86.595482
86.612886	0.049526	99.000000	nontarget	4.000000	na
86.662412	0.049966	99.000000	nontarget	5.000000	na
86.712378	0.050482	99.000000	nontarget	6.000000	na
86.762860	0.050022	99.000000	nontarget	7.000000	na
86.812882	0.049979	99.000000	nontarget	8.000000	na
86.862861	0.049995	99.000000	nontarget	9.000000	na
86.912856	0.049690	99.000000	nontarget	10.000000	na
86.962546	0.049493	99.000000	nontarget	11.000000	na
87.012039	0.050519	99.000000	nontarget	12.000000	na
87.062558	0.050294	99.000000	nontarget	13.000000	na
87.112852	0.049984	99.000000	nontarget	14.000000	na
87.162836	0.050005	99.000000	nontarget	15.000000	na
87.212840	0.050037	99.000000	nontarget	16.000000	na
87.262877	0.050009	100.000000	nontarget	1.000000	na
87.312886	0.049185	100.000000	nontarget	2.000000	87.340720
87.362071	0.050774	100.000000	nontarget	3.000000	na
87.412845	0.049647	100.000000	nontarget	4.000000	na
87.462492	0.050338	100.000000	nontarget	5.000000	na
87.512830	0.049110	100.000000	nontarget	6.000000	na
87.561940	0.050228	100.000000	nontarget	7.000000	na
87.612168	0.050646	100.000000	nontarget	8.000000	na
87.662814	0.049846	100.000000	nontarget	9.000000	na
87.712661	0.049732	100.000000	nontarget	10.000000	na
87.762393	0.050427	100.000000	nontarget	11.000000	na
87.812820	0.049884	100.000000	nontarget	12.000000	na
87.862704	0.049496	100.000000	nontarget	13.000000	na
87.912200	0.050464	100.000000	nontarget	14.000000	na
87.962664	0.049882	100.000000	nontarget	15.000000	na
88.012547	0.049653	100.000000	nontarget	16.000000	na
88.062200	0.050052	101.000000	nontarget	1.000000	88.068866
88.112252	0.050636	101.000000	nontarget	2.000000	na
88.162889	0.049077	101.000000	nontarget	3.000000	na
88.211965	0.050824	101.000000	nontarget	4.000000	na
88.262789	0.050005	101.000000	nontarget	5.000000	na
88.312795	0.049184	101.000000	nontarget	6.000000	na
88.361978	0.050769	101.000000	nontarget	7.000000	na
88.412748	0.049797	101.000000	nontarget	8.000000	na
88.462544	0.049559	101.000000	nontarget	9.000000	na
88.512103	0.050727	101.000000	nontarget	10.000000	na
88.562830	0.049550	101.000000	nontarget	11.000000	na
88.612380	0.050588	101.000000	nontarget	12.000000	na
88.662968	0.049908	101.000000	nontarget	13.000000	na
88.712876	0.049809	101.000000	nontarget	14.000000	na
88.762685	0.050104	101.000000	nontarget	15.000000	88.793433
88.812788	0.049990	101.000000	nontarget	16.000000	na
88.862778	0.049945	102.000000	nontarget	1.000000	88.868530
88.912723	0.050146	102.000000	nontarget	2.000000	na
88.962869	0.049968	102.000000	nontarget	3.000000	na
89.012837	0.049932	102.000000	nontarget	4.000000	na
89.062768	0.049905	102.000000	nontarget	5.000000	na
89.112674	0.050386	102.000000	nontarget	6.000000	na
89.163059	0.049823	102.000000	nontarget	7.000000	na
89.212882	0.049776	102.000000	nontarget	8.000000	na
89.262658	0.049808	102.000000	nontarget	9.000000	na
89.312466	0.050353	102.000000	nontarget	10.000000	na
89.362819	0.049092	102.000000	nontarget	11.000000	na
89.411911	0.050796	102.000000	nontarget	12.000000	na
89.462707	0.049323	102.000000	nontarget	13.000000	na
89.512030	0.050386	102.000000	nontarget	14.000000	89.538530
89.562416	0.050514	102.000000	nontarget	15.000000	na
89.612930	0.049844	102.000000	nontarget	16.000000	na
89.662774	0.049831	103.000000	nontarget	1.000000	89.669236
89.712606	0.049884	103.000000	nontarget	2.000000	na
89.762490	0.050347	103.000000	nontarget	3.000000	na
89.812837	0.049840	103.000000	nontarget	4.000000	na
89.862677	0.050245	103.000000	nontarget	5.000000	na
89.912922	0.049539	103.000000	nontarget	6.000000	na
89.962462	0.050214	103.000000	nontarget	7.000000	na
90.012676	0.050149	103.000000	nontarget	8.000000	na
90.062824	0.049400	103.000000	nontarget	9.000000	na
90.112225	0.050412	103.000000	nontarget	10.000000	na
90.162637	0.049869	103.000000	nontarget	11.000000	na
90.212506	0.049891	103.000000	nontarget	12.000000	na
90.262397	0.049884	103.000000	nontarget	13.000000	na
90.312281	0.050338	103.000000	nontarget	14.000000	90.335169
90.362619	0.049468	103.000000	nontarget	15.000000	na
90.412087	0.050265	103.000000	nontarget	16.000000	na
90.462352	0.049618	104.000000	nontarget	1.000000	na
90.511971	0.050686	104.000000	nontarget	2.000000	na
90.562657	0.049743	104.000000	nontarget	3.000000	na
90.612400	0.050483	104.000000	nontarget	4.000000	na
90.662883	0.049434	104.000000	nontarget	5.000000	na
90.712318	0.050508	104.000000	nontarget	6.000000	na
90.762825	0.050106	104.000000	nontarget	7.000000	na
90.812931	0.049870	104.000000	nontarget	8.000000	na
90.862801	0.049272	104.000000	nontarget	9.000000	na
90.912073	0.050595	104.000000	nontarget	10.000000	na
90.962668	0.049992	104.000000	nontarget	11.000000	na
91.012660	0.049944	104.000000	nontarget	12.000000	na
91.062605	0.050320	104.000000	nontarget	13.000000	na
91.112925	0.049691	104.000000	nontarget	14.000000	na
91.162616	0.049660	104.000000	nontarget	15.000000	91.169180
91.212275	0.050305	104.000000	nontarget	16.000000	na
91.262581	0.049447	105.000000	nontarget	1.000000	91.269125
91.312028	0.050431	105.000000	nontarget	2.000000	na
91.362459	0.050248	105.000000	nontarget	3.000000	na
91.412707	0.050085	105.000000	nontarget	4.000000	na
91.462792	0.049981	105.000000	nontarget	5.000000	na
91.512773	0.049821	105.000000	nontarget	6.000000	na
91.562594	0.050013	105.000000	nontarget	7.000000	na
91.612608	0.049789	105.000000	nontarget	8.000000	na
91.662396	0.049275	105.000000	nontarget	9.000000	na
91.711671	0.051018	105.000000	nontarget	10.000000	na
91.762689	0.050230	105.000000	nontarget	11.000000	na
91.812919	0.049820	105.000000	nontarget	12.000000	na
91.862739	0.049832	105.000000	nontarget	13.000000	na
91.912571	0.050178	105.000000	nontarget	14.000000	na
91.962749	0.048970	105.000000	nontarget	15.000000	na
92.011718	0.050657	105.000000	nontarget	16.000000	92.018575
92.062375	0.050050	106.000000	nontarget	1.000000	92.068923
92.112425	0.050359	106.000000	nontarget	2.000000	na
92.162785	0.049580	106.000000	nontarget	3.000000	na
92.212365	0.050373	106.000000	nontarget	4.000000	na
92.262738	0.049753	106.000000	nontarget	5.000000	na
92.312492	0.050231	106.000000	nontarget	6.000000	na
92.362722	0.049808	106.000000	nontarget	7.000000	na
92.412530	0.049485	106.000000	nontarget	8.000000	na
92.462015	0.050494	106.000000	nontarget	9.000000	na
92.512509	0.050297	106.000000	nontarget	10.000000	na
92.562806	0.049038	106.000000	nontarget	11.000000	na
92.611843	0.050563	106.000000	nontarget	12.000000	na
92.662406	0.050019	106.000000	nontarget	13.000000	na
92.712426	0.050088	106.000000	nontarget	14.000000	na
92.762513	0.049105	106.000000	nontarget	15.000000	na
92.811618	0.050883	106.000000	nontarget	16.000000	92.817247
92.862500	0.050014	107.000000	nontarget	1.000000	92.869077
92.912514	0.049846	107.000000	nontarget	2.000000	na
92.962360	0.050211	107.000000	nontarget	3.000000	na
93.012570	0.049796	107.000000	nontarget	4.000000	na
93.062366	0.049865	107.000000	nontarget	5.000000	na
93.112231	0.050121	107.000000	nontarget	6.000000	na
93.162352	0.049536	107.000000	nontarget	7.000000	na
93.211887	0.050585	107.000000	nontarget	8.000000	na
93.262472	0.049983	107.000000	nontarget	9.000000	na
93.312455	0.049831	107.000000	nontarget	10.000000	na
93.362286	0.050085	107.000000	nontarget	11.000000	na
93.412370	0.050007	107.000000	nontarget	12.000000	na
93.462377	0.050058	107.000000	nontarget	13.000000	na
93.512435	0.049973	107.000000	nontarget	14.000000	na
93.562407	0.049794	107.000000	nontarget	15.000000	na
93.612201	0.049815	107.000000	nontarget	16.000000	93.618627
93.662017	0.050177	108.000000	nontarget	1.000000	93.668640
93.712194	0.050048	108.000000	nontarget	2.000000	na
93.762242	0.049617	108.000000	nontarget	3.000000	na
93.811859	0.050697	108.000000	nontarget	4.000000	na
93.862556	0.049694	108.000000	nontarget	5.000000	na
93.912250	0.049680	108.000000	nontarget	6.000000	na
93.961929	0.050497	108.000000	nontarget	7.000000	na
94.012427	0.049749	108.000000	nontarget	8.000000	na
94.062176	0.050118	108.000000	nontarget	9.000000	na
94.112294	0.050221	108.000000	nontarget	10.000000	na
94.162514	0.050036	108.000000	nontarget	11.000000	na
94.212551	0.049843	108.000000	nontarget	12.000000	na
94.262394	0.049519	108.000000	nontarget	13.000000	na
94.311913	0.050307	108.000000	nontarget	14.000000	na
94.362221	0.049324	108.000000	nontarget	15.000000	na
94.411545	0.050854	108.000000	nontarget	16.000000	94.418011
94.462398	0.049955	109.000000	nontarget	1.000000	94.468946
94.512353	0.049784	109.000000	nontarget	2.000000	na
94.562137	0.050100	109.000000	nontarget	3.000000	na
94.612237	0.049571	109.000000	nontarget	4.000000	na
94.661808	0.050647	109.000000	nontarget	5.000000	na
94.712455	0.049935	109.000000	nontarget	6.000000	na
94.762390	0.049970	109.000000	nontarget	7.000000	na
94.812360	0.050041	109.000000	nontarget	8.000000	na
94.862401	0.049562	109.000000	nontarget	9.000000	na
94.911963	0.050509	109.000000	nontarget	10.000000	na
94.962472	0.049057	109.000000	nontarget	11.000000	na
95.011529	0.037240	109.000000	nontarget	12.000000	na
95.048769	0.046596	109.000000	nontarget	13.000000	na
95.095365	0.050316	109.000000	nontarget	14.000000	na
95.145681	0.049997	109.000000	nontarget	15.000000	na
95.195678	0.049436	109.000000	nontarget	16.000000	na
95.245114	0.050461	110.000000	target	1.000000	na
95.295575	0.049957	110.000000	target	2.000000	na
95.345532	0.049672	110.000000	target	3.000000	na
95.395204	0.049605	110.000000	target	4.000000	na
95.444810	0.050827	110.000000	target	5.000000	na
95.495637	0.049890	110.000000	target	6.000000	na
95.545527	0.050141	110.000000	target	7.000000	na
95.595669	0.049986	110.000000	target	8.000000	na
95.645655	0.050002	110.000000	target	9.000000	na
95.695657	0.050181	110.000000	target	10.000000	na
95.745838	0.049909	110.000000	target	11.000000	na
95.795747	0.049766	110.000000	target	12.000000	na
95.845513	0.050293	110.000000	target	13.000000	na
95.895806	0.049571	110.000000	target	14.000000	na
95.945378	0.049682	110.000000	target	15.000000	na
95.995059	0.050033	110.000000	target	16.000000	na
96.045092	0.050506	111.000000	nontarget	1.000000	96.051730
96.095598	0.050023	111.000000	nontarget	2.000000	na
96.145621	0.050052	111.000000	nontarget	3.000000	na
96.195673	0.049173	111.000000	nontarget	4.000000	na
96.244846	0.049811	111.000000	nontarget	5.000000	na
96.294656	0.050962	111.000000	nontarget	6.000000	na
96.345618	0.049896	111.000000	nontarget	7.000000	na
96.395514	0.049704	111.000000	nontarget	8.000000	na
96.445218	0.050368	111.000000	nontarget	9.000000	na
96.495585	0.049959	111.000000	nontarget	10.000000	na
96.545544	0.050003	111.000000	nontarget	11.000000	na
96.595547	0.050031	111.000000	nontarget	12.000000	na
96.645577	0.050015	111.000000	nontarget	13.000000	na
96.695592	0.049417	111.000000	nontarget	14.000000	na
96.745009	0.050035	111.000000	nontarget	15.000000	na
96.795044	0.050651	111.000000	nontarget	16.000000	na
96.845695	0.049780	112.000000	nontarget	1.000000	96.877252
96.895475	0.050096	112.000000	nontarget	2.000000	na
96.945571	0.049630	112.000000	nontarget	3.000000	na
96.995201	0.050257	112.000000	nontarget	4.000000	na
97.045458	0.049784	112.000000	nontarget	5.000000	na
97.095242	0.049985	112.000000	nontarget	6.000000	na
97.145226	0.050129	112.000000	nontarget	7.000000	na
97.195355	0.050299	112.000000	nontarget	8.000000	na
97.245654	0.049959	112.000000	nontarget	9.000000	na
97.295614	0.049917	112.000000	nontarget	10.000000	na
97.345531	0.050133	112.000000	nontarget	11.000000	na
97.395663	0.049629	112.000000	nontarget	12.000000	na
97.445293	0.050416	112.000000	nontarget	13.000000	na
97.495709	0.049290	112.000000	nontarget	14.000000	na
97.544999	0.050445	112.000000	nontarget	15.000000	na
97.595444	0.049154	112.000000	nontarget	16.000000	na
97.644598	0.050176	113.000000	nontarget	1.000000	na
97.694774	0.050705	113.000000	nontarget	2.000000	na
97.745479	0.050187	113.000000	nontarget	3.000000	97.752511
97.795667	0.049848	113.000000	nontarget	4.000000	na
97.845515	0.049962	113.000000	nontarget	5.000000	na
97.895478	0.049425	113.000000	nontarget	6.000000	na
97.944903	0.050194	113.000000	nontarget	7.000000	na
97.995097	0.049858	113.000000	nontarget	8.000000	na
98.044955	0.050122	113.000000	nontarget	9.000000	na
98.095077	0.050499	113.000000	nontarget	10.000000	na
98.145576	0.049914	113.000000	nontarget	11.000000	na
98.195490	0.049917	113.000000	nontarget	12.000000	na
98.245407	0.049356	113.000000	nontarget	13.000000	na
98.294763	0.050719	113.000000	nontarget	14.000000	na
98.345483	0.049249	113.000000	nontarget	15.000000	na
98.394732	0.050353	113.000000	nontarget	16.000000	na
98.445085	0.050474	114.000000	nontarget	1.000000	na
98.495559	0.049919	114.000000	nontarget	2.000000	na
98.545478	0.050133	114.000000	nontarget	3.000000	na
98.595610	0.049925	114.000000	nontarget	4.000000	na
98.645535	0.050224	114.000000	nontarget	5.000000	98.661129
98.695759	0.048900	114.000000	nontarget	6.000000	na
98.744658	0.050750	114.000000	nontarget	7.000000	na
98.795408	0.049609	114.000000	nontarget	8.000000	na
98.845017	0.050397	114.000000	nontarget	9.000000	na
98.895414	0.050221	114.000000	nontarget	10.000000	na
98.945635	0.049195	114.000000	nontarget	11.000000	na
98.994830	0.050837	114.000000	nontarget	12.000000	na
99.045667	0.050108	114.000000	nontarget	13.000000	na
99.095775	0.049042	114.000000	nontarget	14.000000	na
99.144817	0.050608	114.000000	nontarget	15.000000	na
99.195425	0.049715	114.000000	nontarget	16.000000	na
99.245140	0.050103	115.000000	nontarget	1.000000	na
99.295244	0.049664	115.000000	nontarget	2.000000	na
99.344907	0.049847	115.000000	nontarget	3.000000	na
99.394754	0.050791	115.000000	nontarget	4.000000	na
99.445545	0.049534	115.000000	nontarget	5.000000	na
99.495079	0.050683	115.000000	nontarget	6.000000	99.514876
99.545763	0.049272	115.000000	nontarget	7.000000	na
99.595034	0.050197	115.000000	nontarget	8.000000	na
99.645231	0.050035	115.000000	nontarget	9.000000	na
99.695266	0.050077	115.000000	nontarget	10.000000	na
99.745344	0.049953	115.000000	nontarget	11.000000	na
99.795297	0.049315	115.000000	nontarget	12.000000	na
99.844612	0.050708	115.000000	nontarget	13.000000	na
99.895320	0.050430	115.000000	nontarget	14.000000	na
99.945750	0.049448	115.000000	nontarget	15.000000	na
99.995198	0.050066	115.000000	nontarget	16.000000	na
100.045264	0.050343	116.000000	nontarget	1.000000	na
100.095607	0.049796	116.000000	nontarget	2.000000	na
100.145403	0.049822	116.000000	nontarget	3.000000	100.168643
100.195226	0.050227	116.000000	nontarget	4.000000	na
100.245453	0.050247	116.000000	nontarget	5.000000	na
100.295700	0.049619	116.000000	nontarget	6.000000	na
100.345319	0.049674	116.000000	nontarget	7.000000	na
100.394993	0.050099	116.000000	nontarget	8.000000	na
100.445091	0.049850	116.000000	nontarget	9.000000	na
100.494942	0.050471	116.000000	nontarget	10.000000	na
100.545413	0.050189	116.000000	nontarget	11.000000	na
100.595601	0.049589	116.000000	nontarget	12.000000	na
100.645191	0.050065	116.000000	nontarget	13.000000	na
100.695256	0.049675	116.000000	nontarget	14.000000	na
100.744931	0.050120	116.000000	nontarget	15.000000	100.780664
100.795051	0.050035	116.000000	nontarget	16.000000	na
100.845086	0.049768	117.000000	nontarget	1.000000	100.851640
100.894854	0.050829	117.000000	nontarget	2.000000	na
100.945683	0.049371	117.000000	nontarget	3.000000	na
100.995053	0.050266	117.000000	nontarget	4.000000	na
101.045319	0.050049	117.000000	nontarget	5.000000	na
101.095368	0.049916	117.000000	nontarget	6.000000	na
101.145284	0.050167	117.000000	nontarget	7.000000	na
101.195452	0.049779	117.000000	nontarget	8.000000	na
101.245231	0.049859	117.000000	nontarget	9.000000	na
101.295090	0.049653	117.000000	nontarget	10.000000	na
101.344743	0.050692	117.000000	nontarget	11.000000	na
101.395435	0.049605	117.000000	nontarget	12.000000	na
101.445040	0.050410	117.000000	nontarget	13.000000	na
101.495450	0.049500	117.000000	nontarget	14.000000	na
101.544951	0.050244	117.000000	nontarget	15.000000	na
101.595194	0.050027	117.000000	nontarget	16.000000	na
101.645221	0.049218	118.000000	nontarget	1.000000	na
101.694440	0.050295	118.000000	nontarget	2.000000	101.700948
101.744735	0.050229	118.000000	nontarget	3.000000	na
101.794964	0.050230	118.000000	nontarget	4.000000	na
101.845194	0.050261	118.000000	nontarget	5.000000	na
101.895455	0.049355	118.000000	nontarget	6.000000	na
101.944809	0.050267	118.000000	nontarget	7.000000	na
101.995076	0.050535	118.000000	nontarget	8.000000	na
102.045611	0.049978	118.000000	nontarget	9.000000	na
102.095589	0.049889	118.000000	nontarget	10.000000	na
102.145479	0.049761	118.000000	nontarget	11.000000	na
102.195239	0.050006	118.000000	nontarget	12.000000	na
102.245246	0.049507	118.000000	nontarget	13.000000	na
102.294753	0.050677	118.000000	nontarget	14.000000	na
102.345429	0.049772	118.000000	nontarget	15.000000	na
102.395201	0.049969	118.000000	nontarget	16.000000	na
102.445170	0.050173	119.000000	nontarget	1.000000	102.451719
102.495343	0.050254	119.000000	nontarget	2.000000	na
102.545597	0.049883	119.000000	nontarget	3.000000	na
102.595480	0.049466	119.000000	nontarget	4.000000	na
102.644946	0.049846	119.000000	nontarget	5.000000	na
102.694791	0.050582	119.000000	nontarget	6.000000	na
102.745374	0.050143	119.000000	nontarget	7.000000	na
102.795517	0.049612	119.000000	nontarget	8.000000	na
102.845129	0.050312	119.000000	nontarget	9.000000	na
102.895441	0.049783	119.000000	nontarget	10.000000	na
102.945224	0.049839	119.000000	nontarget	11.000000	na
102.995063	0.049586	119.000000	nontarget	12.000000	na
103.044650	0.050791	119.000000	nontarget	13.000000	na
103.095440	0.049704	119.000000	nontarget	14.000000	na
103.145145	0.050277	119.000000	nontarget	15.000000	na
103.195422	0.049668	119.000000	nontarget	16.000000	103.231514
103.245091	0.050047	120.000000	nontarget	1.000000	103.251669
103.295138	0.049774	120.000000	nontarget	2.000000	na
103.344912	0.050045	120.000000	nontarget	3.000000	na
103.394957	0.049967	120.000000	nontarget	4.000000	na
103.444924	0.050509	120.000000	nontarget	5.000000	na
103.495433	0.049344	120.000000	nontarget	6.000000	na
103.544777	0.050685	120.000000	nontarget	7.000000	na
103.595462	0.049672	120.000000	nontarget	8.000000	na
103.645134	0.049714	120.000000	nontarget	9.000000	na
103.694848	0.050116	120.000000	nontarget	10.000000	na
103.744965	0.049982	120.000000	nontarget	11.000000	na
103.794947	0.050154	120.000000	nontarget	12.000000	na
103.845101	0.050099	120.000000	nontarget	13.000000	na
103.895200	0.049914	120.000000	nontarget	14.000000	na
103.945114	0.049633	120.000000	nontarget	15.000000	na
103.994747	0.049706	120.000000	nontarget	16.000000	104.026167
104.044453	0.050633	121.000000	nontarget	1.000000	104.051327
104.095086	0.049930	121.000000	nontarget	2.000000	na
104.145015	0.049620	121.000000	nontarget	3.000000	na
104.194635	0.050445	121.000000	nontarget	4.000000	na
104.245080	0.050083	121.000000	nontarget	5.000000	na
104.295163	0.049665	121.000000	nontarget	6.000000	na
104.344828	0.050221	121.000000	nontarget	7.000000	na
104.395050	0.049934	121.000000	nontarget	8.000000	na
104.444983	0.050165	121.000000	nontarget	9.000000	na
104.495148	0.049901	121.000000	nontarget	10.000000	na
104.545049	0.050009	121.000000	nontarget	11.000000	na
104.595059	0.049334	121.000000	nontarget	12.000000	na
