onset	duration	trial_number	trial_type	frame_number	time_of_response
8.066648	0.050165	1.000000	nontarget	1.000000	na
8.116813	0.049380	1.000000	nontarget	2.000000	na
8.166193	0.050770	1.000000	nontarget	3.000000	na
8.216963	0.049785	1.000000	nontarget	4.000000	na
8.266749	0.049737	1.000000	nontarget	5.000000	na
8.316486	0.050370	1.000000	nontarget	6.000000	na
8.366856	0.049573	1.000000	nontarget	7.000000	na
8.416429	0.050081	1.000000	nontarget	8.000000	na
8.466510	0.050048	1.000000	nontarget	9.000000	na
8.516559	0.049501	1.000000	nontarget	10.000000	na
8.566059	0.050497	1.000000	nontarget	11.000000	na
8.616557	0.049962	1.000000	nontarget	12.000000	na
8.666519	0.050050	1.000000	nontarget	13.000000	na
8.716569	0.049619	1.000000	nontarget	14.000000	na
8.766188	0.050685	1.000000	nontarget	15.000000	na
8.816873	0.049991	1.000000	nontarget	16.000000	8.840221
8.866864	0.049994	2.000000	nontarget	1.000000	8.873747
8.916858	0.049814	2.000000	nontarget	2.000000	na
8.966672	0.049983	2.000000	nontarget	3.000000	na
9.016655	0.049531	2.000000	nontarget	4.000000	na
9.066186	0.050298	2.000000	nontarget	5.000000	na
9.116484	0.049884	2.000000	nontarget	6.000000	na
9.166368	0.050281	2.000000	nontarget	7.000000	na
9.216649	0.050279	2.000000	nontarget	8.000000	na
9.266928	0.049932	2.000000	nontarget	9.000000	na
9.316859	0.049629	2.000000	nontarget	10.000000	na
9.366488	0.050071	2.000000	nontarget	11.000000	na
9.416559	0.049918	2.000000	nontarget	12.000000	na
9.466476	0.050125	2.000000	nontarget	13.000000	na
9.516601	0.050928	2.000000	nontarget	14.000000	na
9.567529	0.049050	2.000000	nontarget	15.000000	9.573055
9.616578	0.050360	2.000000	nontarget	16.000000	na
9.666938	0.049120	3.000000	nontarget	1.000000	9.673360
9.716059	0.050049	3.000000	nontarget	2.000000	na
9.766108	0.049950	3.000000	nontarget	3.000000	na
9.816058	0.050549	3.000000	nontarget	4.000000	na
9.866607	0.050057	3.000000	nontarget	5.000000	na
9.916664	0.049880	3.000000	nontarget	6.000000	na
9.966544	0.050415	3.000000	nontarget	7.000000	na
10.016959	0.049644	3.000000	nontarget	8.000000	na
10.066603	0.049828	3.000000	nontarget	9.000000	na
10.116430	0.050109	3.000000	nontarget	10.000000	na
10.166540	0.050024	3.000000	nontarget	11.000000	na
10.216564	0.049675	3.000000	nontarget	12.000000	10.248940
10.266239	0.050156	3.000000	nontarget	13.000000	na
10.316395	0.049805	3.000000	nontarget	14.000000	na
10.366201	0.050706	3.000000	nontarget	15.000000	na
10.416907	0.049646	3.000000	nontarget	16.000000	na
10.466553	0.050365	4.000000	nontarget	1.000000	na
10.516918	0.049623	4.000000	nontarget	2.000000	na
10.566541	0.049976	4.000000	nontarget	3.000000	na
10.616517	0.050109	4.000000	nontarget	4.000000	na
10.666626	0.050267	4.000000	nontarget	5.000000	na
10.716893	0.049300	4.000000	nontarget	6.000000	na
10.766192	0.050289	4.000000	nontarget	7.000000	na
10.816481	0.050094	4.000000	nontarget	8.000000	na
10.866575	0.049915	4.000000	nontarget	9.000000	na
10.916490	0.049569	4.000000	nontarget	10.000000	na
10.966060	0.050140	4.000000	nontarget	11.000000	na
11.016200	0.052787	4.000000	nontarget	12.000000	na
11.068987	0.047080	4.000000	nontarget	13.000000	11.075397
11.116067	0.050512	4.000000	nontarget	14.000000	na
11.166579	0.050033	4.000000	nontarget	15.000000	na
11.216612	0.050004	4.000000	nontarget	16.000000	na
11.266615	0.049450	5.000000	nontarget	1.000000	na
11.316065	0.050456	5.000000	nontarget	2.000000	na
11.366521	0.049580	5.000000	nontarget	3.000000	na
11.416100	0.050380	5.000000	nontarget	4.000000	na
11.466480	0.050046	5.000000	nontarget	5.000000	na
11.516526	0.049993	5.000000	nontarget	6.000000	na
11.566519	0.049665	5.000000	nontarget	7.000000	na
11.616184	0.050124	5.000000	nontarget	8.000000	na
11.666308	0.050713	5.000000	nontarget	9.000000	na
11.717020	0.049164	5.000000	nontarget	10.000000	na
11.766185	0.050536	5.000000	nontarget	11.000000	na
11.816720	0.050166	5.000000	nontarget	12.000000	11.843546
11.866887	0.049172	5.000000	nontarget	13.000000	na
11.916059	0.050153	5.000000	nontarget	14.000000	na
11.966212	0.050472	5.000000	nontarget	15.000000	na
12.016684	0.050038	5.000000	nontarget	16.000000	na
12.066723	0.050204	6.000000	nontarget	1.000000	na
12.116927	0.048877	6.000000	nontarget	2.000000	na
12.165804	0.050771	6.000000	nontarget	3.000000	na
12.216575	0.050152	6.000000	nontarget	4.000000	na
12.266727	0.049778	6.000000	nontarget	5.000000	na
12.316505	0.050396	6.000000	nontarget	6.000000	na
12.366901	0.049933	6.000000	nontarget	7.000000	na
12.416834	0.049326	6.000000	nontarget	8.000000	na
12.466160	0.049911	6.000000	nontarget	9.000000	na
12.516072	0.050414	6.000000	nontarget	10.000000	na
12.566486	0.049573	6.000000	nontarget	11.000000	na
12.616059	0.050451	6.000000	nontarget	12.000000	na
12.666510	0.050001	6.000000	nontarget	13.000000	12.690762
12.716511	0.049845	6.000000	nontarget	14.000000	na
12.766356	0.050130	6.000000	nontarget	15.000000	na
12.816486	0.049995	6.000000	nontarget	16.000000	na
12.866482	0.050057	7.000000	nontarget	1.000000	na
12.916539	0.049663	7.000000	nontarget	2.000000	na
12.966202	0.050616	7.000000	nontarget	3.000000	na
13.016819	0.050062	7.000000	nontarget	4.000000	na
13.066881	0.049782	7.000000	nontarget	5.000000	na
13.116663	0.049727	7.000000	nontarget	6.000000	na
13.166390	0.049673	7.000000	nontarget	7.000000	na
13.216063	0.050633	7.000000	nontarget	8.000000	na
13.266696	0.050164	7.000000	nontarget	9.000000	na
13.316860	0.049635	7.000000	nontarget	10.000000	na
13.366495	0.049570	7.000000	nontarget	11.000000	na
13.416065	0.050404	7.000000	nontarget	12.000000	13.439665
13.466469	0.050366	7.000000	nontarget	13.000000	na
13.516835	0.049720	7.000000	nontarget	14.000000	na
13.566555	0.049957	7.000000	nontarget	15.000000	na
13.616512	0.049979	7.000000	nontarget	16.000000	na
13.666491	0.050153	8.000000	nontarget	1.000000	na
13.716644	0.049416	8.000000	nontarget	2.000000	na
13.766061	0.050791	8.000000	nontarget	3.000000	na
13.816852	0.049203	8.000000	nontarget	4.000000	na
13.866055	0.050815	8.000000	nontarget	5.000000	na
13.916870	0.049329	8.000000	nontarget	6.000000	na
13.966199	0.050287	8.000000	nontarget	7.000000	na
14.016486	0.050401	8.000000	nontarget	8.000000	na
14.066886	0.049824	8.000000	nontarget	9.000000	na
14.116711	0.049547	8.000000	nontarget	10.000000	na
14.166258	0.050497	8.000000	nontarget	11.000000	na
14.216755	0.049729	8.000000	nontarget	12.000000	na
14.266484	0.049524	8.000000	nontarget	13.000000	na
14.316008	0.050263	8.000000	nontarget	14.000000	14.331578
14.366271	0.049735	8.000000	nontarget	15.000000	na
14.416007	0.050520	8.000000	nontarget	16.000000	na
14.466526	0.049950	9.000000	nontarget	1.000000	14.473175
14.516476	0.050128	9.000000	nontarget	2.000000	na
14.566604	0.049861	9.000000	nontarget	3.000000	na
14.616466	0.049909	9.000000	nontarget	4.000000	na
14.666374	0.050248	9.000000	nontarget	5.000000	na
14.716623	0.049592	9.000000	nontarget	6.000000	na
14.766214	0.049429	9.000000	nontarget	7.000000	na
14.815643	0.050417	9.000000	nontarget	8.000000	na
14.866060	0.050650	9.000000	nontarget	9.000000	na
14.916710	0.049485	9.000000	nontarget	10.000000	na
14.966195	0.050291	9.000000	nontarget	11.000000	na
15.016487	0.050248	9.000000	nontarget	12.000000	na
15.066735	0.049846	9.000000	nontarget	13.000000	na
15.116581	0.049837	9.000000	nontarget	14.000000	15.135800
15.166418	0.050075	9.000000	nontarget	15.000000	na
15.216493	0.049895	9.000000	nontarget	16.000000	na
15.266388	0.049824	10.000000	nontarget	1.000000	15.272930
15.316212	0.049853	10.000000	nontarget	2.000000	na
15.366066	0.050414	10.000000	nontarget	3.000000	na
15.416480	0.049955	10.000000	nontarget	4.000000	na
15.466434	0.050503	10.000000	nontarget	5.000000	na
15.516937	0.049947	10.000000	nontarget	6.000000	na
15.566884	0.049714	10.000000	nontarget	7.000000	na
15.616598	0.049614	10.000000	nontarget	8.000000	na
15.666212	0.050234	10.000000	nontarget	9.000000	na
15.716446	0.049616	10.000000	nontarget	10.000000	na
15.766062	0.050582	10.000000	nontarget	11.000000	na
15.816644	0.050017	10.000000	nontarget	12.000000	na
15.866661	0.049542	10.000000	nontarget	13.000000	na
15.916203	0.049993	10.000000	nontarget	14.000000	na
15.966196	0.050486	10.000000	nontarget	15.000000	na
16.016682	0.049292	10.000000	nontarget	16.000000	16.023296
16.065974	0.050499	11.000000	nontarget	1.000000	16.072543
16.116472	0.049708	11.000000	nontarget	2.000000	na
16.166180	0.050186	11.000000	nontarget	3.000000	na
16.216367	0.050010	11.000000	nontarget	4.000000	na
16.266376	0.049849	11.000000	nontarget	5.000000	na
16.316225	0.050133	11.000000	nontarget	6.000000	na
16.366358	0.049863	11.000000	nontarget	7.000000	na
16.416220	0.050293	11.000000	nontarget	8.000000	na
16.466513	0.049922	11.000000	nontarget	9.000000	na
16.516435	0.049988	11.000000	nontarget	10.000000	na
16.566423	0.050150	11.000000	nontarget	11.000000	na
16.616573	0.049999	11.000000	nontarget	12.000000	na
16.666572	0.049755	11.000000	nontarget	13.000000	na
16.716326	0.050093	11.000000	nontarget	14.000000	na
16.766420	0.050132	11.000000	nontarget	15.000000	16.773173
16.816552	0.049932	11.000000	nontarget	16.000000	na
16.866484	0.049977	12.000000	nontarget	1.000000	16.873064
16.916461	0.049780	12.000000	nontarget	2.000000	na
16.966241	0.049812	12.000000	nontarget	3.000000	na
17.016053	0.050187	12.000000	nontarget	4.000000	na
17.066240	0.050185	12.000000	nontarget	5.000000	na
17.116426	0.049636	12.000000	nontarget	6.000000	na
17.166062	0.050605	12.000000	nontarget	7.000000	na
17.216667	0.049271	12.000000	nontarget	8.000000	na
17.265938	0.050481	12.000000	nontarget	9.000000	na
17.316419	0.050041	12.000000	nontarget	10.000000	na
17.366460	0.049963	12.000000	nontarget	11.000000	na
17.416424	0.050168	12.000000	nontarget	12.000000	na
17.466592	0.049941	12.000000	nontarget	13.000000	na
17.516533	0.049810	12.000000	nontarget	14.000000	na
17.566344	0.049433	12.000000	nontarget	15.000000	na
17.615777	0.050630	12.000000	nontarget	16.000000	na
17.666407	0.049942	13.000000	target	1.000000	na
17.716349	0.050237	13.000000	target	2.000000	na
17.766586	0.049904	13.000000	target	3.000000	na
17.816490	0.050110	13.000000	target	4.000000	na
17.866599	0.049811	13.000000	target	5.000000	na
17.916410	0.050249	13.000000	target	6.000000	na
17.966659	0.050032	13.000000	target	7.000000	na
18.016691	0.049787	13.000000	target	8.000000	na
18.066478	0.049969	13.000000	target	9.000000	na
18.116447	0.049651	13.000000	target	10.000000	na
18.166098	0.050407	13.000000	target	11.000000	na
18.216505	0.049952	13.000000	target	12.000000	18.247307
18.266456	0.049650	13.000000	target	13.000000	na
18.316107	0.050510	13.000000	target	14.000000	na
18.366617	0.049622	13.000000	target	15.000000	na
18.416239	0.050123	13.000000	target	16.000000	na
18.466362	0.050022	14.000000	nontarget	1.000000	na
18.516384	0.049989	14.000000	nontarget	2.000000	na
18.566373	0.050142	14.000000	nontarget	3.000000	na
18.616515	0.049913	14.000000	nontarget	4.000000	na
18.666428	0.049812	14.000000	nontarget	5.000000	na
18.716240	0.050387	14.000000	nontarget	6.000000	na
18.766627	0.049726	14.000000	nontarget	7.000000	na
18.816353	0.050147	14.000000	nontarget	8.000000	na
18.866500	0.049830	14.000000	nontarget	9.000000	na
18.916330	0.050035	14.000000	nontarget	10.000000	na
18.966365	0.049636	14.000000	nontarget	11.000000	na
19.016001	0.050658	14.000000	nontarget	12.000000	na
19.066659	0.049909	14.000000	nontarget	13.000000	19.094208
19.116568	0.049662	14.000000	nontarget	14.000000	na
19.166231	0.050425	14.000000	nontarget	15.000000	na
19.216656	0.049582	14.000000	nontarget	16.000000	na
19.266238	0.050121	15.000000	nontarget	1.000000	na
19.316360	0.049806	15.000000	nontarget	2.000000	na
19.366165	0.049616	15.000000	nontarget	3.000000	na
19.415781	0.050311	15.000000	nontarget	4.000000	na
19.466092	0.050361	15.000000	nontarget	5.000000	na
19.516453	0.049904	15.000000	nontarget	6.000000	na
19.566357	0.049431	15.000000	nontarget	7.000000	na
19.615789	0.050457	15.000000	nontarget	8.000000	na
19.666246	0.050078	15.000000	nontarget	9.000000	na
19.716324	0.049914	15.000000	nontarget	10.000000	na
19.766238	0.050405	15.000000	nontarget	11.000000	na
19.816643	0.049591	15.000000	nontarget	12.000000	na
19.866234	0.050112	15.000000	nontarget	13.000000	na
19.916346	0.050129	15.000000	nontarget	14.000000	na
19.966476	0.049737	15.000000	nontarget	15.000000	na
20.016212	0.050277	15.000000	nontarget	16.000000	na
20.066490	0.049934	16.000000	target	1.000000	na
20.116424	0.049743	16.000000	target	2.000000	na
20.166167	0.050502	16.000000	target	3.000000	na
20.216669	0.049661	16.000000	target	4.000000	na
20.266330	0.050005	16.000000	target	5.000000	na
20.316335	0.049863	16.000000	target	6.000000	na
20.366198	0.050151	16.000000	target	7.000000	na
20.416349	0.049885	16.000000	target	8.000000	na
20.466234	0.050095	16.000000	target	9.000000	na
20.516328	0.050019	16.000000	target	10.000000	na
20.566347	0.050014	16.000000	target	11.000000	na
20.616362	0.049587	16.000000	target	12.000000	na
20.665949	0.049950	16.000000	target	13.000000	na
20.715899	0.050765	16.000000	target	14.000000	na
20.766665	0.049405	16.000000	target	15.000000	20.773198
20.816070	0.050276	16.000000	target	16.000000	na
20.866346	0.049375	17.000000	nontarget	1.000000	20.872922
20.915721	0.050522	17.000000	nontarget	2.000000	na
20.966242	0.050123	17.000000	nontarget	3.000000	na
21.016366	0.050154	17.000000	nontarget	4.000000	na
21.066520	0.049210	17.000000	nontarget	5.000000	na
21.115730	0.050338	17.000000	nontarget	6.000000	na
21.166068	0.050284	17.000000	nontarget	7.000000	na
21.216353	0.049706	17.000000	nontarget	8.000000	na
21.266059	0.050000	17.000000	nontarget	9.000000	na
21.316059	0.050144	17.000000	nontarget	10.000000	na
21.366203	0.049860	17.000000	nontarget	11.000000	na
21.416063	0.050435	17.000000	nontarget	12.000000	na
21.466498	0.049847	17.000000	nontarget	13.000000	na
21.516344	0.049987	17.000000	nontarget	14.000000	na
21.566332	0.051615	17.000000	nontarget	15.000000	na
21.617947	0.048320	17.000000	nontarget	16.000000	21.623761
21.666267	0.050060	18.000000	nontarget	1.000000	21.672828
21.716327	0.050165	18.000000	nontarget	2.000000	na
21.766492	0.049861	18.000000	nontarget	3.000000	na
21.816353	0.049995	18.000000	nontarget	4.000000	na
21.866348	0.049890	18.000000	nontarget	5.000000	na
21.916238	0.050111	18.000000	nontarget	6.000000	na
21.966349	0.050009	18.000000	nontarget	7.000000	na
22.016358	0.049459	18.000000	nontarget	8.000000	na
22.065817	0.050529	18.000000	nontarget	9.000000	na
22.116346	0.049878	18.000000	nontarget	10.000000	na
22.166224	0.050178	18.000000	nontarget	11.000000	na
22.216403	0.049948	18.000000	nontarget	12.000000	na
22.266351	0.050196	18.000000	nontarget	13.000000	na
22.316547	0.049685	18.000000	nontarget	14.000000	na
22.366232	0.049837	18.000000	nontarget	15.000000	na
22.416070	0.049966	18.000000	nontarget	16.000000	na
22.466036	0.049926	19.000000	target	1.000000	na
22.515962	0.050516	19.000000	target	2.000000	na
22.566478	0.049897	19.000000	target	3.000000	na
22.616375	0.049980	19.000000	target	4.000000	na
22.666355	0.050133	19.000000	target	5.000000	na
22.716488	0.049584	19.000000	target	6.000000	na
22.766072	0.050241	19.000000	target	7.000000	na
22.816313	0.050052	19.000000	target	8.000000	na
22.866365	0.049981	19.000000	target	9.000000	na
22.916346	0.049328	19.000000	target	10.000000	na
22.965674	0.050713	19.000000	target	11.000000	na
23.016387	0.050103	19.000000	target	12.000000	na
23.066490	0.049881	19.000000	target	13.000000	na
23.116371	0.049421	19.000000	target	14.000000	na
23.165792	0.050227	19.000000	target	15.000000	na
23.216019	0.050196	19.000000	target	16.000000	23.223560
23.266215	0.049861	20.000000	nontarget	1.000000	23.272795
23.316076	0.050170	20.000000	nontarget	2.000000	na
23.366246	0.050042	20.000000	nontarget	3.000000	na
23.416289	0.050080	20.000000	nontarget	4.000000	na
23.466369	0.049694	20.000000	nontarget	5.000000	na
23.516063	0.050129	20.000000	nontarget	6.000000	na
23.566192	0.049858	20.000000	nontarget	7.000000	na
23.616050	0.049817	20.000000	nontarget	8.000000	na
23.665867	0.050611	20.000000	nontarget	9.000000	na
23.716477	0.049863	20.000000	nontarget	10.000000	na
23.766340	0.049643	20.000000	nontarget	11.000000	na
23.815983	0.049805	20.000000	nontarget	12.000000	na
23.865788	0.050386	20.000000	nontarget	13.000000	na
23.916173	0.050093	20.000000	nontarget	14.000000	na
23.966266	0.049319	20.000000	nontarget	15.000000	na
24.015585	0.050810	20.000000	nontarget	16.000000	na
24.066395	0.049526	21.000000	nontarget	1.000000	24.089409
24.115921	0.049881	21.000000	nontarget	2.000000	na
24.165803	0.050552	21.000000	nontarget	3.000000	na
24.216354	0.049892	21.000000	nontarget	4.000000	na
24.266246	0.049688	21.000000	nontarget	5.000000	na
24.315934	0.050269	21.000000	nontarget	6.000000	na
24.366202	0.049993	21.000000	nontarget	7.000000	na
24.416196	0.049869	21.000000	nontarget	8.000000	na
24.466065	0.050179	21.000000	nontarget	9.000000	na
24.516244	0.050016	21.000000	nontarget	10.000000	na
24.566260	0.050000	21.000000	nontarget	11.000000	na
24.616260	0.049948	21.000000	nontarget	12.000000	na
24.666208	0.050121	21.000000	nontarget	13.000000	na
24.716329	0.049390	21.000000	nontarget	14.000000	na
24.765720	0.050620	21.000000	nontarget	15.000000	na
24.816340	0.049435	21.000000	nontarget	16.000000	na
24.865775	0.050474	22.000000	nontarget	1.000000	na
24.916249	0.050115	22.000000	nontarget	2.000000	24.936386
24.966364	0.050093	22.000000	nontarget	3.000000	na
25.016457	0.049901	22.000000	nontarget	4.000000	na
25.066357	0.049977	22.000000	nontarget	5.000000	na
25.116335	0.049334	22.000000	nontarget	6.000000	na
25.165668	0.050767	22.000000	nontarget	7.000000	na
25.216436	0.049642	22.000000	nontarget	8.000000	na
25.266078	0.050409	22.000000	nontarget	9.000000	na
25.316487	0.049789	22.000000	nontarget	10.000000	na
25.366275	0.049669	22.000000	nontarget	11.000000	na
25.415944	0.050124	22.000000	nontarget	12.000000	na
25.466068	0.050286	22.000000	nontarget	13.000000	na
25.516354	0.049713	22.000000	nontarget	14.000000	na
25.566067	0.049667	22.000000	nontarget	15.000000	na
25.615734	0.050689	22.000000	nontarget	16.000000	na
25.666423	0.049819	23.000000	nontarget	1.000000	na
25.716242	0.050038	23.000000	nontarget	2.000000	na
25.766280	0.049969	23.000000	nontarget	3.000000	na
25.816249	0.050035	23.000000	nontarget	4.000000	na
25.866285	0.049531	23.000000	nontarget	5.000000	na
25.915816	0.050600	23.000000	nontarget	6.000000	na
25.966416	0.049938	23.000000	nontarget	7.000000	na
26.016353	0.049715	23.000000	nontarget	8.000000	na
26.066069	0.050196	23.000000	nontarget	9.000000	na
26.116265	0.050333	23.000000	nontarget	10.000000	26.139129
26.166598	0.049467	23.000000	nontarget	11.000000	na
26.216065	0.050124	23.000000	nontarget	12.000000	na
26.266189	0.049555	23.000000	nontarget	13.000000	na
26.315745	0.050620	23.000000	nontarget	14.000000	na
26.366365	0.049705	23.000000	nontarget	15.000000	na
26.416069	0.050531	23.000000	nontarget	16.000000	na
26.466600	0.049668	24.000000	nontarget	1.000000	na
26.516268	0.049909	24.000000	nontarget	2.000000	na
26.566176	0.049802	24.000000	nontarget	3.000000	na
26.615978	0.050632	24.000000	nontarget	4.000000	na
26.666611	0.049451	24.000000	nontarget	5.000000	na
26.716062	0.049981	24.000000	nontarget	6.000000	na
26.766043	0.050202	24.000000	nontarget	7.000000	na
26.816245	0.050284	24.000000	nontarget	8.000000	na
26.866529	0.049660	24.000000	nontarget	9.000000	na
26.916189	0.050062	24.000000	nontarget	10.000000	na
26.966251	0.050075	24.000000	nontarget	11.000000	na
27.016326	0.050351	24.000000	nontarget	12.000000	na
27.066677	0.049884	24.000000	nontarget	13.000000	na
27.116562	0.050052	24.000000	nontarget	14.000000	na
27.166614	0.054143	24.000000	nontarget	15.000000	na
27.220756	0.045305	24.000000	nontarget	16.000000	27.225810
27.266061	0.050401	25.000000	target	1.000000	27.272648
27.316462	0.049975	25.000000	target	2.000000	na
27.366437	0.049577	25.000000	target	3.000000	na
27.416014	0.050250	25.000000	target	4.000000	na
27.466264	0.050079	25.000000	target	5.000000	na
27.516343	0.049844	25.000000	target	6.000000	na
27.566186	0.049432	25.000000	target	7.000000	na
27.615618	0.050881	25.000000	target	8.000000	na
27.666500	0.049559	25.000000	target	9.000000	na
27.716059	0.050104	25.000000	target	10.000000	na
27.766163	0.049902	25.000000	target	11.000000	na
27.816065	0.050012	25.000000	target	12.000000	na
27.866077	0.050352	25.000000	target	13.000000	na
27.916429	0.049639	25.000000	target	14.000000	na
27.966068	0.050306	25.000000	target	15.000000	na
28.016375	0.049695	25.000000	target	16.000000	na
28.066070	0.050497	26.000000	target	1.000000	na
28.116566	0.049047	26.000000	target	2.000000	na
28.165613	0.050942	26.000000	target	3.000000	na
28.216554	0.049495	26.000000	target	4.000000	na
28.266050	0.050203	26.000000	target	5.000000	na
28.316253	0.049948	26.000000	target	6.000000	na
28.366201	0.049716	26.000000	target	7.000000	na
28.415917	0.050333	26.000000	target	8.000000	na
28.466251	0.049982	26.000000	target	9.000000	na
28.516232	0.049889	26.000000	target	10.000000	na
28.566121	0.049653	26.000000	target	11.000000	na
28.615775	0.050310	26.000000	target	12.000000	na
28.666085	0.050242	26.000000	target	13.000000	na
28.716327	0.049632	26.000000	target	14.000000	na
28.765959	0.050284	26.000000	target	15.000000	na
28.816242	0.049622	26.000000	target	16.000000	na
28.865865	0.050408	27.000000	nontarget	1.000000	na
28.916273	0.050267	27.000000	nontarget	2.000000	na
28.966540	0.050148	27.000000	nontarget	3.000000	na
29.016689	0.049292	27.000000	nontarget	4.000000	29.032270
29.065980	0.049990	27.000000	nontarget	5.000000	na
29.115970	0.050622	27.000000	nontarget	6.000000	na
29.166592	0.049687	27.000000	nontarget	7.000000	na
29.216279	0.049803	27.000000	nontarget	8.000000	na
29.266082	0.050305	27.000000	nontarget	9.000000	na
29.316387	0.049781	27.000000	nontarget	10.000000	na
29.366168	0.050542	27.000000	nontarget	11.000000	na
29.416710	0.049548	27.000000	nontarget	12.000000	na
29.466258	0.050386	27.000000	nontarget	13.000000	na
29.516644	0.049063	27.000000	nontarget	14.000000	na
29.565707	0.050485	27.000000	nontarget	15.000000	na
29.616192	0.049825	27.000000	nontarget	16.000000	na
29.666017	0.050470	28.000000	nontarget	1.000000	na
29.716487	0.049610	28.000000	nontarget	2.000000	na
29.766097	0.050590	28.000000	nontarget	3.000000	na
29.816688	0.049559	28.000000	nontarget	4.000000	na
29.866247	0.049987	28.000000	nontarget	5.000000	na
29.916234	0.050513	28.000000	nontarget	6.000000	29.943395
29.966747	0.049463	28.000000	nontarget	7.000000	na
30.016210	0.050300	28.000000	nontarget	8.000000	na
30.066510	0.049688	28.000000	nontarget	9.000000	na
30.116198	0.050212	28.000000	nontarget	10.000000	na
30.166410	0.049684	28.000000	nontarget	11.000000	na
30.216094	0.050092	28.000000	nontarget	12.000000	na
30.266186	0.050260	28.000000	nontarget	13.000000	na
30.316446	0.049739	28.000000	nontarget	14.000000	na
30.366185	0.050055	28.000000	nontarget	15.000000	na
30.416240	0.049948	28.000000	nontarget	16.000000	na
30.466188	0.049885	29.000000	nontarget	1.000000	na
30.516073	0.050167	29.000000	nontarget	2.000000	na
30.566240	0.049974	29.000000	nontarget	3.000000	na
30.616214	0.049884	29.000000	nontarget	4.000000	na
30.666098	0.050265	29.000000	nontarget	5.000000	na
30.716363	0.049834	29.000000	nontarget	6.000000	na
30.766197	0.049574	29.000000	nontarget	7.000000	na
30.815771	0.050416	29.000000	nontarget	8.000000	na
30.866186	0.050027	29.000000	nontarget	9.000000	na
30.916214	0.050065	29.000000	nontarget	10.000000	na
30.966278	0.049917	29.000000	nontarget	11.000000	na
31.016195	0.049666	29.000000	nontarget	12.000000	31.022770
31.065861	0.050437	29.000000	nontarget	13.000000	na
31.116297	0.049894	29.000000	nontarget	14.000000	na
31.166191	0.050400	29.000000	nontarget	15.000000	na
31.216591	0.049499	29.000000	nontarget	16.000000	na
31.266090	0.050108	30.000000	nontarget	1.000000	na
31.316198	0.049786	30.000000	nontarget	2.000000	na
31.365984	0.050201	30.000000	nontarget	3.000000	na
31.416186	0.050222	30.000000	nontarget	4.000000	na
31.466408	0.049039	30.000000	nontarget	5.000000	na
31.515447	0.050785	30.000000	nontarget	6.000000	na
31.566233	0.050158	30.000000	nontarget	7.000000	na
31.616391	0.049677	30.000000	nontarget	8.000000	na
31.666067	0.050050	30.000000	nontarget	9.000000	na
31.716118	0.049994	30.000000	nontarget	10.000000	na
31.766112	0.049952	30.000000	nontarget	11.000000	na
31.816064	0.050141	30.000000	nontarget	12.000000	na
31.866205	0.049888	30.000000	nontarget	13.000000	31.872813
31.916093	0.049552	30.000000	nontarget	14.000000	na
31.965646	0.050600	30.000000	nontarget	15.000000	na
32.016246	0.049397	30.000000	nontarget	16.000000	na
32.065642	0.050419	31.000000	nontarget	1.000000	na
32.116061	0.050135	31.000000	nontarget	2.000000	na
32.166197	0.050015	31.000000	nontarget	3.000000	na
32.216211	0.049957	31.000000	nontarget	4.000000	na
32.266169	0.050058	31.000000	nontarget	5.000000	na
32.316226	0.050158	31.000000	nontarget	6.000000	na
32.366385	0.049882	31.000000	nontarget	7.000000	na
32.416267	0.049941	31.000000	nontarget	8.000000	na
32.466207	0.049461	31.000000	nontarget	9.000000	na
32.515668	0.050076	31.000000	nontarget	10.000000	na
32.565745	0.050496	31.000000	nontarget	11.000000	na
32.616241	0.049981	31.000000	nontarget	12.000000	na
32.666221	0.049801	31.000000	nontarget	13.000000	na
32.716022	0.050268	31.000000	nontarget	14.000000	na
32.766290	0.049809	31.000000	nontarget	15.000000	na
32.816099	0.049455	31.000000	nontarget	16.000000	na
32.865554	0.050634	32.000000	nontarget	1.000000	32.874675
32.916188	0.050041	32.000000	nontarget	2.000000	na
32.966229	0.049978	32.000000	nontarget	3.000000	na
33.016207	0.049987	32.000000	nontarget	4.000000	na
33.066194	0.049467	32.000000	nontarget	5.000000	na
33.115660	0.050449	32.000000	nontarget	6.000000	na
33.166109	0.049510	32.000000	nontarget	7.000000	na
33.215619	0.050605	32.000000	nontarget	8.000000	na
33.266224	0.049880	32.000000	nontarget	9.000000	na
33.316104	0.049618	32.000000	nontarget	10.000000	na
33.365721	0.050473	32.000000	nontarget	11.000000	na
33.416195	0.049879	32.000000	nontarget	12.000000	na
33.466074	0.050165	32.000000	nontarget	13.000000	na
33.516239	0.049833	32.000000	nontarget	14.000000	na
33.566071	0.050003	32.000000	nontarget	15.000000	na
33.616074	0.049631	32.000000	nontarget	16.000000	na
33.665705	0.050365	33.000000	nontarget	1.000000	na
33.716069	0.049360	33.000000	nontarget	2.000000	na
33.765429	0.050772	33.000000	nontarget	3.000000	na
33.816201	0.049975	33.000000	nontarget	4.000000	na
33.866176	0.049888	33.000000	nontarget	5.000000	33.893857
33.916064	0.050180	33.000000	nontarget	6.000000	na
33.966244	0.049575	33.000000	nontarget	7.000000	na
34.015819	0.049737	33.000000	nontarget	8.000000	na
34.065557	0.050222	33.000000	nontarget	9.000000	na
34.115778	0.049737	33.000000	nontarget	10.000000	na
34.165516	0.050690	33.000000	nontarget	11.000000	na
34.216206	0.050157	33.000000	nontarget	12.000000	na
34.266363	0.049057	33.000000	nontarget	13.000000	na
34.315419	0.050825	33.000000	nontarget	14.000000	na
34.366245	0.049289	33.000000	nontarget	15.000000	na
34.415533	0.050549	33.000000	nontarget	16.000000	na
34.466082	0.049431	34.000000	nontarget	1.000000	na
34.515512	0.050681	34.000000	nontarget	2.000000	na
34.566193	0.049917	34.000000	nontarget	3.000000	na
34.616110	0.049965	34.000000	nontarget	4.000000	na
34.666075	0.049418	34.000000	nontarget	5.000000	na
34.715493	0.052289	34.000000	nontarget	6.000000	na
34.767781	0.047991	34.000000	nontarget	7.000000	34.773998
34.815773	0.050296	34.000000	nontarget	8.000000	na
34.866069	0.049973	34.000000	nontarget	9.000000	na
34.916042	0.050075	34.000000	nontarget	10.000000	na
34.966117	0.050077	34.000000	nontarget	11.000000	na
35.016194	0.050009	34.000000	nontarget	12.000000	na
35.066203	0.050075	34.000000	nontarget	13.000000	na
35.116278	0.049493	34.000000	nontarget	14.000000	na
35.165771	0.050335	34.000000	nontarget	15.000000	na
35.216106	0.049734	34.000000	nontarget	16.000000	na
35.265841	0.050263	35.000000	nontarget	1.000000	na
35.316103	0.050002	35.000000	nontarget	2.000000	na
35.366105	0.049757	35.000000	nontarget	3.000000	na
35.415862	0.050032	35.000000	nontarget	4.000000	na
35.465894	0.050188	35.000000	nontarget	5.000000	na
35.516082	0.049908	35.000000	nontarget	6.000000	na
35.565990	0.049929	35.000000	nontarget	7.000000	na
35.615919	0.050281	35.000000	nontarget	8.000000	35.622493
35.666200	0.049416	35.000000	nontarget	9.000000	na
35.715616	0.050552	35.000000	nontarget	10.000000	na
35.766169	0.049322	35.000000	nontarget	11.000000	na
35.815491	0.050863	35.000000	nontarget	12.000000	na
35.866354	0.049760	35.000000	nontarget	13.000000	na
35.916114	0.050081	35.000000	nontarget	14.000000	na
35.966195	0.049609	35.000000	nontarget	15.000000	na
36.015804	0.050046	35.000000	nontarget	16.000000	na
36.065850	0.050221	36.000000	nontarget	1.000000	na
36.116070	0.050102	36.000000	nontarget	2.000000	na
36.166173	0.049610	36.000000	nontarget	3.000000	na
36.215783	0.050107	36.000000	nontarget	4.000000	na
36.265889	0.049884	36.000000	nontarget	5.000000	na
36.315773	0.050319	36.000000	nontarget	6.000000	na
36.366093	0.050114	36.000000	nontarget	7.000000	na
36.416207	0.049863	36.000000	nontarget	8.000000	na
36.466069	0.049959	36.000000	nontarget	9.000000	na
36.516029	0.050000	36.000000	nontarget	10.000000	na
36.566029	0.050049	36.000000	nontarget	11.000000	36.575230
36.616078	0.050117	36.000000	nontarget	12.000000	na
36.666195	0.049973	36.000000	nontarget	13.000000	na
36.716168	0.049906	36.000000	nontarget	14.000000	na
36.766074	0.050004	36.000000	nontarget	15.000000	na
36.816078	0.049999	36.000000	nontarget	16.000000	na
36.866077	0.050172	37.000000	nontarget	1.000000	na
36.916249	0.049826	37.000000	nontarget	2.000000	na
36.966075	0.050020	37.000000	nontarget	3.000000	na
37.016095	0.050265	37.000000	nontarget	4.000000	na
37.066360	0.049069	37.000000	nontarget	5.000000	na
37.115429	0.050667	37.000000	nontarget	6.000000	na
37.166096	0.049574	37.000000	nontarget	7.000000	na
37.215670	0.050412	37.000000	nontarget	8.000000	na
37.266082	0.049420	37.000000	nontarget	9.000000	na
37.315502	0.050542	37.000000	nontarget	10.000000	na
37.366043	0.050031	37.000000	nontarget	11.000000	na
37.416074	0.049487	37.000000	nontarget	12.000000	37.422813
37.465561	0.050344	37.000000	nontarget	13.000000	na
37.515905	0.050202	37.000000	nontarget	14.000000	na
37.566108	0.049989	37.000000	nontarget	15.000000	na
37.616096	0.050008	37.000000	nontarget	16.000000	na
37.666104	0.049947	38.000000	nontarget	1.000000	na
37.716051	0.050029	38.000000	nontarget	2.000000	na
37.766079	0.050132	38.000000	nontarget	3.000000	na
37.816211	0.049870	38.000000	nontarget	4.000000	na
37.866081	0.049590	38.000000	nontarget	5.000000	na
37.915672	0.050387	38.000000	nontarget	6.000000	na
37.966059	0.049713	38.000000	nontarget	7.000000	na
38.015772	0.049721	38.000000	nontarget	8.000000	na
38.065493	0.050331	38.000000	nontarget	9.000000	na
38.115824	0.049979	38.000000	nontarget	10.000000	na
38.165803	0.050268	38.000000	nontarget	11.000000	na
38.216072	0.049450	38.000000	nontarget	12.000000	na
38.265521	0.050202	38.000000	nontarget	13.000000	38.272176
38.315723	0.050256	38.000000	nontarget	14.000000	na
38.365979	0.049942	38.000000	nontarget	15.000000	na
38.415921	0.050161	38.000000	nontarget	16.000000	na
38.466083	0.049526	39.000000	nontarget	1.000000	na
38.515608	0.050467	39.000000	nontarget	2.000000	na
38.566075	0.049339	39.000000	nontarget	3.000000	na
38.615414	0.050667	39.000000	nontarget	4.000000	na
38.666081	0.049990	39.000000	nontarget	5.000000	na
38.716071	0.050004	39.000000	nontarget	6.000000	na
38.766075	0.049348	39.000000	nontarget	7.000000	na
38.815423	0.050652	39.000000	nontarget	8.000000	na
38.866075	0.049998	39.000000	nontarget	9.000000	na
38.916073	0.049997	39.000000	nontarget	10.000000	na
38.966070	0.049734	39.000000	nontarget	11.000000	na
39.015804	0.049914	39.000000	nontarget	12.000000	na
39.065717	0.050169	39.000000	nontarget	13.000000	39.096761
39.115887	0.050240	39.000000	nontarget	14.000000	na
39.166126	0.049953	39.000000	nontarget	15.000000	na
39.216080	0.049968	39.000000	nontarget	16.000000	na
39.266047	0.049956	40.000000	nontarget	1.000000	na
39.316004	0.049916	40.000000	nontarget	2.000000	na
39.365920	0.050143	40.000000	nontarget	3.000000	na
39.416063	0.050165	40.000000	nontarget	4.000000	na
39.466228	0.049324	40.000000	nontarget	5.000000	na
39.515552	0.050236	40.000000	nontarget	6.000000	na
39.565788	0.049818	40.000000	nontarget	7.000000	na
39.615606	0.050590	40.000000	nontarget	8.000000	na
39.666196	0.049878	40.000000	nontarget	9.000000	na
39.716074	0.050000	40.000000	nontarget	10.000000	na
39.766075	0.049878	40.000000	nontarget	11.000000	na
39.815952	0.050124	40.000000	nontarget	12.000000	na
39.866076	0.050007	40.000000	nontarget	13.000000	na
39.916083	0.049479	40.000000	nontarget	14.000000	na
39.965562	0.050469	40.000000	nontarget	15.000000	na
40.016031	0.049098	40.000000	nontarget	16.000000	na
40.065128	0.050960	41.000000	nontarget	1.000000	40.072662
40.116088	0.050109	41.000000	nontarget	2.000000	na
40.166197	0.050053	41.000000	nontarget	3.000000	na
40.216251	0.049467	41.000000	nontarget	4.000000	na
40.265718	0.050349	41.000000	nontarget	5.000000	na
40.316067	0.050121	41.000000	nontarget	6.000000	na
40.366188	0.049886	41.000000	nontarget	7.000000	na
40.416074	0.049554	41.000000	nontarget	8.000000	na
40.465628	0.050445	41.000000	nontarget	9.000000	na
40.516073	0.050011	41.000000	nontarget	10.000000	na
40.566084	0.049466	41.000000	nontarget	11.000000	na
40.615549	0.050640	41.000000	nontarget	12.000000	na
40.666190	0.049249	41.000000	nontarget	13.000000	na
40.715439	0.050599	41.000000	nontarget	14.000000	na
40.766038	0.052774	41.000000	nontarget	15.000000	na
40.818812	0.047270	41.000000	nontarget	16.000000	40.824264
40.866082	0.050131	42.000000	nontarget	1.000000	40.872667
40.916213	0.049863	42.000000	nontarget	2.000000	na
40.966076	0.049765	42.000000	nontarget	3.000000	na
41.015840	0.050225	42.000000	nontarget	4.000000	na
41.066065	0.050010	42.000000	nontarget	5.000000	na
41.116075	0.049568	42.000000	nontarget	6.000000	na
41.165644	0.050036	42.000000	nontarget	7.000000	na
41.215680	0.050393	42.000000	nontarget	8.000000	na
41.266072	0.049992	42.000000	nontarget	9.000000	na
41.316064	0.049309	42.000000	nontarget	10.000000	na
41.365373	0.050696	42.000000	nontarget	11.000000	na
41.416070	0.050003	42.000000	nontarget	12.000000	na
41.466073	0.049996	42.000000	nontarget	13.000000	na
41.516068	0.050006	42.000000	nontarget	14.000000	na
41.566074	0.049585	42.000000	nontarget	15.000000	na
41.615659	0.050392	42.000000	nontarget	16.000000	na
41.666051	0.050005	43.000000	target	1.000000	na
41.716057	0.050018	43.000000	target	2.000000	na
41.766075	0.050213	43.000000	target	3.000000	na
41.816288	0.049784	43.000000	target	4.000000	na
41.866073	0.050125	43.000000	target	5.000000	na
41.916197	0.049682	43.000000	target	6.000000	na
41.965879	0.050129	43.000000	target	7.000000	na
42.016008	0.050324	43.000000	target	8.000000	na
42.066333	0.049702	43.000000	target	9.000000	na
42.116035	0.049919	43.000000	target	10.000000	na
42.165954	0.050233	43.000000	target	11.000000	na
42.216187	0.049342	43.000000	target	12.000000	na
42.265529	0.050128	43.000000	target	13.000000	na
42.315657	0.050417	43.000000	target	14.000000	na
42.366074	0.049916	43.000000	target	15.000000	na
42.415990	0.050092	43.000000	target	16.000000	na
42.466082	0.049989	44.000000	nontarget	1.000000	na
42.516071	0.049999	44.000000	nontarget	2.000000	na
42.566070	0.049329	44.000000	nontarget	3.000000	na
42.615399	0.050519	44.000000	nontarget	4.000000	42.622932
42.665918	0.049909	44.000000	nontarget	5.000000	na
42.715827	0.050013	44.000000	nontarget	6.000000	na
42.765840	0.050320	44.000000	nontarget	7.000000	na
42.816160	0.049453	44.000000	nontarget	8.000000	na
42.865613	0.050380	44.000000	nontarget	9.000000	na
42.915992	0.050084	44.000000	nontarget	10.000000	na
42.966077	0.050097	44.000000	nontarget	11.000000	na
43.016174	0.049340	44.000000	nontarget	12.000000	na
43.065514	0.050565	44.000000	nontarget	13.000000	na
43.116079	0.049817	44.000000	nontarget	14.000000	na
43.165896	0.049663	44.000000	nontarget	15.000000	na
43.215559	0.050513	44.000000	nontarget	16.000000	na
43.266072	0.050002	45.000000	nontarget	1.000000	na
43.316073	0.050039	45.000000	nontarget	2.000000	na
43.366112	0.049924	45.000000	nontarget	3.000000	na
43.416036	0.049929	45.000000	nontarget	4.000000	43.439474
43.465965	0.050394	45.000000	nontarget	5.000000	na
43.516359	0.049714	45.000000	nontarget	6.000000	na
43.566073	0.049912	45.000000	nontarget	7.000000	na
43.615985	0.050063	45.000000	nontarget	8.000000	na
43.666048	0.049349	45.000000	nontarget	9.000000	na
43.715397	0.050636	45.000000	nontarget	10.000000	na
43.766033	0.050180	45.000000	nontarget	11.000000	na
43.816214	0.049990	45.000000	nontarget	12.000000	na
43.866204	0.049586	45.000000	nontarget	13.000000	na
43.915789	0.050063	45.000000	nontarget	14.000000	na
43.965852	0.050226	45.000000	nontarget	15.000000	na
44.016078	0.050119	45.000000	nontarget	16.000000	na
44.066197	0.049802	46.000000	nontarget	1.000000	na
44.115999	0.049399	46.000000	nontarget	2.000000	na
44.165398	0.050681	46.000000	nontarget	3.000000	na
44.216079	0.049526	46.000000	nontarget	4.000000	44.244596
44.265605	0.050473	46.000000	nontarget	5.000000	na
44.316078	0.049677	46.000000	nontarget	6.000000	na
44.365755	0.049956	46.000000	nontarget	7.000000	na
44.415711	0.050220	46.000000	nontarget	8.000000	na
44.465931	0.050099	46.000000	nontarget	9.000000	na
44.516030	0.049731	46.000000	nontarget	10.000000	na
44.565760	0.049905	46.000000	nontarget	11.000000	na
44.615665	0.050417	46.000000	nontarget	12.000000	na
44.666083	0.050099	46.000000	nontarget	13.000000	na
44.716182	0.049366	46.000000	nontarget	14.000000	na
44.765548	0.050255	46.000000	nontarget	15.000000	na
44.815803	0.049945	46.000000	nontarget	16.000000	na
44.865748	0.050281	47.000000	nontarget	1.000000	na
44.916029	0.050048	47.000000	nontarget	2.000000	na
44.966078	0.049892	47.000000	nontarget	3.000000	na
45.015969	0.050115	47.000000	nontarget	4.000000	na
45.066084	0.050002	47.000000	nontarget	5.000000	45.072714
45.116086	0.049995	47.000000	nontarget	6.000000	na
45.166081	0.049994	47.000000	nontarget	7.000000	na
45.216075	0.049665	47.000000	nontarget	8.000000	na
45.265740	0.050335	47.000000	nontarget	9.000000	na
45.316075	0.049997	47.000000	nontarget	10.000000	na
45.366072	0.050014	47.000000	nontarget	11.000000	na
45.416086	0.049988	47.000000	nontarget	12.000000	na
45.466074	0.049996	47.000000	nontarget	13.000000	na
45.516070	0.049997	47.000000	nontarget	14.000000	na
45.566067	0.050008	47.000000	nontarget	15.000000	na
45.616075	0.049779	47.000000	nontarget	16.000000	na
45.665854	0.049593	48.000000	nontarget	1.000000	na
45.715447	0.050807	48.000000	nontarget	2.000000	na
45.766254	0.049819	48.000000	nontarget	3.000000	na
45.816073	0.050004	48.000000	nontarget	4.000000	na
45.866077	0.049996	48.000000	nontarget	5.000000	na
45.916073	0.050033	48.000000	nontarget	6.000000	45.927238
45.966107	0.049974	48.000000	nontarget	7.000000	na
46.016081	0.049997	48.000000	nontarget	8.000000	na
46.066078	0.049527	48.000000	nontarget	9.000000	na
46.115605	0.050265	48.000000	nontarget	10.000000	na
46.165870	0.050372	48.000000	nontarget	11.000000	na
46.216243	0.049829	48.000000	nontarget	12.000000	na
46.266072	0.050001	48.000000	nontarget	13.000000	na
46.316073	0.050136	48.000000	nontarget	14.000000	na
46.366209	0.049865	48.000000	nontarget	15.000000	na
46.416074	0.050129	48.000000	nontarget	16.000000	na
46.466203	0.049777	49.000000	nontarget	1.000000	na
46.515980	0.050102	49.000000	nontarget	2.000000	na
46.566081	0.049954	49.000000	nontarget	3.000000	na
46.616036	0.050037	49.000000	nontarget	4.000000	na
46.666073	0.049993	49.000000	nontarget	5.000000	na
46.716066	0.050014	49.000000	nontarget	6.000000	na
46.766080	0.049996	49.000000	nontarget	7.000000	na
46.816076	0.049996	49.000000	nontarget	8.000000	na
46.866071	0.049996	49.000000	nontarget	9.000000	na
46.916067	0.049766	49.000000	nontarget	10.000000	46.935943
46.965833	0.050250	49.000000	nontarget	11.000000	na
47.016082	0.049851	49.000000	nontarget	12.000000	na
47.065933	0.050261	49.000000	nontarget	13.000000	na
47.116194	0.049462	49.000000	nontarget	14.000000	na
47.165657	0.049710	49.000000	nontarget	15.000000	na
47.215367	0.050713	49.000000	nontarget	16.000000	na
47.266079	0.049996	50.000000	nontarget	1.000000	na
47.316075	0.049998	50.000000	nontarget	2.000000	na
47.366073	0.049967	50.000000	nontarget	3.000000	na
47.416041	0.049994	50.000000	nontarget	4.000000	na
47.466035	0.050040	50.000000	nontarget	5.000000	na
47.516075	0.049703	50.000000	nontarget	6.000000	na
47.565778	0.049900	50.000000	nontarget	7.000000	na
47.615679	0.050397	50.000000	nontarget	8.000000	na
47.666075	0.049989	50.000000	nontarget	9.000000	na
47.716064	0.050006	50.000000	nontarget	10.000000	na
47.766070	0.050002	50.000000	nontarget	11.000000	na
47.816072	0.050004	50.000000	nontarget	12.000000	na
47.866076	0.049526	50.000000	nontarget	13.000000	47.885415
47.915602	0.050471	50.000000	nontarget	14.000000	na
47.966073	0.049688	50.000000	nontarget	15.000000	na
48.015762	0.050054	50.000000	nontarget	16.000000	na
48.065815	0.050258	51.000000	nontarget	1.000000	na
48.116073	0.050007	51.000000	nontarget	2.000000	na
48.166081	0.049144	51.000000	nontarget	3.000000	na
48.215225	0.050451	51.000000	nontarget	4.000000	na
48.265676	0.050398	51.000000	nontarget	5.000000	na
48.316074	0.049966	51.000000	nontarget	6.000000	na
48.366040	0.050012	51.000000	nontarget	7.000000	na
48.416052	0.049386	51.000000	nontarget	8.000000	na
48.465438	0.050207	51.000000	nontarget	9.000000	na
48.515645	0.050427	51.000000	nontarget	10.000000	na
48.566072	0.049602	51.000000	nontarget	11.000000	na
48.615675	0.050401	51.000000	nontarget	12.000000	na
48.666076	0.049561	51.000000	nontarget	13.000000	na
48.715637	0.050438	51.000000	nontarget	14.000000	na
48.766075	0.050559	51.000000	nontarget	15.000000	na
48.816634	0.049447	51.000000	nontarget	16.000000	48.822346
48.866081	0.049644	52.000000	nontarget	1.000000	48.872723
48.915725	0.050353	52.000000	nontarget	2.000000	na
48.966078	0.049998	52.000000	nontarget	3.000000	na
49.016076	0.050032	52.000000	nontarget	4.000000	na
49.066108	0.049973	52.000000	nontarget	5.000000	na
49.116081	0.049909	52.000000	nontarget	6.000000	na
49.165990	0.049830	52.000000	nontarget	7.000000	na
49.215820	0.049353	52.000000	nontarget	8.000000	na
49.265173	0.050401	52.000000	nontarget	9.000000	na
49.315574	0.050135	52.000000	nontarget	10.000000	na
49.365709	0.050375	52.000000	nontarget	11.000000	na
49.416084	0.049991	52.000000	nontarget	12.000000	na
49.466074	0.050106	52.000000	nontarget	13.000000	na
49.516181	0.049898	52.000000	nontarget	14.000000	na
49.566079	0.049378	52.000000	nontarget	15.000000	na
49.615458	0.050620	52.000000	nontarget	16.000000	na
49.666078	0.050087	53.000000	target	1.000000	na
49.716164	0.049876	53.000000	target	2.000000	na
49.766040	0.050006	53.000000	target	3.000000	na
49.816046	0.049618	53.000000	target	4.000000	na
49.865664	0.049815	53.000000	target	5.000000	na
49.915479	0.050490	53.000000	target	6.000000	na
49.965969	0.050103	53.000000	target	7.000000	na
50.016071	0.049997	53.000000	target	8.000000	na
50.066069	0.049528	53.000000	target	9.000000	na
50.115597	0.049831	53.000000	target	10.000000	na
50.165428	0.050437	53.000000	target	11.000000	na
50.215865	0.050207	53.000000	target	12.000000	na
50.266072	0.050000	53.000000	target	13.000000	na
50.316072	0.050008	53.000000	target	14.000000	na
50.366080	0.049992	53.000000	target	15.000000	na
50.416072	0.050127	53.000000	target	16.000000	50.439948
50.466199	0.049831	54.000000	nontarget	1.000000	50.472792
50.516030	0.049098	54.000000	nontarget	2.000000	na
50.565128	0.050482	54.000000	nontarget	3.000000	na
50.615610	0.050465	54.000000	nontarget	4.000000	na
50.666075	0.049265	54.000000	nontarget	5.000000	na
50.715340	0.050763	54.000000	nontarget	6.000000	na
50.766103	0.049985	54.000000	nontarget	7.000000	na
50.816088	0.049987	54.000000	nontarget	8.000000	na
50.866075	0.049808	54.000000	nontarget	9.000000	na
50.915883	0.050192	54.000000	nontarget	10.000000	na
50.966075	0.049707	54.000000	nontarget	11.000000	na
51.015781	0.049500	54.000000	nontarget	12.000000	na
51.065281	0.050287	54.000000	nontarget	13.000000	na
51.115568	0.050375	54.000000	nontarget	14.000000	na
51.165944	0.049992	54.000000	nontarget	15.000000	na
51.215936	0.049549	54.000000	nontarget	16.000000	51.222541
51.265485	0.050441	55.000000	nontarget	1.000000	51.272053
51.315926	0.050152	55.000000	nontarget	2.000000	na
51.366077	0.049999	55.000000	nontarget	3.000000	na
51.416077	0.049415	55.000000	nontarget	4.000000	na
51.465492	0.050572	55.000000	nontarget	5.000000	na
51.516064	0.049170	55.000000	nontarget	6.000000	na
51.565233	0.050872	55.000000	nontarget	7.000000	na
51.616106	0.049120	55.000000	nontarget	8.000000	na
51.665226	0.050848	55.000000	nontarget	9.000000	na
51.716074	0.050007	55.000000	nontarget	10.000000	na
51.766081	0.049968	55.000000	nontarget	11.000000	na
51.816049	0.050023	55.000000	nontarget	12.000000	na
51.866072	0.049990	55.000000	nontarget	13.000000	na
51.916063	0.048908	55.000000	nontarget	14.000000	na
51.964971	0.050962	55.000000	nontarget	15.000000	na
52.015934	0.050148	55.000000	nontarget	16.000000	na
52.066081	0.049892	56.000000	nontarget	1.000000	52.082494
52.115973	0.050100	56.000000	nontarget	2.000000	na
52.166073	0.050009	56.000000	nontarget	3.000000	na
52.216082	0.049614	56.000000	nontarget	4.000000	na
52.265696	0.050356	56.000000	nontarget	5.000000	na
52.316052	0.049318	56.000000	nontarget	6.000000	na
52.365370	0.050702	56.000000	nontarget	7.000000	na
52.416072	0.049976	56.000000	nontarget	8.000000	na
52.466048	0.049997	56.000000	nontarget	9.000000	na
52.516045	0.050003	56.000000	nontarget	10.000000	na
52.566048	0.049913	56.000000	nontarget	11.000000	na
52.615961	0.050077	56.000000	nontarget	12.000000	na
52.666038	0.049349	56.000000	nontarget	13.000000	na
52.715386	0.050330	56.000000	nontarget	14.000000	na
52.765717	0.049945	56.000000	nontarget	15.000000	na
52.815662	0.050415	56.000000	nontarget	16.000000	na
52.866077	0.049898	57.000000	nontarget	1.000000	52.881640
52.915975	0.050108	57.000000	nontarget	2.000000	na
52.966083	0.049659	57.000000	nontarget	3.000000	na
53.015741	0.050133	57.000000	nontarget	4.000000	na
53.065874	0.050099	57.000000	nontarget	5.000000	na
53.115973	0.050078	57.000000	nontarget	6.000000	na
53.166051	0.050023	57.000000	nontarget	7.000000	na
53.216074	0.050002	57.000000	nontarget	8.000000	na
53.266076	0.049969	57.000000	nontarget	9.000000	na
53.316045	0.049970	57.000000	nontarget	10.000000	na
53.366015	0.050017	57.000000	nontarget	11.000000	na
53.416032	0.049924	57.000000	nontarget	12.000000	na
53.465955	0.050001	57.000000	nontarget	13.000000	na
53.515956	0.050090	57.000000	nontarget	14.000000	na
53.566046	0.050020	57.000000	nontarget	15.000000	na
53.616066	0.050003	57.000000	nontarget	16.000000	53.636201
53.666069	0.050006	58.000000	nontarget	1.000000	53.672613
53.716075	0.049821	58.000000	nontarget	2.000000	na
53.765896	0.050092	58.000000	nontarget	3.000000	na
53.815987	0.049623	58.000000	nontarget	4.000000	na
53.865611	0.050050	58.000000	nontarget	5.000000	na
53.915661	0.050391	58.000000	nontarget	6.000000	na
53.966052	0.049746	58.000000	nontarget	7.000000	na
54.015797	0.049665	58.000000	nontarget	8.000000	na
54.065462	0.050434	58.000000	nontarget	9.000000	na
54.115896	0.050167	58.000000	nontarget	10.000000	na
54.166064	0.049919	58.000000	nontarget	11.000000	na
54.215983	0.049974	58.000000	nontarget	12.000000	na
54.265957	0.049848	58.000000	nontarget	13.000000	na
54.315805	0.050231	58.000000	nontarget	14.000000	na
54.366036	0.050131	58.000000	nontarget	15.000000	na
54.416168	0.049622	58.000000	nontarget	16.000000	na
54.465789	0.049747	59.000000	nontarget	1.000000	54.477124
54.515536	0.050087	59.000000	nontarget	2.000000	na
54.565623	0.049771	59.000000	nontarget	3.000000	na
54.615394	0.050653	59.000000	nontarget	4.000000	na
54.666046	0.049984	59.000000	nontarget	5.000000	na
54.716030	0.049402	59.000000	nontarget	6.000000	na
54.765431	0.049863	59.000000	nontarget	7.000000	na
54.815294	0.050402	59.000000	nontarget	8.000000	na
54.865696	0.050276	59.000000	nontarget	9.000000	na
54.915972	0.049446	59.000000	nontarget	10.000000	na
54.965418	0.050596	59.000000	nontarget	11.000000	na
55.016015	0.050067	59.000000	nontarget	12.000000	na
55.066082	0.048839	59.000000	nontarget	13.000000	na
55.114920	0.051114	59.000000	nontarget	14.000000	na
55.166035	0.050010	59.000000	nontarget	15.000000	na
55.216044	0.049983	59.000000	nontarget	16.000000	na
55.266027	0.049505	60.000000	target	1.000000	na
55.315532	0.049684	60.000000	target	2.000000	na
55.365216	0.050798	60.000000	target	3.000000	na
55.416014	0.049693	60.000000	target	4.000000	na
55.465707	0.050293	60.000000	target	5.000000	na
55.516000	0.049412	60.000000	target	6.000000	na
55.565412	0.050498	60.000000	target	7.000000	na
55.615910	0.050121	60.000000	target	8.000000	na
55.666031	0.049267	60.000000	target	9.000000	na
55.715298	0.050709	60.000000	target	10.000000	na
55.766007	0.050067	60.000000	target	11.000000	na
55.816074	0.049816	60.000000	target	12.000000	na
55.865890	0.050097	60.000000	target	13.000000	na
55.915987	0.049473	60.000000	target	14.000000	na
55.965460	0.050615	60.000000	target	15.000000	na
56.016075	0.049974	60.000000	target	16.000000	na
56.066049	0.048904	61.000000	nontarget	1.000000	56.082234
56.114953	0.051049	61.000000	nontarget	2.000000	na
56.166001	0.050025	61.000000	nontarget	3.000000	na
56.216026	0.050016	61.000000	nontarget	4.000000	na
56.266042	0.049935	61.000000	nontarget	5.000000	na
56.315977	0.050027	61.000000	nontarget	6.000000	na
56.366004	0.049961	61.000000	nontarget	7.000000	na
56.415965	0.049476	61.000000	nontarget	8.000000	na
56.465441	0.050643	61.000000	nontarget	9.000000	na
56.516084	0.049999	61.000000	nontarget	10.000000	na
56.566083	0.049907	61.000000	nontarget	11.000000	na
56.615990	0.049839	61.000000	nontarget	12.000000	na
56.665829	0.050160	61.000000	nontarget	13.000000	na
56.715989	0.049862	61.000000	nontarget	14.000000	na
56.765851	0.050228	61.000000	nontarget	15.000000	na
56.816079	0.050121	61.000000	nontarget	16.000000	na
56.866199	0.049792	62.000000	nontarget	1.000000	na
56.915991	0.049803	62.000000	nontarget	2.000000	56.951602
56.965793	0.050291	62.000000	nontarget	3.000000	na
57.016085	0.049464	62.000000	nontarget	4.000000	na
57.065549	0.050283	62.000000	nontarget	5.000000	na
57.115832	0.049344	62.000000	nontarget	6.000000	na
57.165176	0.050475	62.000000	nontarget	7.000000	na
57.215651	0.049940	62.000000	nontarget	8.000000	na
57.265591	0.050384	62.000000	nontarget	9.000000	na
57.315976	0.049822	62.000000	nontarget	10.000000	na
57.365797	0.049905	62.000000	nontarget	11.000000	na
57.415702	0.049949	62.000000	nontarget	12.000000	na
57.465651	0.050309	62.000000	nontarget	13.000000	na
57.515961	0.050058	62.000000	nontarget	14.000000	na
57.566019	0.049895	62.000000	nontarget	15.000000	na
57.615914	0.049948	62.000000	nontarget	16.000000	na
57.665862	0.050189	63.000000	nontarget	1.000000	na
57.716051	0.049583	63.000000	nontarget	2.000000	na
57.765633	0.050431	63.000000	nontarget	3.000000	57.785479
57.816065	0.049980	63.000000	nontarget	4.000000	na
57.866045	0.050005	63.000000	nontarget	5.000000	na
57.916050	0.049326	63.000000	nontarget	6.000000	na
57.965376	0.050611	63.000000	nontarget	7.000000	na
58.015987	0.049852	63.000000	nontarget	8.000000	na
58.065839	0.050178	63.000000	nontarget	9.000000	na
58.116017	0.050064	63.000000	nontarget	10.000000	na
58.166082	0.048944	63.000000	nontarget	11.000000	na
58.215026	0.050958	63.000000	nontarget	12.000000	na
58.265984	0.049995	63.000000	nontarget	13.000000	na
58.315979	0.049904	63.000000	nontarget	14.000000	na
58.365883	0.050193	63.000000	nontarget	15.000000	na
58.416076	0.049396	63.000000	nontarget	16.000000	na
58.465472	0.050491	64.000000	nontarget	1.000000	na
58.515962	0.049894	64.000000	nontarget	2.000000	na
58.565856	0.050226	64.000000	nontarget	3.000000	na
58.616082	0.049750	64.000000	nontarget	4.000000	na
58.665831	0.049838	64.000000	nontarget	5.000000	na
58.715669	0.049675	64.000000	nontarget	6.000000	na
58.765344	0.050732	64.000000	nontarget	7.000000	58.772089
58.816075	0.050001	64.000000	nontarget	8.000000	na
58.866076	0.049709	64.000000	nontarget	9.000000	na
58.915785	0.050167	64.000000	nontarget	10.000000	na
58.965952	0.050221	64.000000	nontarget	11.000000	na
59.016173	0.049822	64.000000	nontarget	12.000000	na
59.065996	0.050000	64.000000	nontarget	13.000000	na
59.115996	0.049760	64.000000	nontarget	14.000000	na
59.165756	0.050056	64.000000	nontarget	15.000000	na
59.215812	0.049971	64.000000	nontarget	16.000000	na
59.265783	0.049791	65.000000	nontarget	1.000000	na
59.315574	0.049679	65.000000	nontarget	2.000000	na
59.365253	0.050503	65.000000	nontarget	3.000000	na
59.415756	0.049999	65.000000	nontarget	4.000000	na
59.465755	0.050037	65.000000	nontarget	5.000000	na
59.515791	0.049855	65.000000	nontarget	6.000000	na
59.565646	0.049986	65.000000	nontarget	7.000000	na
59.615632	0.049817	65.000000	nontarget	8.000000	na
59.665448	0.050512	65.000000	nontarget	9.000000	na
59.715960	0.049893	65.000000	nontarget	10.000000	59.735193
59.765853	0.050170	65.000000	nontarget	11.000000	na
59.816022	0.049396	65.000000	nontarget	12.000000	na
59.865418	0.050545	65.000000	nontarget	13.000000	na
59.915964	0.049865	65.000000	nontarget	14.000000	na
59.965829	0.050251	65.000000	nontarget	15.000000	na
60.016080	0.049732	65.000000	nontarget	16.000000	na
60.065811	0.049370	66.000000	nontarget	1.000000	na
60.115181	0.051032	66.000000	nontarget	2.000000	na
60.166213	0.049303	66.000000	nontarget	3.000000	na
60.215516	0.050228	66.000000	nontarget	4.000000	na
60.265744	0.050127	66.000000	nontarget	5.000000	na
60.315872	0.049706	66.000000	nontarget	6.000000	na
60.365577	0.049751	66.000000	nontarget	7.000000	na
60.415329	0.050754	66.000000	nontarget	8.000000	na
60.466083	0.049998	66.000000	nontarget	9.000000	na
60.516081	0.049674	66.000000	nontarget	10.000000	na
60.565754	0.050142	66.000000	nontarget	11.000000	na
60.615896	0.050181	66.000000	nontarget	12.000000	na
60.666077	0.049915	66.000000	nontarget	13.000000	na
60.715993	0.051957	66.000000	nontarget	14.000000	na
60.767949	0.048175	66.000000	nontarget	15.000000	60.774370
60.816125	0.050086	66.000000	nontarget	16.000000	na
60.866210	0.049723	67.000000	nontarget	1.000000	60.872774
60.915933	0.050334	67.000000	nontarget	2.000000	na
60.966267	0.049812	67.000000	nontarget	3.000000	na
61.016079	0.050008	67.000000	nontarget	4.000000	na
61.066088	0.049317	67.000000	nontarget	5.000000	na
61.115405	0.050543	67.000000	nontarget	6.000000	na
61.165948	0.050125	67.000000	nontarget	7.000000	na
61.216074	0.049848	67.000000	nontarget	8.000000	na
61.265922	0.050151	67.000000	nontarget	9.000000	na
61.316073	0.049779	67.000000	nontarget	10.000000	na
61.365851	0.049963	67.000000	nontarget	11.000000	na
61.415814	0.049945	67.000000	nontarget	12.000000	na
61.465759	0.050200	67.000000	nontarget	13.000000	na
61.515959	0.049909	67.000000	nontarget	14.000000	na
61.565868	0.049894	67.000000	nontarget	15.000000	na
61.615762	0.050218	67.000000	nontarget	16.000000	na
61.665980	0.050091	68.000000	nontarget	1.000000	61.675618
61.716071	0.049896	68.000000	nontarget	2.000000	na
61.765968	0.049623	68.000000	nontarget	3.000000	na
61.815590	0.050073	68.000000	nontarget	4.000000	na
61.865663	0.049813	68.000000	nontarget	5.000000	na
61.915477	0.050319	68.000000	nontarget	6.000000	na
61.965795	0.049469	68.000000	nontarget	7.000000	na
62.015264	0.050706	68.000000	nontarget	8.000000	na
62.065970	0.050111	68.000000	nontarget	9.000000	na
62.116080	0.049118	68.000000	nontarget	10.000000	na
62.165198	0.050454	68.000000	nontarget	11.000000	na
62.215652	0.049969	68.000000	nontarget	12.000000	na
62.265621	0.050433	68.000000	nontarget	13.000000	na
62.316054	0.049929	68.000000	nontarget	14.000000	na
62.365984	0.049645	68.000000	nontarget	15.000000	na
62.415629	0.050399	68.000000	nontarget	16.000000	na
62.466028	0.049313	69.000000	nontarget	1.000000	na
62.515342	0.049822	69.000000	nontarget	2.000000	62.546610
62.565164	0.050596	69.000000	nontarget	3.000000	na
62.615760	0.050022	69.000000	nontarget	4.000000	na
62.665783	0.050041	69.000000	nontarget	5.000000	na
62.715824	0.049541	69.000000	nontarget	6.000000	na
62.765365	0.050533	69.000000	nontarget	7.000000	na
62.815898	0.049909	69.000000	nontarget	8.000000	na
62.865807	0.050151	69.000000	nontarget	9.000000	na
62.915957	0.049991	69.000000	nontarget	10.000000	na
62.965948	0.049396	69.000000	nontarget	11.000000	na
63.015344	0.050499	69.000000	nontarget	12.000000	na
63.065844	0.050001	69.000000	nontarget	13.000000	na
63.115845	0.049371	69.000000	nontarget	14.000000	na
63.165216	0.050282	69.000000	nontarget	15.000000	na
63.215498	0.050417	69.000000	nontarget	16.000000	na
63.265915	0.049981	70.000000	nontarget	1.000000	na
63.315897	0.049731	70.000000	nontarget	2.000000	na
63.365628	0.050205	70.000000	nontarget	3.000000	na
63.415832	0.050051	70.000000	nontarget	4.000000	na
63.465884	0.049968	70.000000	nontarget	5.000000	na
63.515851	0.050131	70.000000	nontarget	6.000000	na
63.565983	0.049891	70.000000	nontarget	7.000000	na
63.615874	0.049501	70.000000	nontarget	8.000000	na
63.665375	0.049737	70.000000	nontarget	9.000000	na
63.715112	0.050261	70.000000	nontarget	10.000000	63.730183
63.765372	0.050701	70.000000	nontarget	11.000000	na
63.816074	0.049703	70.000000	nontarget	12.000000	na
63.865777	0.049680	70.000000	nontarget	13.000000	na
63.915458	0.050328	70.000000	nontarget	14.000000	na
63.965786	0.050174	70.000000	nontarget	15.000000	na
64.015960	0.049970	70.000000	nontarget	16.000000	na
64.065930	0.049986	71.000000	nontarget	1.000000	na
64.115916	0.049879	71.000000	nontarget	2.000000	na
64.165796	0.050255	71.000000	nontarget	3.000000	na
64.216051	0.049587	71.000000	nontarget	4.000000	na
64.265638	0.050222	71.000000	nontarget	5.000000	na
64.315860	0.050001	71.000000	nontarget	6.000000	na
64.365861	0.049821	71.000000	nontarget	7.000000	na
64.415682	0.050191	71.000000	nontarget	8.000000	na
64.465872	0.049979	71.000000	nontarget	9.000000	na
64.515851	0.049409	71.000000	nontarget	10.000000	na
64.565260	0.050433	71.000000	nontarget	11.000000	na
64.615693	0.050238	71.000000	nontarget	12.000000	na
64.665930	0.050121	71.000000	nontarget	13.000000	na
64.716052	0.049799	71.000000	nontarget	14.000000	na
64.765850	0.049408	71.000000	nontarget	15.000000	na
64.815258	0.049858	71.000000	nontarget	16.000000	na
64.865116	0.050260	72.000000	nontarget	1.000000	64.872659
64.915376	0.050704	72.000000	nontarget	2.000000	na
64.966080	0.049819	72.000000	nontarget	3.000000	na
65.015899	0.050132	72.000000	nontarget	4.000000	na
65.066031	0.049828	72.000000	nontarget	5.000000	na
65.115859	0.049860	72.000000	nontarget	6.000000	na
65.165719	0.050118	72.000000	nontarget	7.000000	na
65.215837	0.049879	72.000000	nontarget	8.000000	na
65.265715	0.049946	72.000000	nontarget	9.000000	na
65.315662	0.050200	72.000000	nontarget	10.000000	na
65.365862	0.049795	72.000000	nontarget	11.000000	na
65.415657	0.049915	72.000000	nontarget	12.000000	na
65.465572	0.050130	72.000000	nontarget	13.000000	na
65.515702	0.050185	72.000000	nontarget	14.000000	na
65.565888	0.049877	72.000000	nontarget	15.000000	na
65.615765	0.049919	72.000000	nontarget	16.000000	na
65.665684	0.050025	73.000000	nontarget	1.000000	na
65.715709	0.050162	73.000000	nontarget	2.000000	na
65.765871	0.050696	73.000000	nontarget	3.000000	na
65.816567	0.048738	73.000000	nontarget	4.000000	65.822292
65.865304	0.050430	73.000000	nontarget	5.000000	na
65.915734	0.050129	73.000000	nontarget	6.000000	na
65.965863	0.049342	73.000000	nontarget	7.000000	na
66.015205	0.050605	73.000000	nontarget	8.000000	na
66.065810	0.050064	73.000000	nontarget	9.000000	na
66.115874	0.050100	73.000000	nontarget	10.000000	na
66.165974	0.049873	73.000000	nontarget	11.000000	na
66.215846	0.049750	73.000000	nontarget	12.000000	na
66.265596	0.050240	73.000000	nontarget	13.000000	na
66.315837	0.049999	73.000000	nontarget	14.000000	na
66.365836	0.050250	73.000000	nontarget	15.000000	na
66.416086	0.049721	73.000000	nontarget	16.000000	na
66.465807	0.050019	74.000000	target	1.000000	na
66.515826	0.050026	74.000000	target	2.000000	na
66.565852	0.049817	74.000000	target	3.000000	na
66.615670	0.049814	74.000000	target	4.000000	na
66.665484	0.050226	74.000000	target	5.000000	na
66.715710	0.050131	74.000000	target	6.000000	na
66.765841	0.050014	74.000000	target	7.000000	na
66.815856	0.049968	74.000000	target	8.000000	na
66.865824	0.049872	74.000000	target	9.000000	na
66.915696	0.050166	74.000000	target	10.000000	na
66.965862	0.050169	74.000000	target	11.000000	na
67.016031	0.049842	74.000000	target	12.000000	na
67.065873	0.050066	74.000000	target	13.000000	na
67.115939	0.049268	74.000000	target	14.000000	67.146849
67.165207	0.050762	74.000000	target	15.000000	na
67.215969	0.049916	74.000000	target	16.000000	na
67.265885	0.049656	75.000000	nontarget	1.000000	67.272478
67.315541	0.050072	75.000000	nontarget	2.000000	na
67.365612	0.049873	75.000000	nontarget	3.000000	na
67.415485	0.050368	75.000000	nontarget	4.000000	na
67.465853	0.049960	75.000000	nontarget	5.000000	na
67.515813	0.050019	75.000000	nontarget	6.000000	na
67.565831	0.050016	75.000000	nontarget	7.000000	na
67.615848	0.049970	75.000000	nontarget	8.000000	na
67.665818	0.049979	75.000000	nontarget	9.000000	na
67.715797	0.050189	75.000000	nontarget	10.000000	na
67.765986	0.049997	75.000000	nontarget	11.000000	na
67.815982	0.048760	75.000000	nontarget	12.000000	na
67.864742	0.051070	75.000000	nontarget	13.000000	na
67.915813	0.050011	75.000000	nontarget	14.000000	na
67.965823	0.049552	75.000000	nontarget	15.000000	67.991628
68.015375	0.049821	75.000000	nontarget	16.000000	na
68.065196	0.050330	76.000000	nontarget	1.000000	68.071769
68.115526	0.049249	76.000000	nontarget	2.000000	na
68.164775	0.050393	76.000000	nontarget	3.000000	na
68.215169	0.050638	76.000000	nontarget	4.000000	na
68.265807	0.049213	76.000000	nontarget	5.000000	na
68.315020	0.050777	76.000000	nontarget	6.000000	na
68.365797	0.050028	76.000000	nontarget	7.000000	na
68.415824	0.049573	76.000000	nontarget	8.000000	na
68.465397	0.050469	76.000000	nontarget	9.000000	na
68.515866	0.049894	76.000000	nontarget	10.000000	na
68.565760	0.049792	76.000000	nontarget	11.000000	na
68.615552	0.050246	76.000000	nontarget	12.000000	na
68.665798	0.049989	76.000000	nontarget	13.000000	na
68.715787	0.050025	76.000000	nontarget	14.000000	na
68.765812	0.049960	76.000000	nontarget	15.000000	na
68.815772	0.049821	76.000000	nontarget	16.000000	na
68.865593	0.050194	77.000000	nontarget	1.000000	na
68.915786	0.049996	77.000000	nontarget	2.000000	na
68.965783	0.049358	77.000000	nontarget	3.000000	na
69.015141	0.050645	77.000000	nontarget	4.000000	69.021783
69.065786	0.050176	77.000000	nontarget	5.000000	na
69.115962	0.049226	77.000000	nontarget	6.000000	na
69.165188	0.050597	77.000000	nontarget	7.000000	na
69.215785	0.049991	77.000000	nontarget	8.000000	na
69.265776	0.050038	77.000000	nontarget	9.000000	na
69.315814	0.049965	77.000000	nontarget	10.000000	na
69.365779	0.050005	77.000000	nontarget	11.000000	na
69.415784	0.049204	77.000000	nontarget	12.000000	na
69.464988	0.050704	77.000000	nontarget	13.000000	na
69.515692	0.050108	77.000000	nontarget	14.000000	na
69.565800	0.049910	77.000000	nontarget	15.000000	na
69.615711	0.049807	77.000000	nontarget	16.000000	na
69.665518	0.050140	78.000000	nontarget	1.000000	na
69.715658	0.049475	78.000000	nontarget	2.000000	na
69.765133	0.050816	78.000000	nontarget	3.000000	na
69.815949	0.049812	78.000000	nontarget	4.000000	na
69.865761	0.049650	78.000000	nontarget	5.000000	na
69.915411	0.049555	78.000000	nontarget	6.000000	na
69.964966	0.050456	78.000000	nontarget	7.000000	na
70.015423	0.050396	78.000000	nontarget	8.000000	na
70.065818	0.049257	78.000000	nontarget	9.000000	70.085455
70.115076	0.050710	78.000000	nontarget	10.000000	na
70.165786	0.050017	78.000000	nontarget	11.000000	na
70.215803	0.049192	78.000000	nontarget	12.000000	na
70.264994	0.050464	78.000000	nontarget	13.000000	na
70.315459	0.049831	78.000000	nontarget	14.000000	na
70.365290	0.050588	78.000000	nontarget	15.000000	na
70.415878	0.049790	78.000000	nontarget	16.000000	na
70.465668	0.049438	79.000000	nontarget	1.000000	na
70.515105	0.050657	79.000000	nontarget	2.000000	na
70.565763	0.049410	79.000000	nontarget	3.000000	na
70.615173	0.050583	79.000000	nontarget	4.000000	na
70.665756	0.049434	79.000000	nontarget	5.000000	na
70.715189	0.050351	79.000000	nontarget	6.000000	na
70.765540	0.050026	79.000000	nontarget	7.000000	na
70.815566	0.049812	79.000000	nontarget	8.000000	na
70.865378	0.050373	79.000000	nontarget	9.000000	na
70.915751	0.049919	79.000000	nontarget	10.000000	na
70.965670	0.050140	79.000000	nontarget	11.000000	na
71.015810	0.049521	79.000000	nontarget	12.000000	na
71.065331	0.049869	79.000000	nontarget	13.000000	na
71.115200	0.049799	79.000000	nontarget	14.000000	71.142633
71.164999	0.050684	79.000000	nontarget	15.000000	na
71.215683	0.049959	79.000000	nontarget	16.000000	na
71.265642	0.050143	80.000000	nontarget	1.000000	71.272179
71.315785	0.049158	80.000000	nontarget	2.000000	na
71.364943	0.050624	80.000000	nontarget	3.000000	na
71.415567	0.050034	80.000000	nontarget	4.000000	na
71.465601	0.050210	80.000000	nontarget	5.000000	na
71.515812	0.049961	80.000000	nontarget	6.000000	na
71.565772	0.050011	80.000000	nontarget	7.000000	na
71.615783	0.050004	80.000000	nontarget	8.000000	na
71.665788	0.050110	80.000000	nontarget	9.000000	na
71.715898	0.049840	80.000000	nontarget	10.000000	na
71.765737	0.050255	80.000000	nontarget	11.000000	na
71.815992	0.049996	80.000000	nontarget	12.000000	na
71.865988	0.049223	80.000000	nontarget	13.000000	na
71.915212	0.050619	80.000000	nontarget	14.000000	na
71.965830	0.050216	80.000000	nontarget	15.000000	na
72.016046	0.049814	80.000000	nontarget	16.000000	72.035778
72.065860	0.049946	81.000000	nontarget	1.000000	72.072441
72.115806	0.049977	81.000000	nontarget	2.000000	na
72.165783	0.050256	81.000000	nontarget	3.000000	na
72.216040	0.049917	81.000000	nontarget	4.000000	na
72.265957	0.049808	81.000000	nontarget	5.000000	na
72.315765	0.049918	81.000000	nontarget	6.000000	na
72.365683	0.049934	81.000000	nontarget	7.000000	na
72.415617	0.050232	81.000000	nontarget	8.000000	na
72.465849	0.050038	81.000000	nontarget	9.000000	na
72.515887	0.049877	81.000000	nontarget	10.000000	na
72.565763	0.049617	81.000000	nontarget	11.000000	na
72.615380	0.050009	81.000000	nontarget	12.000000	na
72.665389	0.050004	81.000000	nontarget	13.000000	na
72.715393	0.050068	81.000000	nontarget	14.000000	na
72.765461	0.050116	81.000000	nontarget	15.000000	na
72.815577	0.050153	81.000000	nontarget	16.000000	na
72.865730	0.049908	82.000000	nontarget	1.000000	72.884930
72.915638	0.049759	82.000000	nontarget	2.000000	na
72.965397	0.050547	82.000000	nontarget	3.000000	na
73.015944	0.049008	82.000000	nontarget	4.000000	na
73.064953	0.050994	82.000000	nontarget	5.000000	na
73.115947	0.049872	82.000000	nontarget	6.000000	na
73.165819	0.049575	82.000000	nontarget	7.000000	na
73.215394	0.049782	82.000000	nontarget	8.000000	na
73.265175	0.049967	82.000000	nontarget	9.000000	na
73.315142	0.050547	82.000000	nontarget	10.000000	na
73.365689	0.050024	82.000000	nontarget	11.000000	na
73.415713	0.049752	82.000000	nontarget	12.000000	na
73.465465	0.050589	82.000000	nontarget	13.000000	na
73.516054	0.049655	82.000000	nontarget	14.000000	na
73.565709	0.050006	82.000000	nontarget	15.000000	na
73.615716	0.050220	82.000000	nontarget	16.000000	na
73.665936	0.049961	83.000000	nontarget	1.000000	na
73.715897	0.050048	83.000000	nontarget	2.000000	na
73.765945	0.049596	83.000000	nontarget	3.000000	na
73.815541	0.050166	83.000000	nontarget	4.000000	na
73.865707	0.050775	83.000000	nontarget	5.000000	na
73.916482	0.049177	83.000000	nontarget	6.000000	73.922001
73.965659	0.049951	83.000000	nontarget	7.000000	na
74.015610	0.050159	83.000000	nontarget	8.000000	na
74.065769	0.050285	83.000000	nontarget	9.000000	na
74.116054	0.050028	83.000000	nontarget	10.000000	na
74.166082	0.049775	83.000000	nontarget	11.000000	na
74.215857	0.049720	83.000000	nontarget	12.000000	na
74.265578	0.050332	83.000000	nontarget	13.000000	na
74.315910	0.049945	83.000000	nontarget	14.000000	na
74.365855	0.049703	83.000000	nontarget	15.000000	na
74.415558	0.049928	83.000000	nontarget	16.000000	na
74.465487	0.050195	84.000000	nontarget	1.000000	na
74.515682	0.049231	84.000000	nontarget	2.000000	na
74.564912	0.050805	84.000000	nontarget	3.000000	na
74.615718	0.049981	84.000000	nontarget	4.000000	na
74.665699	0.049835	84.000000	nontarget	5.000000	na
74.715534	0.050346	84.000000	nontarget	6.000000	na
74.765880	0.049329	84.000000	nontarget	7.000000	na
74.815209	0.050468	84.000000	nontarget	8.000000	na
74.865677	0.050199	84.000000	nontarget	9.000000	na
74.915876	0.049854	84.000000	nontarget	10.000000	na
74.965729	0.052184	84.000000	nontarget	11.000000	na
75.017913	0.047207	84.000000	nontarget	12.000000	75.023431
75.065120	0.050346	84.000000	nontarget	13.000000	na
75.115466	0.050320	84.000000	nontarget	14.000000	na
75.165786	0.049639	84.000000	nontarget	15.000000	na
75.215425	0.050657	84.000000	nontarget	16.000000	na
75.266082	0.049764	85.000000	nontarget	1.000000	na
75.315846	0.049850	85.000000	nontarget	2.000000	na
75.365697	0.049729	85.000000	nontarget	3.000000	na
75.415426	0.050281	85.000000	nontarget	4.000000	na
75.465707	0.049973	85.000000	nontarget	5.000000	na
75.515680	0.049998	85.000000	nontarget	6.000000	na
75.565678	0.049949	85.000000	nontarget	7.000000	na
75.615627	0.049980	85.000000	nontarget	8.000000	na
75.665606	0.050281	85.000000	nontarget	9.000000	na
75.715887	0.049731	85.000000	nontarget	10.000000	na
75.765618	0.049705	85.000000	nontarget	11.000000	na
75.815323	0.050373	85.000000	nontarget	12.000000	na
75.865696	0.050271	85.000000	nontarget	13.000000	na
75.915968	0.049281	85.000000	nontarget	14.000000	na
75.965248	0.050443	85.000000	nontarget	15.000000	na
76.015692	0.050066	85.000000	nontarget	16.000000	na
76.065758	0.050290	86.000000	target	1.000000	na
76.116048	0.049662	86.000000	target	2.000000	na
76.165710	0.049921	86.000000	target	3.000000	na
76.215632	0.050362	86.000000	target	4.000000	na
76.265993	0.049939	86.000000	target	5.000000	na
76.315933	0.049831	86.000000	target	6.000000	na
76.365764	0.049917	86.000000	target	7.000000	na
76.415680	0.049850	86.000000	target	8.000000	na
76.465530	0.050035	86.000000	target	9.000000	na
76.515565	0.050119	86.000000	target	10.000000	na
76.565685	0.049922	86.000000	target	11.000000	na
76.615606	0.050088	86.000000	target	12.000000	na
76.665694	0.049987	86.000000	target	13.000000	na
76.715681	0.049311	86.000000	target	14.000000	na
76.764992	0.050420	86.000000	target	15.000000	na
76.815412	0.050339	86.000000	target	16.000000	76.843516
76.865751	0.049570	87.000000	nontarget	1.000000	76.872365
76.915321	0.049962	87.000000	nontarget	2.000000	na
76.965284	0.050390	87.000000	nontarget	3.000000	na
77.015674	0.050052	87.000000	nontarget	4.000000	na
77.065725	0.050063	87.000000	nontarget	5.000000	na
77.115788	0.050009	87.000000	nontarget	6.000000	na
77.165797	0.049728	87.000000	nontarget	7.000000	na
77.215525	0.050144	87.000000	nontarget	8.000000	na
77.265669	0.049946	87.000000	nontarget	9.000000	na
77.315614	0.049899	87.000000	nontarget	10.000000	na
77.365513	0.049848	87.000000	nontarget	11.000000	na
77.415361	0.049635	87.000000	nontarget	12.000000	na
77.464996	0.050880	87.000000	nontarget	13.000000	na
77.515875	0.049960	87.000000	nontarget	14.000000	na
77.565835	0.049653	87.000000	nontarget	15.000000	na
77.615489	0.049860	87.000000	nontarget	16.000000	na
77.665348	0.050358	88.000000	nontarget	1.000000	na
77.715707	0.049960	88.000000	nontarget	2.000000	na
77.765667	0.049997	88.000000	nontarget	3.000000	na
77.815664	0.050130	88.000000	nontarget	4.000000	na
77.865794	0.049865	88.000000	nontarget	5.000000	na
77.915659	0.052469	88.000000	nontarget	6.000000	na
77.968128	0.047313	88.000000	nontarget	7.000000	77.973923
78.015442	0.050268	88.000000	nontarget	8.000000	na
78.065710	0.050045	88.000000	nontarget	9.000000	na
78.115755	0.049555	88.000000	nontarget	10.000000	na
78.165311	0.049834	88.000000	nontarget	11.000000	na
78.215145	0.050567	88.000000	nontarget	12.000000	na
78.265712	0.049925	88.000000	nontarget	13.000000	na
78.315637	0.050051	88.000000	nontarget	14.000000	na
78.365688	0.049950	88.000000	nontarget	15.000000	na
78.415638	0.049322	88.000000	nontarget	16.000000	na
78.464960	0.050878	89.000000	nontarget	1.000000	na
78.515837	0.049633	89.000000	nontarget	2.000000	na
78.565470	0.050156	89.000000	nontarget	3.000000	na
78.615626	0.050027	89.000000	nontarget	4.000000	na
78.665654	0.050007	89.000000	nontarget	5.000000	na
78.715661	0.050014	89.000000	nontarget	6.000000	na
78.765675	0.049848	89.000000	nontarget	7.000000	na
78.815522	0.050126	89.000000	nontarget	8.000000	na
78.865648	0.049560	89.000000	nontarget	9.000000	na
78.915208	0.050281	89.000000	nontarget	10.000000	na
78.965489	0.049456	89.000000	nontarget	11.000000	na
79.014945	0.050904	89.000000	nontarget	12.000000	79.047629
79.065849	0.049845	89.000000	nontarget	13.000000	na
79.115694	0.050110	89.000000	nontarget	14.000000	na
79.165805	0.049844	89.000000	nontarget	15.000000	na
79.215648	0.050104	89.000000	nontarget	16.000000	na
79.265753	0.049873	90.000000	nontarget	1.000000	na
79.315626	0.050039	90.000000	nontarget	2.000000	na
79.365665	0.049925	90.000000	nontarget	3.000000	na
79.415590	0.050055	90.000000	nontarget	4.000000	na
79.465645	0.049946	90.000000	nontarget	5.000000	na
79.515591	0.049767	90.000000	nontarget	6.000000	na
79.565358	0.050130	90.000000	nontarget	7.000000	na
79.615488	0.050172	90.000000	nontarget	8.000000	na
79.665659	0.049978	90.000000	nontarget	9.000000	na
79.715637	0.049857	90.000000	nontarget	10.000000	na
79.765494	0.050321	90.000000	nontarget	11.000000	na
79.815815	0.049753	90.000000	nontarget	12.000000	na
79.865567	0.049888	90.000000	nontarget	13.000000	na
79.915455	0.050221	90.000000	nontarget	14.000000	79.931175
79.965676	0.050180	90.000000	nontarget	15.000000	na
80.015856	0.049793	90.000000	nontarget	16.000000	na
80.065650	0.049307	91.000000	nontarget	1.000000	80.072234
80.114957	0.050527	91.000000	nontarget	2.000000	na
80.165483	0.050211	91.000000	nontarget	3.000000	na
80.215694	0.049430	91.000000	nontarget	4.000000	na
80.265125	0.050033	91.000000	nontarget	5.000000	na
80.315157	0.050653	91.000000	nontarget	6.000000	na
80.365810	0.049779	91.000000	nontarget	7.000000	na
80.415589	0.050057	91.000000	nontarget	8.000000	na
80.465646	0.049832	91.000000	nontarget	9.000000	na
80.515478	0.049918	91.000000	nontarget	10.000000	na
80.565396	0.049411	91.000000	nontarget	11.000000	na
80.614807	0.050741	91.000000	nontarget	12.000000	na
80.665548	0.050035	91.000000	nontarget	13.000000	na
80.715583	0.050042	91.000000	nontarget	14.000000	na
80.765624	0.050068	91.000000	nontarget	15.000000	na
80.815693	0.049943	91.000000	nontarget	16.000000	na
80.865635	0.049790	92.000000	nontarget	1.000000	80.872262
80.915425	0.050304	92.000000	nontarget	2.000000	na
80.965729	0.049930	92.000000	nontarget	3.000000	na
81.015659	0.049750	92.000000	nontarget	4.000000	na
81.065409	0.050355	92.000000	nontarget	5.000000	na
81.115764	0.049838	92.000000	nontarget	6.000000	na
81.165602	0.050022	92.000000	nontarget	7.000000	na
81.215624	0.049238	92.000000	nontarget	8.000000	na
81.264862	0.050023	92.000000	nontarget	9.000000	na
81.314886	0.050716	92.000000	nontarget	10.000000	na
81.365601	0.049270	92.000000	nontarget	11.000000	na
81.414871	0.050723	92.000000	nontarget	12.000000	na
81.465594	0.050038	92.000000	nontarget	13.000000	na
81.515632	0.049653	92.000000	nontarget	14.000000	na
81.565285	0.050319	92.000000	nontarget	15.000000	na
81.615604	0.050192	92.000000	nontarget	16.000000	na
81.665795	0.049899	93.000000	nontarget	1.000000	81.672472
81.715694	0.049635	93.000000	nontarget	2.000000	na
81.765329	0.049895	93.000000	nontarget	3.000000	na
81.815224	0.050379	93.000000	nontarget	4.000000	na
81.865603	0.049950	93.000000	nontarget	5.000000	na
81.915553	0.050131	93.000000	nontarget	6.000000	na
81.965684	0.049275	93.000000	nontarget	7.000000	na
82.014959	0.050717	93.000000	nontarget	8.000000	na
82.065676	0.049957	93.000000	nontarget	9.000000	na
82.115633	0.049949	93.000000	nontarget	10.000000	na
82.165582	0.050033	93.000000	nontarget	11.000000	na
82.215615	0.049255	93.000000	nontarget	12.000000	na
82.264871	0.050340	93.000000	nontarget	13.000000	na
82.315210	0.049953	93.000000	nontarget	14.000000	na
82.365164	0.050519	93.000000	nontarget	15.000000	na
82.415683	0.049851	93.000000	nontarget	16.000000	na
82.465534	0.049911	94.000000	nontarget	1.000000	na
82.515445	0.050382	94.000000	nontarget	2.000000	na
82.565826	0.049983	94.000000	nontarget	3.000000	82.588784
82.615809	0.049831	94.000000	nontarget	4.000000	na
82.665640	0.049864	94.000000	nontarget	5.000000	na
82.715504	0.050078	94.000000	nontarget	6.000000	na
82.765582	0.049374	94.000000	nontarget	7.000000	na
82.814956	0.049864	94.000000	nontarget	8.000000	na
82.864820	0.050034	94.000000	nontarget	9.000000	na
82.914854	0.050710	94.000000	nontarget	10.000000	na
82.965563	0.050127	94.000000	nontarget	11.000000	na
83.015690	0.049922	94.000000	nontarget	12.000000	na
83.065612	0.049845	94.000000	nontarget	13.000000	na
83.115457	0.050251	94.000000	nontarget	14.000000	na
83.165708	0.049870	94.000000	nontarget	15.000000	na
83.215578	0.049797	94.000000	nontarget	16.000000	na
83.265375	0.049822	95.000000	nontarget	1.000000	na
83.315198	0.050362	95.000000	nontarget	2.000000	na
83.365560	0.050001	95.000000	nontarget	3.000000	na
83.415561	0.050018	95.000000	nontarget	4.000000	na
83.465579	0.049968	95.000000	nontarget	5.000000	na
83.515548	0.049967	95.000000	nontarget	6.000000	na
83.565514	0.050102	95.000000	nontarget	7.000000	na
83.615616	0.049982	95.000000	nontarget	8.000000	83.621025
83.665598	0.050081	95.000000	nontarget	9.000000	na
83.715680	0.049836	95.000000	nontarget	10.000000	na
83.765515	0.049546	95.000000	nontarget	11.000000	na
83.815061	0.050434	95.000000	nontarget	12.000000	na
83.865495	0.050059	95.000000	nontarget	13.000000	na
83.915554	0.049972	95.000000	nontarget	14.000000	na
83.965526	0.050208	95.000000	nontarget	15.000000	na
84.015734	0.049983	95.000000	nontarget	16.000000	na
84.065718	0.049867	96.000000	nontarget	1.000000	na
84.115585	0.049943	96.000000	nontarget	2.000000	na
84.165528	0.049977	96.000000	nontarget	3.000000	na
84.215505	0.050019	96.000000	nontarget	4.000000	na
84.265524	0.050130	96.000000	nontarget	5.000000	na
84.315654	0.049840	96.000000	nontarget	6.000000	na
84.365494	0.050270	96.000000	nontarget	7.000000	na
84.415764	0.049709	96.000000	nontarget	8.000000	na
84.465474	0.050153	96.000000	nontarget	9.000000	na
84.515626	0.049497	96.000000	nontarget	10.000000	na
84.565124	0.050570	96.000000	nontarget	11.000000	na
84.615694	0.049124	96.000000	nontarget	12.000000	na
84.664818	0.050707	96.000000	nontarget	13.000000	na
84.715525	0.050043	96.000000	nontarget	14.000000	na
84.765569	0.049917	96.000000	nontarget	15.000000	na
84.815486	0.049922	96.000000	nontarget	16.000000	84.836440
84.865408	0.049357	97.000000	nontarget	1.000000	84.872052
84.914765	0.050804	97.000000	nontarget	2.000000	na
84.965569	0.049235	97.000000	nontarget	3.000000	na
85.014804	0.050846	97.000000	nontarget	4.000000	na
85.065650	0.049847	97.000000	nontarget	5.000000	na
85.115497	0.049862	97.000000	nontarget	6.000000	na
85.165359	0.050172	97.000000	nontarget	7.000000	na
85.215531	0.049985	97.000000	nontarget	8.000000	na
85.265516	0.050002	97.000000	nontarget	9.000000	na
85.315519	0.050008	97.000000	nontarget	10.000000	na
85.365526	0.049990	97.000000	nontarget	11.000000	na
85.415516	0.049922	97.000000	nontarget	12.000000	na
85.465438	0.050033	97.000000	nontarget	13.000000	na
85.515471	0.049938	97.000000	nontarget	14.000000	na
85.565410	0.050281	97.000000	nontarget	15.000000	na
85.615691	0.049286	97.000000	nontarget	16.000000	na
85.664976	0.051899	98.000000	nontarget	1.000000	na
85.716876	0.048543	98.000000	nontarget	2.000000	85.723393
85.765419	0.050337	98.000000	nontarget	3.000000	na
85.815756	0.049770	98.000000	nontarget	4.000000	na
85.865525	0.049942	98.000000	nontarget	5.000000	na
85.915468	0.050027	98.000000	nontarget	6.000000	na
85.965494	0.049813	98.000000	nontarget	7.000000	na
86.015308	0.050254	98.000000	nontarget	8.000000	na
86.065561	0.049968	98.000000	nontarget	9.000000	na
86.115529	0.049883	98.000000	nontarget	10.000000	na
86.165413	0.049554	98.000000	nontarget	11.000000	na
86.214967	0.050546	98.000000	nontarget	12.000000	na
86.265513	0.049968	98.000000	nontarget	13.000000	na
86.315480	0.049880	98.000000	nontarget	14.000000	na
86.365361	0.050229	98.000000	nontarget	15.000000	na
86.415589	0.049894	98.000000	nontarget	16.000000	na
86.465484	0.049963	99.000000	nontarget	1.000000	na
86.515446	0.049715	99.000000	nontarget	2.000000	na
86.565161	0.050435	99.000000	nontarget	3.000000	86.588828
86.615597	0.049356	99.000000	nontarget	4.000000	na
86.664952	0.050537	99.000000	nontarget	5.000000	na
86.715490	0.049214	99.000000	nontarget	6.000000	na
86.764703	0.050726	99.000000	nontarget	7.000000	na
86.815429	0.050061	99.000000	nontarget	8.000000	na
86.865490	0.050006	99.000000	nontarget	9.000000	na
86.915496	0.049900	99.000000	nontarget	10.000000	na
86.965397	0.050150	99.000000	nontarget	11.000000	na
87.015547	0.050333	99.000000	nontarget	12.000000	na
87.065880	0.049826	99.000000	nontarget	13.000000	na
87.115706	0.049791	99.000000	nontarget	14.000000	na
87.165497	0.049550	99.000000	nontarget	15.000000	na
87.215047	0.050715	99.000000	nontarget	16.000000	na
87.265762	0.050036	100.000000	nontarget	1.000000	na
87.315798	0.049867	100.000000	nontarget	2.000000	na
87.365665	0.049736	100.000000	nontarget	3.000000	na
87.415402	0.049696	100.000000	nontarget	4.000000	na
87.465098	0.050327	100.000000	nontarget	5.000000	na
87.515425	0.050189	100.000000	nontarget	6.000000	na
87.565614	0.050012	100.000000	nontarget	7.000000	87.572281
87.615627	0.049736	100.000000	nontarget	8.000000	na
87.665362	0.050148	100.000000	nontarget	9.000000	na
87.715510	0.050003	100.000000	nontarget	10.000000	na
87.765513	0.050144	100.000000	nontarget	11.000000	na
87.815657	0.049252	100.000000	nontarget	12.000000	na
87.864909	0.050609	100.000000	nontarget	13.000000	na
87.915518	0.050260	100.000000	nontarget	14.000000	na
87.965779	0.050103	100.000000	nontarget	15.000000	na
88.015882	0.049750	100.000000	nontarget	16.000000	na
88.065631	0.050218	101.000000	nontarget	1.000000	na
88.115849	0.049750	101.000000	nontarget	2.000000	na
88.165599	0.050402	101.000000	nontarget	3.000000	na
88.216001	0.048695	101.000000	nontarget	4.000000	na
88.264696	0.050789	101.000000	nontarget	5.000000	na
88.315485	0.049537	101.000000	nontarget	6.000000	na
88.365022	0.050761	101.000000	nontarget	7.000000	na
88.415782	0.049149	101.000000	nontarget	8.000000	na
88.464931	0.050425	101.000000	nontarget	9.000000	na
88.515356	0.050496	101.000000	nontarget	10.000000	88.524278
88.565852	0.049972	101.000000	nontarget	11.000000	na
88.615823	0.049663	101.000000	nontarget	12.000000	na
88.665486	0.050248	101.000000	nontarget	13.000000	na
88.715734	0.049756	101.000000	nontarget	14.000000	na
88.765489	0.050003	101.000000	nontarget	15.000000	na
88.815492	0.049607	101.000000	nontarget	16.000000	na
88.865099	0.050747	102.000000	nontarget	1.000000	na
88.915846	0.049924	102.000000	nontarget	2.000000	na
88.965771	0.049514	102.000000	nontarget	3.000000	na
89.015285	0.050494	102.000000	nontarget	4.000000	na
89.065779	0.049746	102.000000	nontarget	5.000000	na
89.115525	0.049546	102.000000	nontarget	6.000000	na
89.165071	0.050414	102.000000	nontarget	7.000000	na
89.215485	0.050004	102.000000	nontarget	8.000000	na
89.265489	0.049911	102.000000	nontarget	9.000000	na
89.315400	0.050093	102.000000	nontarget	10.000000	na
89.365492	0.050250	102.000000	nontarget	11.000000	89.380985
89.415742	0.049779	102.000000	nontarget	12.000000	na
89.465521	0.049965	102.000000	nontarget	13.000000	na
89.515487	0.050135	102.000000	nontarget	14.000000	na
89.565621	0.050154	102.000000	nontarget	15.000000	na
89.615775	0.049443	102.000000	nontarget	16.000000	na
89.665218	0.049758	103.000000	nontarget	1.000000	na
89.714976	0.050509	103.000000	nontarget	2.000000	na
89.765485	0.050007	103.000000	nontarget	3.000000	na
89.815492	0.049976	103.000000	nontarget	4.000000	na
89.865468	0.050185	103.000000	nontarget	5.000000	na
89.915653	0.049834	103.000000	nontarget	6.000000	na
89.965487	0.050112	103.000000	nontarget	7.000000	na
90.015600	0.049457	103.000000	nontarget	8.000000	na
90.065057	0.050723	103.000000	nontarget	9.000000	na
90.115780	0.049710	103.000000	nontarget	10.000000	na
90.165490	0.049851	103.000000	nontarget	11.000000	na
90.215341	0.049651	103.000000	nontarget	12.000000	na
90.264991	0.050673	103.000000	nontarget	13.000000	na
90.315664	0.049862	103.000000	nontarget	14.000000	na
90.365526	0.050053	103.000000	nontarget	15.000000	na
90.415579	0.049616	103.000000	nontarget	16.000000	90.446489
90.465195	0.049761	104.000000	nontarget	1.000000	90.471806
90.514956	0.050578	104.000000	nontarget	2.000000	na
90.565534	0.049966	104.000000	nontarget	3.000000	na
90.615500	0.049871	104.000000	nontarget	4.000000	na
90.665371	0.050096	104.000000	nontarget	5.000000	na
90.715467	0.049537	104.000000	nontarget	6.000000	na
90.765004	0.050601	104.000000	nontarget	7.000000	na
90.815605	0.049776	104.000000	nontarget	8.000000	na
90.865381	0.050403	104.000000	nontarget	9.000000	na
90.915784	0.049812	104.000000	nontarget	10.000000	na
90.965596	0.049327	104.000000	nontarget	11.000000	na
91.014924	0.050569	104.000000	nontarget	12.000000	na
91.065493	0.050113	104.000000	nontarget	13.000000	na
91.115605	0.049528	104.000000	nontarget	14.000000	na
91.165133	0.050580	104.000000	nontarget	15.000000	na
91.215713	0.049664	104.000000	nontarget	16.000000	na
91.265377	0.050425	105.000000	nontarget	1.000000	na
91.315802	0.049771	105.000000	nontarget	2.000000	na
91.365573	0.049871	105.000000	nontarget	3.000000	na
91.415444	0.050017	105.000000	nontarget	4.000000	na
91.465462	0.050061	105.000000	nontarget	5.000000	na
91.515522	0.049688	105.000000	nontarget	6.000000	91.547157
91.565211	0.050247	105.000000	nontarget	7.000000	na
91.615457	0.049945	105.000000	nontarget	8.000000	na
91.665403	0.050047	105.000000	nontarget	9.000000	na
91.715450	0.049518	105.000000	nontarget	10.000000	na
91.764967	0.049614	105.000000	nontarget	11.000000	na
91.814582	0.050880	105.000000	nontarget	12.000000	na
91.865462	0.049995	105.000000	nontarget	13.000000	na
91.915457	0.050143	105.000000	nontarget	14.000000	na
91.965601	0.049082	105.000000	nontarget	15.000000	na
92.014683	0.050227	105.000000	nontarget	16.000000	na
92.064911	0.050742	106.000000	nontarget	1.000000	na
92.115652	0.049779	106.000000	nontarget	2.000000	na
92.165431	0.050229	106.000000	nontarget	3.000000	na
92.215660	0.049732	106.000000	nontarget	4.000000	na
92.265393	0.049570	106.000000	nontarget	5.000000	na
92.314962	0.050692	106.000000	nontarget	6.000000	na
92.365654	0.049715	106.000000	nontarget	7.000000	92.372373
92.415369	0.050051	106.000000	nontarget	8.000000	na
92.465420	0.049594	106.000000	nontarget	9.000000	na
92.515014	0.050428	106.000000	nontarget	10.000000	na
92.565442	0.050009	106.000000	nontarget	11.000000	na
92.615451	0.050000	106.000000	nontarget	12.000000	na
92.665451	0.049990	106.000000	nontarget	13.000000	na
92.715441	0.050011	106.000000	nontarget	14.000000	na
92.765452	0.049488	106.000000	nontarget	15.000000	na
92.814940	0.050496	106.000000	nontarget	16.000000	na
92.865436	0.049411	107.000000	target	1.000000	na
92.914847	0.050464	107.000000	target	2.000000	na
92.965310	0.050252	107.000000	target	3.000000	na
93.015562	0.049505	107.000000	target	4.000000	na
93.065067	0.050390	107.000000	target	5.000000	na
93.115457	0.049777	107.000000	target	6.000000	na
93.165234	0.050403	107.000000	target	7.000000	na
93.215637	0.049196	107.000000	target	8.000000	na
93.264833	0.049848	107.000000	target	9.000000	na
93.314680	0.050758	107.000000	target	10.000000	na
93.365438	0.050066	107.000000	target	11.000000	na
93.415504	0.050017	107.000000	target	12.000000	na
93.465522	0.049684	107.000000	target	13.000000	na
93.515206	0.049805	107.000000	target	14.000000	na
93.565011	0.050530	107.000000	target	15.000000	na
93.615541	0.049886	107.000000	target	16.000000	na
93.665427	0.049938	108.000000	nontarget	1.000000	na
93.715365	0.049337	108.000000	nontarget	2.000000	na
93.764702	0.050725	108.000000	nontarget	3.000000	na
93.815427	0.049981	108.000000	nontarget	4.000000	na
93.865408	0.042388	108.000000	nontarget	5.000000	93.897041
93.907796	0.040221	108.000000	nontarget	6.000000	na
93.948017	0.050181	108.000000	nontarget	7.000000	na
93.998198	0.050497	108.000000	nontarget	8.000000	na
94.048695	0.050106	108.000000	nontarget	9.000000	na
94.098801	0.049808	108.000000	nontarget	10.000000	na
94.148609	0.049799	108.000000	nontarget	11.000000	na
94.198408	0.050444	108.000000	nontarget	12.000000	na
94.248853	0.049163	108.000000	nontarget	13.000000	na
94.298015	0.050764	108.000000	nontarget	14.000000	na
94.348779	0.049894	108.000000	nontarget	15.000000	na
94.398673	0.050021	108.000000	nontarget	16.000000	na
94.448693	0.049099	109.000000	nontarget	1.000000	na
94.497792	0.050556	109.000000	nontarget	2.000000	na
94.548348	0.049978	109.000000	nontarget	3.000000	na
94.598326	0.050623	109.000000	nontarget	4.000000	na
94.648950	0.049929	109.000000	nontarget	5.000000	na
94.698879	0.049762	109.000000	nontarget	6.000000	na
94.748641	0.050347	109.000000	nontarget	7.000000	94.775659
94.798988	0.049674	109.000000	nontarget	8.000000	na
94.848661	0.050281	109.000000	nontarget	9.000000	na
94.898942	0.049784	109.000000	nontarget	10.000000	na
94.948726	0.049889	109.000000	nontarget	11.000000	na
94.998615	0.050182	109.000000	nontarget	12.000000	na
95.048797	0.049978	109.000000	nontarget	13.000000	na
95.098774	0.049968	109.000000	nontarget	14.000000	na
95.148743	0.050073	109.000000	nontarget	15.000000	na
95.198816	0.049344	109.000000	nontarget	16.000000	na
95.248160	0.050583	110.000000	nontarget	1.000000	na
95.298742	0.049966	110.000000	nontarget	2.000000	na
95.348708	0.050132	110.000000	nontarget	3.000000	na
95.398840	0.049842	110.000000	nontarget	4.000000	na
95.448682	0.049735	110.000000	nontarget	5.000000	na
95.498417	0.050309	110.000000	nontarget	6.000000	na
95.548726	0.049506	110.000000	nontarget	7.000000	na
95.598231	0.050370	110.000000	nontarget	8.000000	na
95.648602	0.050259	110.000000	nontarget	9.000000	na
95.698861	0.049597	110.000000	nontarget	10.000000	na
95.748458	0.050273	110.000000	nontarget	11.000000	na
95.798731	0.049992	110.000000	nontarget	12.000000	na
95.848724	0.050000	110.000000	nontarget	13.000000	na
95.898723	0.053238	110.000000	nontarget	14.000000	na
95.951961	0.046198	110.000000	nontarget	15.000000	95.958622
95.998159	0.050611	110.000000	nontarget	16.000000	na
96.048770	0.049821	111.000000	nontarget	1.000000	96.055387
96.098590	0.049666	111.000000	nontarget	2.000000	na
96.148256	0.050561	111.000000	nontarget	3.000000	na
96.198817	0.049773	111.000000	nontarget	4.000000	na
96.248590	0.050134	111.000000	nontarget	5.000000	na
96.298724	0.050011	111.000000	nontarget	6.000000	na
96.348734	0.050008	111.000000	nontarget	7.000000	na
96.398742	0.049972	111.000000	nontarget	8.000000	na
96.448714	0.049921	111.000000	nontarget	9.000000	na
96.498635	0.049484	111.000000	nontarget	10.000000	na
96.548119	0.050158	111.000000	nontarget	11.000000	na
96.598277	0.050033	111.000000	nontarget	12.000000	na
96.648310	0.050639	111.000000	nontarget	13.000000	na
96.698949	0.049789	111.000000	nontarget	14.000000	na
96.748738	0.049749	111.000000	nontarget	15.000000	na
96.798487	0.050226	111.000000	nontarget	16.000000	na
96.848713	0.049996	112.000000	nontarget	1.000000	na
96.898709	0.049846	112.000000	nontarget	2.000000	na
96.948555	0.049016	112.000000	nontarget	3.000000	96.959782
96.997572	0.051168	112.000000	nontarget	4.000000	na
97.048740	0.049435	112.000000	nontarget	5.000000	na
97.098175	0.050712	112.000000	nontarget	6.000000	na
97.148887	0.049896	112.000000	nontarget	7.000000	na
97.198782	0.050306	112.000000	nontarget	8.000000	na
97.249089	0.049610	112.000000	nontarget	9.000000	na
97.298699	0.049435	112.000000	nontarget	10.000000	na
97.348134	0.050537	112.000000	nontarget	11.000000	na
97.398671	0.050053	112.000000	nontarget	12.000000	na
97.448724	0.049744	112.000000	nontarget	13.000000	na
97.498467	0.049562	112.000000	nontarget	14.000000	na
97.548029	0.050785	112.000000	nontarget	15.000000	na
97.598814	0.049868	112.000000	nontarget	16.000000	na
97.648683	0.049854	113.000000	nontarget	1.000000	na
97.698537	0.050509	113.000000	nontarget	2.000000	na
97.749046	0.049645	113.000000	nontarget	3.000000	na
97.798691	0.049984	113.000000	nontarget	4.000000	na
97.848675	0.050093	113.000000	nontarget	5.000000	na
97.898768	0.049930	113.000000	nontarget	6.000000	na
97.948699	0.049347	113.000000	nontarget	7.000000	na
97.998045	0.050797	113.000000	nontarget	8.000000	98.005490
98.048842	0.049695	113.000000	nontarget	9.000000	na
98.098538	0.050155	113.000000	nontarget	10.000000	na
98.148693	0.049538	113.000000	nontarget	11.000000	na
98.198231	0.050614	113.000000	nontarget	12.000000	na
98.248845	0.050119	113.000000	nontarget	13.000000	na
98.298964	0.049748	113.000000	nontarget	14.000000	na
98.348712	0.049808	113.000000	nontarget	15.000000	na
98.398520	0.050165	113.000000	nontarget	16.000000	na
98.448685	0.049486	114.000000	nontarget	1.000000	na
98.498171	0.050565	114.000000	nontarget	2.000000	na
98.548736	0.049889	114.000000	nontarget	3.000000	na
98.598625	0.050144	114.000000	nontarget	4.000000	na
98.648770	0.050135	114.000000	nontarget	5.000000	na
98.698905	0.049794	114.000000	nontarget	6.000000	na
98.748699	0.049572	114.000000	nontarget	7.000000	na
98.798271	0.049569	114.000000	nontarget	8.000000	na
98.847840	0.051065	114.000000	nontarget	9.000000	98.856580
98.898905	0.050135	114.000000	nontarget	10.000000	na
98.949039	0.049456	114.000000	nontarget	11.000000	na
98.998495	0.049991	114.000000	nontarget	12.000000	na
99.048486	0.050235	114.000000	nontarget	13.000000	na
99.098721	0.050162	114.000000	nontarget	14.000000	na
99.148883	0.049805	114.000000	nontarget	15.000000	na
99.198688	0.049505	114.000000	nontarget	16.000000	na
99.248194	0.050180	115.000000	nontarget	1.000000	na
99.298374	0.049743	115.000000	nontarget	2.000000	na
99.348117	0.050691	115.000000	nontarget	3.000000	na
99.398808	0.050098	115.000000	nontarget	4.000000	na
99.448906	0.049641	115.000000	nontarget	5.000000	na
99.498547	0.050405	115.000000	nontarget	6.000000	na
99.548953	0.049278	115.000000	nontarget	7.000000	na
99.598231	0.050571	115.000000	nontarget	8.000000	na
99.648802	0.049866	115.000000	nontarget	9.000000	na
99.698668	0.049417	115.000000	nontarget	10.000000	na
99.748085	0.050332	115.000000	nontarget	11.000000	na
99.798418	0.049702	115.000000	nontarget	12.000000	na
99.848119	0.050568	115.000000	nontarget	13.000000	na
99.898687	0.050192	115.000000	nontarget	14.000000	na
99.948879	0.050055	115.000000	nontarget	15.000000	99.971589
99.998935	0.049675	115.000000	nontarget	16.000000	na
100.048610	0.050255	116.000000	nontarget	1.000000	100.055187
100.098865	0.049167	116.000000	nontarget	2.000000	na
100.148032	0.050975	116.000000	nontarget	3.000000	na
100.199006	0.049986	116.000000	nontarget	4.000000	na
100.248993	0.049766	116.000000	nontarget	5.000000	na
100.298758	0.049965	116.000000	nontarget	6.000000	na
100.348724	0.049838	116.000000	nontarget	7.000000	na
100.398562	0.050114	116.000000	nontarget	8.000000	na
100.448676	0.049683	116.000000	nontarget	9.000000	na
100.498359	0.049949	116.000000	nontarget	10.000000	na
100.548308	0.050124	116.000000	nontarget	11.000000	na
100.598431	0.050218	116.000000	nontarget	12.000000	na
100.648650	0.050024	116.000000	nontarget	13.000000	na
100.698673	0.049599	116.000000	nontarget	14.000000	na
100.748272	0.050156	116.000000	nontarget	15.000000	na
100.798428	0.049755	116.000000	nontarget	16.000000	na
100.848183	0.050721	117.000000	nontarget	1.000000	na
100.898904	0.049795	117.000000	nontarget	2.000000	na
100.948699	0.049968	117.000000	nontarget	3.000000	na
100.998667	0.050032	117.000000	nontarget	4.000000	na
101.048699	0.050009	117.000000	nontarget	5.000000	na
101.098708	0.050017	117.000000	nontarget	6.000000	101.121916
101.148724	0.050315	117.000000	nontarget	7.000000	na
101.199039	0.049178	117.000000	nontarget	8.000000	na
101.248218	0.050459	117.000000	nontarget	9.000000	na
101.298677	0.049976	117.000000	nontarget	10.000000	na
101.348652	0.050134	117.000000	nontarget	11.000000	na
101.398786	0.049868	117.000000	nontarget	12.000000	na
101.448655	0.050143	117.000000	nontarget	13.000000	na
101.498797	0.049713	117.000000	nontarget	14.000000	na
101.548511	0.050160	117.000000	nontarget	15.000000	na
101.598671	0.049982	117.000000	nontarget	16.000000	na
101.648652	0.049988	118.000000	target	1.000000	na
101.698640	0.049796	118.000000	target	2.000000	na
101.748436	0.049851	118.000000	target	3.000000	na
101.798287	0.050342	118.000000	target	4.000000	na
101.848630	0.049882	118.000000	target	5.000000	na
101.898511	0.049977	118.000000	target	6.000000	na
101.948488	0.049805	118.000000	target	7.000000	na
101.998293	0.050077	118.000000	target	8.000000	na
102.048369	0.050321	118.000000	target	9.000000	na
102.098690	0.049121	118.000000	target	10.000000	na
102.147812	0.050791	118.000000	target	11.000000	na
102.198603	0.050182	118.000000	target	12.000000	na
102.248785	0.049859	118.000000	target	13.000000	na
102.298644	0.050066	118.000000	target	14.000000	na
102.348710	0.049826	118.000000	target	15.000000	na
102.398536	0.050173	118.000000	target	16.000000	na
102.448709	0.049370	119.000000	nontarget	1.000000	102.483733
102.498079	0.050165	119.000000	nontarget	2.000000	na
102.548244	0.050434	119.000000	nontarget	3.000000	na
102.598678	0.049917	119.000000	nontarget	4.000000	na
102.648594	0.050039	119.000000	nontarget	5.000000	na
102.698634	0.050201	119.000000	nontarget	6.000000	na
102.748835	0.049571	119.000000	nontarget	7.000000	na
102.798405	0.049854	119.000000	nontarget	8.000000	na
102.848260	0.050376	119.000000	nontarget	9.000000	na
102.898635	0.049941	119.000000	nontarget	10.000000	na
102.948577	0.049876	119.000000	nontarget	11.000000	na
102.998453	0.049652	119.000000	nontarget	12.000000	na
103.048104	0.050565	119.000000	nontarget	13.000000	na
103.098670	0.049813	119.000000	nontarget	14.000000	na
103.148483	0.050217	119.000000	nontarget	15.000000	na
103.198700	0.049954	119.000000	nontarget	16.000000	na
103.248654	0.049994	120.000000	nontarget	1.000000	na
103.298647	0.050067	120.000000	nontarget	2.000000	na
103.348714	0.049887	120.000000	nontarget	3.000000	na
103.398602	0.050018	120.000000	nontarget	4.000000	na
103.448619	0.050001	120.000000	nontarget	5.000000	na
103.498620	0.049840	120.000000	nontarget	6.000000	103.521771
103.548460	0.050261	120.000000	nontarget	7.000000	na
103.598721	0.049798	120.000000	nontarget	8.000000	na
103.648519	0.050142	120.000000	nontarget	9.000000	na
103.698660	0.049970	120.000000	nontarget	10.000000	na
103.748631	0.049972	120.000000	nontarget	11.000000	na
103.798603	0.050085	120.000000	nontarget	12.000000	na
103.848688	0.050078	120.000000	nontarget	13.000000	na
103.898766	0.049259	120.000000	nontarget	14.000000	na
103.948025	0.050204	120.000000	nontarget	15.000000	na
103.998228	0.049976	120.000000	nontarget	16.000000	na
104.048205	0.050581	121.000000	nontarget	1.000000	na
104.098785	0.049826	121.000000	nontarget	2.000000	na
104.148611	0.050009	121.000000	nontarget	3.000000	na
104.198620	0.050000	121.000000	nontarget	4.000000	na
104.248620	0.049796	121.000000	nontarget	5.000000	na
104.298416	0.050209	121.000000	nontarget	6.000000	na
104.348625	0.049262	121.000000	nontarget	7.000000	na
104.397887	0.050670	121.000000	nontarget	8.000000	na
104.448557	0.050069	121.000000	nontarget	9.000000	na
104.498626	0.049768	121.000000	nontarget	10.000000	na
104.548394	0.050359	121.000000	nontarget	11.000000	104.557435
104.598753	0.049899	121.000000	nontarget	12.000000	na
