onset	duration	trial_number	trial_type	frame_number	time_of_response
8.065805	0.050303	1.000000	nontarget	1.000000	na
8.116108	0.048948	1.000000	nontarget	2.000000	na
8.165056	0.050741	1.000000	nontarget	3.000000	na
8.215798	0.049796	1.000000	nontarget	4.000000	na
8.265594	0.050164	1.000000	nontarget	5.000000	na
8.315758	0.050022	1.000000	nontarget	6.000000	na
8.365781	0.049661	1.000000	nontarget	7.000000	na
8.415442	0.050386	1.000000	nontarget	8.000000	na
8.465828	0.049932	1.000000	nontarget	9.000000	na
8.515760	0.049993	1.000000	nontarget	10.000000	na
8.565752	0.049366	1.000000	nontarget	11.000000	na
8.615119	0.050912	1.000000	nontarget	12.000000	na
8.666031	0.049738	1.000000	nontarget	13.000000	na
8.715769	0.050316	1.000000	nontarget	14.000000	na
8.766085	0.049786	1.000000	nontarget	15.000000	na
8.815871	0.049540	1.000000	nontarget	16.000000	na
8.865411	0.050474	2.000000	nontarget	1.000000	8.877021
8.915885	0.050040	2.000000	nontarget	2.000000	na
8.965924	0.049352	2.000000	nontarget	3.000000	na
9.015277	0.050629	2.000000	nontarget	4.000000	na
9.065906	0.049704	2.000000	nontarget	5.000000	na
9.115609	0.050461	2.000000	nontarget	6.000000	na
9.166070	0.049763	2.000000	nontarget	7.000000	na
9.215833	0.050080	2.000000	nontarget	8.000000	na
9.265913	0.049605	2.000000	nontarget	9.000000	na
9.315518	0.050095	2.000000	nontarget	10.000000	na
9.365613	0.050156	2.000000	nontarget	11.000000	na
9.415769	0.049490	2.000000	nontarget	12.000000	na
9.465259	0.050392	2.000000	nontarget	13.000000	na
9.515651	0.050107	2.000000	nontarget	14.000000	na
9.565758	0.050053	2.000000	nontarget	15.000000	na
9.615811	0.050131	2.000000	nontarget	16.000000	na
9.665942	0.049348	3.000000	target	1.000000	na
9.715290	0.050483	3.000000	target	2.000000	na
9.765773	0.050221	3.000000	target	3.000000	na
9.815994	0.049492	3.000000	target	4.000000	na
9.865485	0.050635	3.000000	target	5.000000	na
9.916120	0.049469	3.000000	target	6.000000	na
9.965589	0.050190	3.000000	target	7.000000	na
10.015779	0.049593	3.000000	target	8.000000	na
10.065372	0.050390	3.000000	target	9.000000	na
10.115762	0.049718	3.000000	target	10.000000	na
10.165479	0.050448	3.000000	target	11.000000	na
10.215927	0.049339	3.000000	target	12.000000	na
10.265266	0.050742	3.000000	target	13.000000	na
10.316009	0.049957	3.000000	target	14.000000	na
10.365966	0.049748	3.000000	target	15.000000	na
10.415714	0.049470	3.000000	target	16.000000	na
10.465184	0.050855	4.000000	nontarget	1.000000	na
10.516039	0.052483	4.000000	nontarget	2.000000	na
10.568522	0.047374	4.000000	nontarget	3.000000	10.573306
10.615896	0.049814	4.000000	nontarget	4.000000	na
10.665710	0.050161	4.000000	nontarget	5.000000	na
10.715871	0.050077	4.000000	nontarget	6.000000	na
10.765948	0.049467	4.000000	nontarget	7.000000	na
10.815416	0.050007	4.000000	nontarget	8.000000	na
10.865422	0.050459	4.000000	nontarget	9.000000	na
10.915881	0.049687	4.000000	nontarget	10.000000	na
10.965569	0.050212	4.000000	nontarget	11.000000	na
11.015781	0.049251	4.000000	nontarget	12.000000	na
11.065032	0.050446	4.000000	nontarget	13.000000	na
11.115479	0.049832	4.000000	nontarget	14.000000	na
11.165311	0.050112	4.000000	nontarget	15.000000	na
11.215423	0.050282	4.000000	nontarget	16.000000	na
11.265704	0.049634	5.000000	nontarget	1.000000	11.296722
11.315338	0.049886	5.000000	nontarget	2.000000	na
11.365224	0.050246	5.000000	nontarget	3.000000	na
11.415470	0.050388	5.000000	nontarget	4.000000	na
11.465859	0.049854	5.000000	nontarget	5.000000	na
11.515713	0.049992	5.000000	nontarget	6.000000	na
11.565705	0.050128	5.000000	nontarget	7.000000	na
11.615833	0.049606	5.000000	nontarget	8.000000	na
11.665439	0.049933	5.000000	nontarget	9.000000	na
11.715371	0.050615	5.000000	nontarget	10.000000	na
11.765986	0.049780	5.000000	nontarget	11.000000	na
11.815766	0.049482	5.000000	nontarget	12.000000	na
11.865248	0.050620	5.000000	nontarget	13.000000	na
11.915868	0.049873	5.000000	nontarget	14.000000	na
11.965741	0.050046	5.000000	nontarget	15.000000	na
12.015787	0.049398	5.000000	nontarget	16.000000	na
12.065185	0.050541	6.000000	nontarget	1.000000	na
12.115726	0.050118	6.000000	nontarget	2.000000	12.147381
12.165844	0.050043	6.000000	nontarget	3.000000	na
12.215887	0.049558	6.000000	nontarget	4.000000	na
12.265445	0.050456	6.000000	nontarget	5.000000	na
12.315902	0.048943	6.000000	nontarget	6.000000	na
12.364845	0.050445	6.000000	nontarget	7.000000	na
12.415290	0.050797	6.000000	nontarget	8.000000	na
12.466088	0.049595	6.000000	nontarget	9.000000	na
12.515682	0.049537	6.000000	nontarget	10.000000	na
12.565220	0.050579	6.000000	nontarget	11.000000	na
12.615798	0.049956	6.000000	nontarget	12.000000	na
12.665754	0.049897	6.000000	nontarget	13.000000	na
12.715651	0.050175	6.000000	nontarget	14.000000	na
12.765826	0.049908	6.000000	nontarget	15.000000	na
12.815734	0.049828	6.000000	nontarget	16.000000	na
12.865562	0.050632	7.000000	nontarget	1.000000	12.899956
12.916195	0.049589	7.000000	nontarget	2.000000	na
12.965784	0.049940	7.000000	nontarget	3.000000	na
13.015724	0.049520	7.000000	nontarget	4.000000	na
13.065244	0.050512	7.000000	nontarget	5.000000	na
13.115756	0.049948	7.000000	nontarget	6.000000	na
13.165704	0.050013	7.000000	nontarget	7.000000	na
13.215717	0.050005	7.000000	nontarget	8.000000	na
13.265723	0.049980	7.000000	nontarget	9.000000	na
13.315703	0.050112	7.000000	nontarget	10.000000	na
13.365814	0.049419	7.000000	nontarget	11.000000	na
13.415234	0.050464	7.000000	nontarget	12.000000	na
13.465698	0.049950	7.000000	nontarget	13.000000	na
13.515648	0.050392	7.000000	nontarget	14.000000	na
13.566039	0.049429	7.000000	nontarget	15.000000	na
13.615468	0.050577	7.000000	nontarget	16.000000	na
13.666045	0.049134	8.000000	nontarget	1.000000	na
13.715179	0.050602	8.000000	nontarget	2.000000	13.722047
13.765782	0.050019	8.000000	nontarget	3.000000	na
13.815801	0.050146	8.000000	nontarget	4.000000	na
13.865946	0.050040	8.000000	nontarget	5.000000	na
13.915986	0.049244	8.000000	nontarget	6.000000	na
13.965230	0.050548	8.000000	nontarget	7.000000	na
14.015778	0.050117	8.000000	nontarget	8.000000	na
14.065895	0.049850	8.000000	nontarget	9.000000	na
14.115745	0.050177	8.000000	nontarget	10.000000	na
14.165922	0.049812	8.000000	nontarget	11.000000	na
14.215735	0.049985	8.000000	nontarget	12.000000	na
14.265719	0.049939	8.000000	nontarget	13.000000	na
14.315659	0.050028	8.000000	nontarget	14.000000	na
14.365687	0.050445	8.000000	nontarget	15.000000	14.393166
14.416132	0.049643	8.000000	nontarget	16.000000	na
14.465774	0.049925	9.000000	nontarget	1.000000	14.472416
14.515699	0.049988	9.000000	nontarget	2.000000	na
14.565687	0.050188	9.000000	nontarget	3.000000	na
14.615875	0.049810	9.000000	nontarget	4.000000	na
14.665685	0.050049	9.000000	nontarget	5.000000	na
14.715734	0.050020	9.000000	nontarget	6.000000	na
14.765754	0.050012	9.000000	nontarget	7.000000	na
14.815767	0.049375	9.000000	nontarget	8.000000	na
14.865141	0.050915	9.000000	nontarget	9.000000	na
14.916057	0.049697	9.000000	nontarget	10.000000	na
14.965754	0.049966	9.000000	nontarget	11.000000	na
15.015720	0.050064	9.000000	nontarget	12.000000	na
15.065784	0.049871	9.000000	nontarget	13.000000	na
15.115655	0.050341	9.000000	nontarget	14.000000	na
15.165996	0.049628	9.000000	nontarget	15.000000	na
15.215624	0.049944	9.000000	nontarget	16.000000	na
15.265568	0.050436	10.000000	nontarget	1.000000	15.274341
15.316005	0.049199	10.000000	nontarget	2.000000	na
15.365204	0.050336	10.000000	nontarget	3.000000	na
15.415540	0.050137	10.000000	nontarget	4.000000	na
15.465677	0.049763	10.000000	nontarget	5.000000	na
15.515440	0.050038	10.000000	nontarget	6.000000	na
15.565478	0.049940	10.000000	nontarget	7.000000	na
15.615418	0.049501	10.000000	nontarget	8.000000	na
15.664919	0.050790	10.000000	nontarget	9.000000	na
15.715709	0.050331	10.000000	nontarget	10.000000	na
15.766040	0.049809	10.000000	nontarget	11.000000	na
15.815849	0.049943	10.000000	nontarget	12.000000	na
15.865792	0.049829	10.000000	nontarget	13.000000	na
15.915621	0.051944	10.000000	nontarget	14.000000	na
15.967565	0.048310	10.000000	nontarget	15.000000	15.972989
16.015876	0.050099	10.000000	nontarget	16.000000	na
16.065975	0.049585	11.000000	nontarget	1.000000	16.072568
16.115560	0.050491	11.000000	nontarget	2.000000	na
16.166051	0.049392	11.000000	nontarget	3.000000	na
16.215442	0.049958	11.000000	nontarget	4.000000	na
16.265401	0.050259	11.000000	nontarget	5.000000	na
16.315659	0.050087	11.000000	nontarget	6.000000	na
16.365746	0.049679	11.000000	nontarget	7.000000	na
16.415425	0.050595	11.000000	nontarget	8.000000	na
16.466020	0.049696	11.000000	nontarget	9.000000	na
16.515716	0.049765	11.000000	nontarget	10.000000	na
16.565481	0.049935	11.000000	nontarget	11.000000	na
16.615416	0.049658	11.000000	nontarget	12.000000	na
16.665074	0.050569	11.000000	nontarget	13.000000	na
16.715642	0.050265	11.000000	nontarget	14.000000	16.722418
16.765908	0.049305	11.000000	nontarget	15.000000	na
16.815212	0.050110	11.000000	nontarget	16.000000	na
16.865323	0.050168	12.000000	nontarget	1.000000	na
16.915491	0.050316	12.000000	nontarget	2.000000	na
16.965807	0.050096	12.000000	nontarget	3.000000	na
17.015903	0.049135	12.000000	nontarget	4.000000	na
17.065039	0.050152	12.000000	nontarget	5.000000	na
17.115191	0.050725	12.000000	nontarget	6.000000	na
17.165916	0.050049	12.000000	nontarget	7.000000	na
17.215965	0.049666	12.000000	nontarget	8.000000	na
17.265631	0.050080	12.000000	nontarget	9.000000	na
17.315711	0.050096	12.000000	nontarget	10.000000	na
17.365807	0.049927	12.000000	nontarget	11.000000	na
17.415734	0.049582	12.000000	nontarget	12.000000	na
17.465316	0.050822	12.000000	nontarget	13.000000	na
17.516138	0.049004	12.000000	nontarget	14.000000	17.522728
17.565142	0.050854	12.000000	nontarget	15.000000	na
17.615996	0.049747	12.000000	nontarget	16.000000	na
17.665743	0.049350	13.000000	nontarget	1.000000	na
17.715094	0.050540	13.000000	nontarget	2.000000	na
17.765634	0.050058	13.000000	nontarget	3.000000	na
17.815692	0.049573	13.000000	nontarget	4.000000	na
17.865265	0.050475	13.000000	nontarget	5.000000	na
17.915740	0.049963	13.000000	nontarget	6.000000	na
17.965703	0.050096	13.000000	nontarget	7.000000	na
18.015799	0.049944	13.000000	nontarget	8.000000	na
18.065743	0.049826	13.000000	nontarget	9.000000	na
18.115569	0.049530	13.000000	nontarget	10.000000	na
18.165099	0.050699	13.000000	nontarget	11.000000	na
18.215798	0.049559	13.000000	nontarget	12.000000	na
18.265357	0.050411	13.000000	nontarget	13.000000	na
18.315768	0.049030	13.000000	nontarget	14.000000	18.349685
18.364798	0.050982	13.000000	nontarget	15.000000	na
18.415780	0.050012	13.000000	nontarget	16.000000	na
18.465792	0.049461	14.000000	nontarget	1.000000	18.472347
18.515254	0.049481	14.000000	nontarget	2.000000	na
18.564735	0.050252	14.000000	nontarget	3.000000	na
18.614987	0.050393	14.000000	nontarget	4.000000	na
18.665380	0.050396	14.000000	nontarget	5.000000	na
18.715776	0.049966	14.000000	nontarget	6.000000	na
18.765742	0.049990	14.000000	nontarget	7.000000	na
18.815732	0.050041	14.000000	nontarget	8.000000	na
18.865773	0.049969	14.000000	nontarget	9.000000	na
18.915741	0.049913	14.000000	nontarget	10.000000	na
18.965654	0.049994	14.000000	nontarget	11.000000	na
19.015648	0.050242	14.000000	nontarget	12.000000	na
19.065890	0.049815	14.000000	nontarget	13.000000	na
19.115705	0.049818	14.000000	nontarget	14.000000	na
19.165522	0.050267	14.000000	nontarget	15.000000	19.173823
19.215790	0.050123	14.000000	nontarget	16.000000	na
19.265913	0.049319	15.000000	nontarget	1.000000	19.272538
19.315232	0.050662	15.000000	nontarget	2.000000	na
19.365894	0.049990	15.000000	nontarget	3.000000	na
19.415884	0.049867	15.000000	nontarget	4.000000	na
19.465751	0.049349	15.000000	nontarget	5.000000	na
19.515100	0.050490	15.000000	nontarget	6.000000	na
19.565590	0.050166	15.000000	nontarget	7.000000	na
19.615756	0.049983	15.000000	nontarget	8.000000	na
19.665739	0.049879	15.000000	nontarget	9.000000	na
19.715619	0.050163	15.000000	nontarget	10.000000	na
19.765782	0.049385	15.000000	nontarget	11.000000	na
19.815166	0.050258	15.000000	nontarget	12.000000	na
19.865424	0.050463	15.000000	nontarget	13.000000	na
19.915887	0.049721	15.000000	nontarget	14.000000	na
19.965608	0.049558	15.000000	nontarget	15.000000	na
20.015166	0.050492	15.000000	nontarget	16.000000	20.023049
20.065658	0.050138	16.000000	nontarget	1.000000	20.072264
20.115796	0.050193	16.000000	nontarget	2.000000	na
20.165988	0.049352	16.000000	nontarget	3.000000	na
20.215340	0.050396	16.000000	nontarget	4.000000	na
20.265736	0.049994	16.000000	nontarget	5.000000	na
20.315730	0.049546	16.000000	nontarget	6.000000	na
20.365276	0.050354	16.000000	nontarget	7.000000	na
20.415630	0.050107	16.000000	nontarget	8.000000	na
20.465737	0.050007	16.000000	nontarget	9.000000	na
20.515744	0.049326	16.000000	nontarget	10.000000	na
20.565070	0.050661	16.000000	nontarget	11.000000	na
20.615730	0.050043	16.000000	nontarget	12.000000	na
20.665773	0.049913	16.000000	nontarget	13.000000	na
20.715686	0.049883	16.000000	nontarget	14.000000	na
20.765570	0.049994	16.000000	nontarget	15.000000	na
20.815564	0.049933	16.000000	nontarget	16.000000	na
20.865498	0.050180	17.000000	nontarget	1.000000	20.872223
20.915677	0.050247	17.000000	nontarget	2.000000	na
20.965924	0.049848	17.000000	nontarget	3.000000	na
21.015772	0.049301	17.000000	nontarget	4.000000	na
21.065073	0.050715	17.000000	nontarget	5.000000	na
21.115788	0.049972	17.000000	nontarget	6.000000	na
21.165761	0.049632	17.000000	nontarget	7.000000	na
21.215393	0.050367	17.000000	nontarget	8.000000	na
21.265760	0.049967	17.000000	nontarget	9.000000	na
21.315728	0.049444	17.000000	nontarget	10.000000	na
21.365172	0.050461	17.000000	nontarget	11.000000	na
21.415633	0.050112	17.000000	nontarget	12.000000	na
21.465745	0.049959	17.000000	nontarget	13.000000	na
21.515704	0.049451	17.000000	nontarget	14.000000	na
21.565155	0.050233	17.000000	nontarget	15.000000	na
21.615389	0.049947	17.000000	nontarget	16.000000	na
21.665336	0.050561	18.000000	nontarget	1.000000	21.680870
21.715897	0.049939	18.000000	nontarget	2.000000	na
21.765836	0.049934	18.000000	nontarget	3.000000	na
21.815770	0.049993	18.000000	nontarget	4.000000	na
21.865763	0.049986	18.000000	nontarget	5.000000	na
21.915749	0.050034	18.000000	nontarget	6.000000	na
21.965783	0.049392	18.000000	nontarget	7.000000	na
22.015175	0.050642	18.000000	nontarget	8.000000	na
22.065817	0.049868	18.000000	nontarget	9.000000	na
22.115685	0.049422	18.000000	nontarget	10.000000	na
22.165108	0.050645	18.000000	nontarget	11.000000	na
22.215753	0.049654	18.000000	nontarget	12.000000	na
22.265408	0.050115	18.000000	nontarget	13.000000	na
22.315523	0.050165	18.000000	nontarget	14.000000	na
22.365688	0.050112	18.000000	nontarget	15.000000	na
22.415800	0.049956	18.000000	nontarget	16.000000	na
22.465757	0.049820	19.000000	nontarget	1.000000	na
22.515577	0.049679	19.000000	nontarget	2.000000	22.522013
22.565255	0.050621	19.000000	nontarget	3.000000	na
22.615876	0.049648	19.000000	nontarget	4.000000	na
22.665524	0.050317	19.000000	nontarget	5.000000	na
22.715840	0.049758	19.000000	nontarget	6.000000	na
22.765598	0.050115	19.000000	nontarget	7.000000	na
22.815714	0.049902	19.000000	nontarget	8.000000	na
22.865616	0.050077	19.000000	nontarget	9.000000	na
22.915693	0.050146	19.000000	nontarget	10.000000	na
22.965839	0.050089	19.000000	nontarget	11.000000	na
23.015928	0.049686	19.000000	nontarget	12.000000	na
23.065613	0.050174	19.000000	nontarget	13.000000	na
23.115787	0.049980	19.000000	nontarget	14.000000	na
23.165767	0.049257	19.000000	nontarget	15.000000	na
23.215024	0.050791	19.000000	nontarget	16.000000	na
23.265815	0.049920	20.000000	nontarget	1.000000	na
23.315735	0.049277	20.000000	nontarget	2.000000	23.346734
23.365012	0.050833	20.000000	nontarget	3.000000	na
23.415845	0.049933	20.000000	nontarget	4.000000	na
23.465778	0.049281	20.000000	nontarget	5.000000	na
23.515059	0.050692	20.000000	nontarget	6.000000	na
23.565751	0.049358	20.000000	nontarget	7.000000	na
23.615109	0.050792	20.000000	nontarget	8.000000	na
23.665900	0.049829	20.000000	nontarget	9.000000	na
23.715729	0.049313	20.000000	nontarget	10.000000	na
23.765043	0.050693	20.000000	nontarget	11.000000	na
23.815735	0.050017	20.000000	nontarget	12.000000	na
23.865753	0.049881	20.000000	nontarget	13.000000	na
23.915634	0.049913	20.000000	nontarget	14.000000	na
23.965547	0.050247	20.000000	nontarget	15.000000	na
24.015794	0.050166	20.000000	nontarget	16.000000	na
24.065960	0.050708	21.000000	nontarget	1.000000	na
24.116669	0.049327	21.000000	nontarget	2.000000	24.122583
24.165996	0.049269	21.000000	nontarget	3.000000	na
24.215265	0.049539	21.000000	nontarget	4.000000	na
24.264804	0.050775	21.000000	nontarget	5.000000	na
24.315578	0.050185	21.000000	nontarget	6.000000	na
24.365763	0.050017	21.000000	nontarget	7.000000	na
24.415780	0.049814	21.000000	nontarget	8.000000	na
24.465594	0.049992	21.000000	nontarget	9.000000	na
24.515586	0.049871	21.000000	nontarget	10.000000	na
24.565457	0.049292	21.000000	nontarget	11.000000	na
24.614748	0.050993	21.000000	nontarget	12.000000	na
24.665742	0.050003	21.000000	nontarget	13.000000	na
24.715744	0.049993	21.000000	nontarget	14.000000	na
24.765738	0.050049	21.000000	nontarget	15.000000	na
24.815786	0.050082	21.000000	nontarget	16.000000	na
24.865868	0.049637	22.000000	nontarget	1.000000	24.877053
24.915506	0.049734	22.000000	nontarget	2.000000	na
24.965239	0.050577	22.000000	nontarget	3.000000	na
25.015816	0.049774	22.000000	nontarget	4.000000	na
25.065590	0.050176	22.000000	nontarget	5.000000	na
25.115766	0.049411	22.000000	nontarget	6.000000	na
25.165177	0.050468	22.000000	nontarget	7.000000	na
25.215645	0.050109	22.000000	nontarget	8.000000	na
25.265754	0.049103	22.000000	nontarget	9.000000	na
25.314857	0.050334	22.000000	nontarget	10.000000	na
25.365191	0.050608	22.000000	nontarget	11.000000	na
25.415800	0.049352	22.000000	nontarget	12.000000	na
25.465152	0.050549	22.000000	nontarget	13.000000	na
25.515701	0.050065	22.000000	nontarget	14.000000	na
25.565767	0.049366	22.000000	nontarget	15.000000	na
25.615132	0.050168	22.000000	nontarget	16.000000	na
25.665301	0.049628	23.000000	nontarget	1.000000	25.685540
25.714928	0.050197	23.000000	nontarget	2.000000	na
25.765126	0.050616	23.000000	nontarget	3.000000	na
25.815742	0.049998	23.000000	nontarget	4.000000	na
25.865740	0.049955	23.000000	nontarget	5.000000	na
25.915695	0.049526	23.000000	nontarget	6.000000	na
25.965221	0.050773	23.000000	nontarget	7.000000	na
26.015994	0.049797	23.000000	nontarget	8.000000	na
26.065791	0.049749	23.000000	nontarget	9.000000	na
26.115539	0.049810	23.000000	nontarget	10.000000	na
26.165349	0.050344	23.000000	nontarget	11.000000	na
26.215693	0.050059	23.000000	nontarget	12.000000	na
26.265752	0.049982	23.000000	nontarget	13.000000	na
26.315734	0.050014	23.000000	nontarget	14.000000	na
26.365748	0.049977	23.000000	nontarget	15.000000	na
26.415725	0.050293	23.000000	nontarget	16.000000	26.447313
26.466018	0.049955	24.000000	nontarget	1.000000	26.472580
26.515973	0.049811	24.000000	nontarget	2.000000	na
26.565784	0.049916	24.000000	nontarget	3.000000	na
26.615699	0.049331	24.000000	nontarget	4.000000	na
26.665030	0.050840	24.000000	nontarget	5.000000	na
26.715871	0.049811	24.000000	nontarget	6.000000	na
26.765682	0.049842	24.000000	nontarget	7.000000	na
26.815524	0.050220	24.000000	nontarget	8.000000	na
26.865744	0.049840	24.000000	nontarget	9.000000	na
26.915584	0.050162	24.000000	nontarget	10.000000	na
26.965746	0.050145	24.000000	nontarget	11.000000	na
27.015891	0.049948	24.000000	nontarget	12.000000	na
27.065839	0.049937	24.000000	nontarget	13.000000	na
27.115776	0.049983	24.000000	nontarget	14.000000	na
27.165758	0.049835	24.000000	nontarget	15.000000	na
27.215594	0.050373	24.000000	nontarget	16.000000	27.243825
27.265967	0.048940	25.000000	nontarget	1.000000	27.271825
27.314908	0.050750	25.000000	nontarget	2.000000	na
27.365657	0.050062	25.000000	nontarget	3.000000	na
27.415720	0.049898	25.000000	nontarget	4.000000	na
27.465618	0.049861	25.000000	nontarget	5.000000	na
27.515479	0.050349	25.000000	nontarget	6.000000	na
27.565828	0.049954	25.000000	nontarget	7.000000	na
27.615782	0.049208	25.000000	nontarget	8.000000	na
27.664990	0.050754	25.000000	nontarget	9.000000	na
27.715743	0.050010	25.000000	nontarget	10.000000	na
27.765753	0.050109	25.000000	nontarget	11.000000	na
27.815863	0.049900	25.000000	nontarget	12.000000	na
27.865762	0.049828	25.000000	nontarget	13.000000	na
27.915590	0.049946	25.000000	nontarget	14.000000	na
27.965537	0.049660	25.000000	nontarget	15.000000	na
28.015197	0.050539	25.000000	nontarget	16.000000	28.047253
28.065736	0.050056	26.000000	nontarget	1.000000	28.072363
28.115792	0.050232	26.000000	nontarget	2.000000	na
28.166024	0.050002	26.000000	nontarget	3.000000	na
28.216025	0.049078	26.000000	nontarget	4.000000	na
28.265103	0.049754	26.000000	nontarget	5.000000	na
28.314857	0.050617	26.000000	nontarget	6.000000	na
28.365475	0.049643	26.000000	nontarget	7.000000	na
28.415118	0.049856	26.000000	nontarget	8.000000	na
28.464974	0.051064	26.000000	nontarget	9.000000	na
28.516037	0.049692	26.000000	nontarget	10.000000	na
28.565729	0.050058	26.000000	nontarget	11.000000	na
28.615787	0.049301	26.000000	nontarget	12.000000	na
28.665089	0.050431	26.000000	nontarget	13.000000	na
28.715520	0.050273	26.000000	nontarget	14.000000	na
28.765793	0.049946	26.000000	nontarget	15.000000	na
28.815739	0.049983	26.000000	nontarget	16.000000	na
28.865722	0.049814	27.000000	nontarget	1.000000	na
28.915536	0.050573	27.000000	nontarget	2.000000	na
28.966109	0.049429	27.000000	nontarget	3.000000	na
29.015538	0.050205	27.000000	nontarget	4.000000	29.050392
29.065743	0.050377	27.000000	nontarget	5.000000	na
29.116119	0.049634	27.000000	nontarget	6.000000	na
29.165754	0.050005	27.000000	nontarget	7.000000	na
29.215759	0.049315	27.000000	nontarget	8.000000	na
29.265074	0.050350	27.000000	nontarget	9.000000	na
29.315424	0.050089	27.000000	nontarget	10.000000	na
29.365513	0.050132	27.000000	nontarget	11.000000	na
29.415644	0.050417	27.000000	nontarget	12.000000	na
29.466062	0.049687	27.000000	nontarget	13.000000	na
29.515749	0.050300	27.000000	nontarget	14.000000	na
29.566049	0.050011	27.000000	nontarget	15.000000	na
29.616060	0.049021	27.000000	nontarget	16.000000	na
29.665081	0.050576	28.000000	nontarget	1.000000	na
29.715657	0.050310	28.000000	nontarget	2.000000	na
29.765967	0.049844	28.000000	nontarget	3.000000	na
29.815811	0.049919	28.000000	nontarget	4.000000	na
29.865731	0.049471	28.000000	nontarget	5.000000	na
29.915202	0.050748	28.000000	nontarget	6.000000	na
29.965950	0.049466	28.000000	nontarget	7.000000	na
30.015416	0.051848	28.000000	nontarget	8.000000	na
30.067264	0.047911	28.000000	nontarget	9.000000	30.072882
30.115175	0.050087	28.000000	nontarget	10.000000	na
30.165262	0.050601	28.000000	nontarget	11.000000	na
30.215863	0.050015	28.000000	nontarget	12.000000	na
30.265878	0.049354	28.000000	nontarget	13.000000	na
30.315232	0.050667	28.000000	nontarget	14.000000	na
30.365900	0.049837	28.000000	nontarget	15.000000	na
30.415736	0.049920	28.000000	nontarget	16.000000	na
30.465656	0.049776	29.000000	nontarget	1.000000	na
30.515432	0.050292	29.000000	nontarget	2.000000	na
30.565724	0.050281	29.000000	nontarget	3.000000	na
30.616004	0.049172	29.000000	nontarget	4.000000	na
30.665177	0.050071	29.000000	nontarget	5.000000	na
30.715247	0.050606	29.000000	nontarget	6.000000	na
30.765853	0.049936	29.000000	nontarget	7.000000	na
30.815789	0.049968	29.000000	nontarget	8.000000	na
30.865757	0.050205	29.000000	nontarget	9.000000	30.889209
30.915962	0.049797	29.000000	nontarget	10.000000	na
30.965759	0.050330	29.000000	nontarget	11.000000	na
31.016088	0.049424	29.000000	nontarget	12.000000	na
31.065512	0.050233	29.000000	nontarget	13.000000	na
31.115745	0.050007	29.000000	nontarget	14.000000	na
31.165752	0.049501	29.000000	nontarget	15.000000	na
31.215253	0.050587	29.000000	nontarget	16.000000	na
31.265840	0.049776	30.000000	nontarget	1.000000	na
31.315616	0.049540	30.000000	nontarget	2.000000	na
31.365156	0.050830	30.000000	nontarget	3.000000	na
31.415986	0.049541	30.000000	nontarget	4.000000	na
31.465527	0.049743	30.000000	nontarget	5.000000	na
31.515270	0.050749	30.000000	nontarget	6.000000	na
31.566019	0.049770	30.000000	nontarget	7.000000	na
31.615789	0.050210	30.000000	nontarget	8.000000	na
31.665999	0.049429	30.000000	nontarget	9.000000	na
31.715427	0.050345	30.000000	nontarget	10.000000	na
31.765772	0.050101	30.000000	nontarget	11.000000	na
31.815873	0.049975	30.000000	nontarget	12.000000	31.838653
31.865848	0.050038	30.000000	nontarget	13.000000	na
31.915886	0.050172	30.000000	nontarget	14.000000	na
31.966058	0.049778	30.000000	nontarget	15.000000	na
32.015835	0.049953	30.000000	nontarget	16.000000	na
32.065789	0.049954	31.000000	nontarget	1.000000	na
32.115743	0.049811	31.000000	nontarget	2.000000	na
32.165554	0.050458	31.000000	nontarget	3.000000	na
32.216012	0.049872	31.000000	nontarget	4.000000	na
32.265884	0.049974	31.000000	nontarget	5.000000	na
32.315858	0.049896	31.000000	nontarget	6.000000	na
32.365755	0.049961	31.000000	nontarget	7.000000	na
32.415716	0.050046	31.000000	nontarget	8.000000	na
32.465761	0.049676	31.000000	nontarget	9.000000	na
32.515438	0.050316	31.000000	nontarget	10.000000	na
32.565754	0.049993	31.000000	nontarget	11.000000	na
32.615746	0.049876	31.000000	nontarget	12.000000	na
32.665623	0.050165	31.000000	nontarget	13.000000	na
32.715788	0.049961	31.000000	nontarget	14.000000	na
32.765749	0.049371	31.000000	nontarget	15.000000	na
32.815120	0.050612	31.000000	nontarget	16.000000	na
32.865732	0.050028	32.000000	target	1.000000	na
32.915760	0.050004	32.000000	target	2.000000	na
32.965764	0.050137	32.000000	target	3.000000	na
33.015900	0.049633	32.000000	target	4.000000	na
33.065534	0.050231	32.000000	target	5.000000	na
33.115764	0.048965	32.000000	target	6.000000	na
33.164730	0.050414	32.000000	target	7.000000	na
33.215143	0.050653	32.000000	target	8.000000	na
33.265796	0.050069	32.000000	target	9.000000	na
33.315865	0.049899	32.000000	target	10.000000	na
33.365763	0.050143	32.000000	target	11.000000	na
33.415906	0.049869	32.000000	target	12.000000	na
33.465775	0.049656	32.000000	target	13.000000	na
33.515431	0.050296	32.000000	target	14.000000	33.523006
33.565727	0.049981	32.000000	target	15.000000	na
33.615708	0.050142	32.000000	target	16.000000	na
33.665850	0.049971	33.000000	nontarget	1.000000	na
33.715821	0.049275	33.000000	nontarget	2.000000	na
33.765096	0.050373	33.000000	nontarget	3.000000	na
33.815469	0.049984	33.000000	nontarget	4.000000	na
33.865452	0.049964	33.000000	nontarget	5.000000	na
33.915416	0.050690	33.000000	nontarget	6.000000	na
33.966106	0.049768	33.000000	nontarget	7.000000	na
34.015874	0.049937	33.000000	nontarget	8.000000	na
34.065811	0.049975	33.000000	nontarget	9.000000	na
34.115786	0.049972	33.000000	nontarget	10.000000	na
34.165758	0.050062	33.000000	nontarget	11.000000	na
34.215820	0.049804	33.000000	nontarget	12.000000	na
34.265624	0.049614	33.000000	nontarget	13.000000	na
34.315238	0.049470	33.000000	nontarget	14.000000	na
34.364708	0.050471	33.000000	nontarget	15.000000	na
34.415179	0.049998	33.000000	nontarget	16.000000	na
34.465177	0.050206	34.000000	target	1.000000	na
34.515383	0.050272	34.000000	target	2.000000	na
34.565655	0.049514	34.000000	target	3.000000	na
34.615169	0.050575	34.000000	target	4.000000	na
34.665744	0.049992	34.000000	target	5.000000	na
34.715736	0.049373	34.000000	target	6.000000	na
34.765108	0.050592	34.000000	target	7.000000	na
34.815700	0.050076	34.000000	target	8.000000	na
34.865777	0.050047	34.000000	target	9.000000	na
34.915824	0.049919	34.000000	target	10.000000	na
34.965743	0.050012	34.000000	target	11.000000	na
35.015754	0.050070	34.000000	target	12.000000	na
35.065825	0.049896	34.000000	target	13.000000	na
35.115721	0.049924	34.000000	target	14.000000	na
35.165645	0.049943	34.000000	target	15.000000	na
35.215588	0.049938	34.000000	target	16.000000	na
35.265526	0.050309	35.000000	target	1.000000	na
35.315835	0.049855	35.000000	target	2.000000	na
35.365690	0.050099	35.000000	target	3.000000	na
35.415790	0.049976	35.000000	target	4.000000	na
35.465765	0.050195	35.000000	target	5.000000	na
35.515960	0.049637	35.000000	target	6.000000	na
35.565597	0.049727	35.000000	target	7.000000	na
35.615325	0.050587	35.000000	target	8.000000	na
35.665911	0.049600	35.000000	target	9.000000	na
35.715512	0.050046	35.000000	target	10.000000	na
35.765558	0.050205	35.000000	target	11.000000	na
35.815763	0.049829	35.000000	target	12.000000	na
35.865591	0.049944	35.000000	target	13.000000	na
35.915536	0.050327	35.000000	target	14.000000	na
35.965862	0.049567	35.000000	target	15.000000	35.992857
36.015430	0.050401	35.000000	target	16.000000	na
36.065831	0.049946	36.000000	nontarget	1.000000	36.072399
36.115777	0.049837	36.000000	nontarget	2.000000	na
36.165613	0.050144	36.000000	nontarget	3.000000	na
36.215757	0.050010	36.000000	nontarget	4.000000	na
36.265767	0.049956	36.000000	nontarget	5.000000	na
36.315723	0.050039	36.000000	nontarget	6.000000	na
36.365763	0.050029	36.000000	nontarget	7.000000	na
36.415792	0.050065	36.000000	nontarget	8.000000	na
36.465857	0.049899	36.000000	nontarget	9.000000	na
36.515756	0.050103	36.000000	nontarget	10.000000	na
36.565859	0.049886	36.000000	nontarget	11.000000	na
36.615745	0.049846	36.000000	nontarget	12.000000	na
36.665591	0.050192	36.000000	nontarget	13.000000	na
36.715783	0.049329	36.000000	nontarget	14.000000	na
36.765112	0.050494	36.000000	nontarget	15.000000	na
36.815606	0.050022	36.000000	nontarget	16.000000	na
36.865628	0.049800	37.000000	nontarget	1.000000	na
36.915428	0.050303	37.000000	nontarget	2.000000	36.922084
36.965731	0.050041	37.000000	nontarget	3.000000	na
37.015772	0.050057	37.000000	nontarget	4.000000	na
37.065829	0.049977	37.000000	nontarget	5.000000	na
37.115806	0.049983	37.000000	nontarget	6.000000	na
37.165789	0.050078	37.000000	nontarget	7.000000	na
37.215867	0.049435	37.000000	nontarget	8.000000	na
37.265302	0.050277	37.000000	nontarget	9.000000	na
37.315579	0.050220	37.000000	nontarget	10.000000	na
37.365799	0.050048	37.000000	nontarget	11.000000	na
37.415847	0.049216	37.000000	nontarget	12.000000	na
37.465063	0.050596	37.000000	nontarget	13.000000	na
37.515659	0.049683	37.000000	nontarget	14.000000	na
37.565342	0.050224	37.000000	nontarget	15.000000	na
37.615566	0.049881	37.000000	nontarget	16.000000	na
37.665447	0.049896	38.000000	nontarget	1.000000	na
37.715343	0.050227	38.000000	nontarget	2.000000	na
37.765570	0.050154	38.000000	nontarget	3.000000	na
37.815725	0.049798	38.000000	nontarget	4.000000	na
37.865522	0.050186	38.000000	nontarget	5.000000	37.896177
37.915708	0.049682	38.000000	nontarget	6.000000	na
37.965391	0.049670	38.000000	nontarget	7.000000	na
38.015061	0.050746	38.000000	nontarget	8.000000	na
38.065807	0.049985	38.000000	nontarget	9.000000	na
38.115792	0.050091	38.000000	nontarget	10.000000	na
38.165884	0.049869	38.000000	nontarget	11.000000	na
38.215752	0.049968	38.000000	nontarget	12.000000	na
38.265720	0.049914	38.000000	nontarget	13.000000	na
38.315634	0.049357	38.000000	nontarget	14.000000	na
38.364991	0.050865	38.000000	nontarget	15.000000	na
38.415856	0.050045	38.000000	nontarget	16.000000	na
38.465901	0.049960	39.000000	nontarget	1.000000	na
38.515862	0.049998	39.000000	nontarget	2.000000	na
38.565860	0.049529	39.000000	nontarget	3.000000	na
38.615389	0.049743	39.000000	nontarget	4.000000	na
38.665132	0.050000	39.000000	nontarget	5.000000	na
38.715132	0.050802	39.000000	nontarget	6.000000	na
38.765934	0.049937	39.000000	nontarget	7.000000	38.789502
38.815871	0.050048	39.000000	nontarget	8.000000	na
38.865920	0.049876	39.000000	nontarget	9.000000	na
38.915796	0.050000	39.000000	nontarget	10.000000	na
38.965796	0.050043	39.000000	nontarget	11.000000	na
39.015839	0.049988	39.000000	nontarget	12.000000	na
39.065826	0.049850	39.000000	nontarget	13.000000	na
39.115677	0.050040	39.000000	nontarget	14.000000	na
39.165717	0.049400	39.000000	nontarget	15.000000	na
39.215117	0.050529	39.000000	nontarget	16.000000	na
39.265646	0.050120	40.000000	target	1.000000	na
39.315766	0.049979	40.000000	target	2.000000	na
39.365745	0.050057	40.000000	target	3.000000	na
39.415802	0.049998	40.000000	target	4.000000	na
39.465800	0.050043	40.000000	target	5.000000	na
39.515843	0.049758	40.000000	target	6.000000	na
39.565601	0.050177	40.000000	target	7.000000	na
39.615778	0.049178	40.000000	target	8.000000	na
39.664956	0.050833	40.000000	target	9.000000	na
39.715789	0.049329	40.000000	target	10.000000	na
39.765118	0.050643	40.000000	target	11.000000	na
39.815761	0.050076	40.000000	target	12.000000	na
39.865837	0.050002	40.000000	target	13.000000	na
39.915839	0.049799	40.000000	target	14.000000	na
39.965638	0.049950	40.000000	target	15.000000	na
40.015588	0.049430	40.000000	target	16.000000	na
40.065019	0.050445	41.000000	target	1.000000	na
40.115464	0.050127	41.000000	target	2.000000	na
40.165591	0.050174	41.000000	target	3.000000	na
40.215765	0.049827	41.000000	target	4.000000	na
40.265592	0.049792	41.000000	target	5.000000	na
40.315384	0.049927	41.000000	target	6.000000	na
40.365311	0.050500	41.000000	target	7.000000	na
40.415811	0.049622	41.000000	target	8.000000	na
40.465433	0.050313	41.000000	target	9.000000	na
40.515746	0.049695	41.000000	target	10.000000	na
40.565441	0.050125	41.000000	target	11.000000	na
40.615566	0.049993	41.000000	target	12.000000	na
40.665559	0.050304	41.000000	target	13.000000	na
40.715862	0.049931	41.000000	target	14.000000	na
40.765793	0.049923	41.000000	target	15.000000	na
40.815716	0.050069	41.000000	target	16.000000	40.822774
40.865786	0.050027	42.000000	target	1.000000	40.872375
40.915813	0.049115	42.000000	target	2.000000	na
40.964928	0.050097	42.000000	target	3.000000	na
41.015025	0.050688	42.000000	target	4.000000	na
41.065712	0.050089	42.000000	target	5.000000	na
41.115801	0.049965	42.000000	target	6.000000	na
41.165766	0.050127	42.000000	target	7.000000	na
41.215894	0.049210	42.000000	target	8.000000	na
41.265103	0.050825	42.000000	target	9.000000	na
41.315928	0.049353	42.000000	target	10.000000	na
41.365281	0.050196	42.000000	target	11.000000	na
41.415477	0.049759	42.000000	target	12.000000	na
41.465236	0.050543	42.000000	target	13.000000	na
41.515779	0.050102	42.000000	target	14.000000	na
41.565881	0.049883	42.000000	target	15.000000	na
41.615764	0.049980	42.000000	target	16.000000	na
41.665744	0.049999	43.000000	nontarget	1.000000	na
41.715743	0.049336	43.000000	nontarget	2.000000	na
41.765079	0.050805	43.000000	nontarget	3.000000	na
41.815884	0.049885	43.000000	nontarget	4.000000	na
41.865770	0.049316	43.000000	nontarget	5.000000	na
41.915086	0.050665	43.000000	nontarget	6.000000	na
41.965751	0.049288	43.000000	nontarget	7.000000	na
42.015039	0.050842	43.000000	nontarget	8.000000	na
42.065881	0.049843	43.000000	nontarget	9.000000	na
42.115724	0.050057	43.000000	nontarget	10.000000	na
42.165781	0.049743	43.000000	nontarget	11.000000	na
42.215524	0.050281	43.000000	nontarget	12.000000	na
42.265805	0.050062	43.000000	nontarget	13.000000	42.277081
42.315868	0.050012	43.000000	nontarget	14.000000	na
42.365880	0.049947	43.000000	nontarget	15.000000	na
42.415827	0.048922	43.000000	nontarget	16.000000	na
42.464749	0.051028	44.000000	nontarget	1.000000	na
42.515776	0.049907	44.000000	nontarget	2.000000	na
42.565683	0.049572	44.000000	nontarget	3.000000	na
42.615255	0.050644	44.000000	nontarget	4.000000	na
42.665899	0.049969	44.000000	nontarget	5.000000	na
42.715868	0.049629	44.000000	nontarget	6.000000	na
42.765497	0.049918	44.000000	nontarget	7.000000	na
42.815415	0.050465	44.000000	nontarget	8.000000	na
42.865880	0.049592	44.000000	nontarget	9.000000	na
42.915472	0.050401	44.000000	nontarget	10.000000	na
42.965874	0.050102	44.000000	nontarget	11.000000	na
43.015975	0.049964	44.000000	nontarget	12.000000	na
43.065939	0.049562	44.000000	nontarget	13.000000	na
43.115501	0.050427	44.000000	nontarget	14.000000	na
43.165929	0.049759	44.000000	nontarget	15.000000	na
43.215687	0.050096	44.000000	nontarget	16.000000	na
43.265784	0.050061	45.000000	nontarget	1.000000	43.281123
43.315844	0.049822	45.000000	nontarget	2.000000	na
43.365666	0.049633	45.000000	nontarget	3.000000	na
43.415298	0.050048	45.000000	nontarget	4.000000	na
43.465346	0.050695	45.000000	nontarget	5.000000	na
43.516041	0.049226	45.000000	nontarget	6.000000	na
43.565267	0.050628	45.000000	nontarget	7.000000	na
43.615895	0.049783	45.000000	nontarget	8.000000	na
43.665678	0.049753	45.000000	nontarget	9.000000	na
43.715431	0.050353	45.000000	nontarget	10.000000	na
43.765784	0.049997	45.000000	nontarget	11.000000	na
43.815782	0.049477	45.000000	nontarget	12.000000	na
43.865259	0.050606	45.000000	nontarget	13.000000	na
43.915865	0.049915	45.000000	nontarget	14.000000	na
43.965779	0.050199	45.000000	nontarget	15.000000	na
44.015979	0.049688	45.000000	nontarget	16.000000	na
44.065667	0.050137	46.000000	nontarget	1.000000	na
44.115804	0.050152	46.000000	nontarget	2.000000	na
44.165956	0.049861	46.000000	nontarget	3.000000	44.172522
44.215817	0.050009	46.000000	nontarget	4.000000	na
44.265826	0.049482	46.000000	nontarget	5.000000	na
44.315308	0.050510	46.000000	nontarget	6.000000	na
44.365818	0.049832	46.000000	nontarget	7.000000	na
44.415651	0.050186	46.000000	nontarget	8.000000	na
44.465836	0.049603	46.000000	nontarget	9.000000	na
44.515439	0.050336	46.000000	nontarget	10.000000	na
44.565775	0.050132	46.000000	nontarget	11.000000	na
44.615907	0.049910	46.000000	nontarget	12.000000	na
44.665817	0.050064	46.000000	nontarget	13.000000	na
44.715881	0.049763	46.000000	nontarget	14.000000	na
44.765644	0.049735	46.000000	nontarget	15.000000	na
44.815380	0.050448	46.000000	nontarget	16.000000	na
44.865828	0.049471	47.000000	nontarget	1.000000	na
44.915299	0.050633	47.000000	nontarget	2.000000	na
44.965932	0.049721	47.000000	nontarget	3.000000	na
45.015653	0.050168	47.000000	nontarget	4.000000	na
45.065820	0.049714	47.000000	nontarget	5.000000	na
45.115534	0.053168	47.000000	nontarget	6.000000	na
45.168703	0.047122	47.000000	nontarget	7.000000	45.173468
45.215824	0.050012	47.000000	nontarget	8.000000	na
45.265837	0.049964	47.000000	nontarget	9.000000	na
45.315800	0.049974	47.000000	nontarget	10.000000	na
45.365774	0.050114	47.000000	nontarget	11.000000	na
45.415888	0.050074	47.000000	nontarget	12.000000	na
45.465962	0.050041	47.000000	nontarget	13.000000	na
45.516003	0.049813	47.000000	nontarget	14.000000	na
45.565816	0.049911	47.000000	nontarget	15.000000	na
45.615727	0.049485	47.000000	nontarget	16.000000	na
45.665212	0.050566	48.000000	target	1.000000	na
45.715778	0.049892	48.000000	target	2.000000	na
45.765670	0.049939	48.000000	target	3.000000	na
45.815609	0.049763	48.000000	target	4.000000	na
45.865372	0.050391	48.000000	target	5.000000	na
45.915764	0.049485	48.000000	target	6.000000	na
45.965249	0.050328	48.000000	target	7.000000	na
46.015577	0.050335	48.000000	target	8.000000	na
46.065912	0.049752	48.000000	target	9.000000	na
46.115664	0.050226	48.000000	target	10.000000	na
46.165889	0.049962	48.000000	target	11.000000	na
46.215851	0.049870	48.000000	target	12.000000	na
46.265721	0.050035	48.000000	target	13.000000	na
46.315756	0.049497	48.000000	target	14.000000	na
46.365253	0.050461	48.000000	target	15.000000	na
46.415714	0.050141	48.000000	target	16.000000	na
46.465855	0.049645	49.000000	nontarget	1.000000	na
46.515500	0.050307	49.000000	nontarget	2.000000	na
46.565807	0.050072	49.000000	nontarget	3.000000	na
46.615879	0.050479	49.000000	nontarget	4.000000	na
46.666358	0.048799	49.000000	nontarget	5.000000	46.671422
46.715157	0.050966	49.000000	nontarget	6.000000	na
46.766123	0.049235	49.000000	nontarget	7.000000	na
46.815359	0.050275	49.000000	nontarget	8.000000	na
46.865634	0.049670	49.000000	nontarget	9.000000	na
46.915304	0.050469	49.000000	nontarget	10.000000	na
46.965773	0.050136	49.000000	nontarget	11.000000	na
47.015908	0.049926	49.000000	nontarget	12.000000	na
47.065834	0.049732	49.000000	nontarget	13.000000	na
47.115566	0.050297	49.000000	nontarget	14.000000	na
47.165863	0.049940	49.000000	nontarget	15.000000	na
47.215803	0.050077	49.000000	nontarget	16.000000	na
47.265880	0.049670	50.000000	nontarget	1.000000	na
47.315550	0.050266	50.000000	nontarget	2.000000	na
47.365815	0.049888	50.000000	nontarget	3.000000	na
47.415704	0.050061	50.000000	nontarget	4.000000	na
47.465765	0.050046	50.000000	nontarget	5.000000	na
47.515811	0.049964	50.000000	nontarget	6.000000	na
47.565775	0.050038	50.000000	nontarget	7.000000	na
47.615813	0.049984	50.000000	nontarget	8.000000	na
47.665797	0.050077	50.000000	nontarget	9.000000	47.693085
47.715874	0.049878	50.000000	nontarget	10.000000	na
47.765752	0.050136	50.000000	nontarget	11.000000	na
47.815887	0.049667	50.000000	nontarget	12.000000	na
47.865554	0.050219	50.000000	nontarget	13.000000	na
47.915774	0.049974	50.000000	nontarget	14.000000	na
47.965747	0.050136	50.000000	nontarget	15.000000	na
48.015884	0.049955	50.000000	nontarget	16.000000	na
48.065838	0.049937	51.000000	nontarget	1.000000	na
48.115776	0.049329	51.000000	nontarget	2.000000	na
48.165105	0.050579	51.000000	nontarget	3.000000	na
48.215684	0.049501	51.000000	nontarget	4.000000	na
48.265185	0.049949	51.000000	nontarget	5.000000	na
48.315134	0.050489	51.000000	nontarget	6.000000	na
48.365623	0.049567	51.000000	nontarget	7.000000	na
48.415190	0.050563	51.000000	nontarget	8.000000	na
48.465752	0.049408	51.000000	nontarget	9.000000	na
48.515161	0.050244	51.000000	nontarget	10.000000	na
48.565404	0.049822	51.000000	nontarget	11.000000	na
48.615226	0.050421	51.000000	nontarget	12.000000	na
48.665647	0.050186	51.000000	nontarget	13.000000	48.675050
48.715833	0.050031	51.000000	nontarget	14.000000	na
48.765865	0.049945	51.000000	nontarget	15.000000	na
48.815810	0.049962	51.000000	nontarget	16.000000	na
48.865772	0.049957	52.000000	nontarget	1.000000	na
48.915729	0.049935	52.000000	nontarget	2.000000	na
48.965665	0.050191	52.000000	nontarget	3.000000	na
49.015856	0.050027	52.000000	nontarget	4.000000	na
49.065883	0.049958	52.000000	nontarget	5.000000	na
49.115841	0.049605	52.000000	nontarget	6.000000	na
49.165446	0.050058	52.000000	nontarget	7.000000	na
49.215504	0.050032	52.000000	nontarget	8.000000	na
49.265536	0.050228	52.000000	nontarget	9.000000	na
49.315764	0.049455	52.000000	nontarget	10.000000	na
49.365219	0.050591	52.000000	nontarget	11.000000	na
49.415809	0.050045	52.000000	nontarget	12.000000	na
49.465854	0.049379	52.000000	nontarget	13.000000	na
49.515233	0.050545	52.000000	nontarget	14.000000	na
49.565779	0.049519	52.000000	nontarget	15.000000	na
49.615298	0.049826	52.000000	nontarget	16.000000	49.635032
49.665124	0.050750	53.000000	nontarget	1.000000	49.671904
49.715874	0.049303	53.000000	nontarget	2.000000	na
49.765177	0.050173	53.000000	nontarget	3.000000	na
49.815350	0.050449	53.000000	nontarget	4.000000	na
49.865799	0.049801	53.000000	nontarget	5.000000	na
49.915600	0.049535	53.000000	nontarget	6.000000	na
49.965135	0.050751	53.000000	nontarget	7.000000	na
50.015886	0.049934	53.000000	nontarget	8.000000	na
50.065820	0.049956	53.000000	nontarget	9.000000	na
50.115776	0.049525	53.000000	nontarget	10.000000	na
50.165301	0.049812	53.000000	nontarget	11.000000	na
50.215113	0.050309	53.000000	nontarget	12.000000	na
50.265422	0.049759	53.000000	nontarget	13.000000	na
50.315181	0.050656	53.000000	nontarget	14.000000	na
50.365836	0.049916	53.000000	nontarget	15.000000	na
50.415752	0.049369	53.000000	nontarget	16.000000	na
50.465121	0.050348	54.000000	target	1.000000	na
50.515469	0.050294	54.000000	target	2.000000	na
50.565764	0.050036	54.000000	target	3.000000	na
50.615799	0.049835	54.000000	target	4.000000	na
50.665634	0.050163	54.000000	target	5.000000	na
50.715797	0.049323	54.000000	target	6.000000	na
50.765120	0.050588	54.000000	target	7.000000	na
50.815708	0.050067	54.000000	target	8.000000	na
50.865775	0.049446	54.000000	target	9.000000	na
50.915221	0.050577	54.000000	target	10.000000	na
50.965798	0.050094	54.000000	target	11.000000	na
51.015892	0.049987	54.000000	target	12.000000	na
51.065879	0.049228	54.000000	target	13.000000	na
51.115108	0.050718	54.000000	target	14.000000	na
51.165825	0.049974	54.000000	target	15.000000	na
51.215799	0.049530	54.000000	target	16.000000	na
51.265329	0.050072	55.000000	nontarget	1.000000	51.277946
51.315400	0.049948	55.000000	nontarget	2.000000	na
51.365349	0.049832	55.000000	nontarget	3.000000	na
51.415181	0.050511	55.000000	nontarget	4.000000	na
51.465691	0.049271	55.000000	nontarget	5.000000	na
51.514962	0.050832	55.000000	nontarget	6.000000	na
51.565794	0.049397	55.000000	nontarget	7.000000	na
51.615190	0.049978	55.000000	nontarget	8.000000	na
51.665168	0.050500	55.000000	nontarget	9.000000	na
51.715668	0.049317	55.000000	nontarget	10.000000	na
51.764985	0.050808	55.000000	nontarget	11.000000	na
51.815794	0.049349	55.000000	nontarget	12.000000	na
51.865143	0.050306	55.000000	nontarget	13.000000	na
51.915449	0.050176	55.000000	nontarget	14.000000	na
51.965625	0.050236	55.000000	nontarget	15.000000	na
52.015861	0.049797	55.000000	nontarget	16.000000	na
52.065657	0.050161	56.000000	nontarget	1.000000	52.073519
52.115819	0.049998	56.000000	nontarget	2.000000	na
52.165817	0.049982	56.000000	nontarget	3.000000	na
52.215799	0.049958	56.000000	nontarget	4.000000	na
52.265757	0.049904	56.000000	nontarget	5.000000	na
52.315661	0.049489	56.000000	nontarget	6.000000	na
52.365150	0.050650	56.000000	nontarget	7.000000	na
52.415800	0.049976	56.000000	nontarget	8.000000	na
52.465775	0.049415	56.000000	nontarget	9.000000	na
52.515190	0.050604	56.000000	nontarget	10.000000	na
52.565794	0.049986	56.000000	nontarget	11.000000	na
52.615781	0.049919	56.000000	nontarget	12.000000	na
52.665700	0.050092	56.000000	nontarget	13.000000	na
52.715791	0.049315	56.000000	nontarget	14.000000	na
52.765107	0.050221	56.000000	nontarget	15.000000	na
52.815328	0.050308	56.000000	nontarget	16.000000	na
52.865636	0.049930	57.000000	target	1.000000	na
52.915566	0.049523	57.000000	target	2.000000	na
52.965088	0.049869	57.000000	target	3.000000	na
53.014958	0.050778	57.000000	target	4.000000	na
53.065735	0.050061	57.000000	target	5.000000	na
53.115796	0.050020	57.000000	target	6.000000	na
53.165816	0.049962	57.000000	target	7.000000	na
53.215778	0.050001	57.000000	target	8.000000	na
53.265779	0.049961	57.000000	target	9.000000	na
53.315740	0.049799	57.000000	target	10.000000	na
53.365539	0.050092	57.000000	target	11.000000	na
53.415632	0.049761	57.000000	target	12.000000	na
53.465392	0.050346	57.000000	target	13.000000	na
53.515738	0.050122	57.000000	target	14.000000	na
53.565860	0.049724	57.000000	target	15.000000	na
53.615584	0.050190	57.000000	target	16.000000	na
53.665774	0.049178	58.000000	nontarget	1.000000	53.689050
53.714952	0.050285	58.000000	nontarget	2.000000	na
53.765238	0.049953	58.000000	nontarget	3.000000	na
53.815190	0.049911	58.000000	nontarget	4.000000	na
53.865101	0.050006	58.000000	nontarget	5.000000	na
53.915108	0.050483	58.000000	nontarget	6.000000	na
53.965591	0.050459	58.000000	nontarget	7.000000	na
54.016050	0.049157	58.000000	nontarget	8.000000	na
54.065207	0.050006	58.000000	nontarget	9.000000	na
54.115212	0.050592	58.000000	nontarget	10.000000	na
54.165804	0.049986	58.000000	nontarget	11.000000	na
54.215791	0.049971	58.000000	nontarget	12.000000	na
54.265761	0.050009	58.000000	nontarget	13.000000	na
54.315770	0.049997	58.000000	nontarget	14.000000	na
54.365768	0.049336	58.000000	nontarget	15.000000	na
54.415104	0.050580	58.000000	nontarget	16.000000	na
54.465684	0.049457	59.000000	nontarget	1.000000	na
54.515141	0.050631	59.000000	nontarget	2.000000	na
54.565772	0.049868	59.000000	nontarget	3.000000	na
54.615641	0.050030	59.000000	nontarget	4.000000	na
54.665671	0.050270	59.000000	nontarget	5.000000	54.672072
54.715941	0.049685	59.000000	nontarget	6.000000	na
54.765626	0.050125	59.000000	nontarget	7.000000	na
54.815751	0.049850	59.000000	nontarget	8.000000	na
54.865601	0.050313	59.000000	nontarget	9.000000	na
54.915914	0.049849	59.000000	nontarget	10.000000	na
54.965763	0.049616	59.000000	nontarget	11.000000	na
55.015379	0.049958	59.000000	nontarget	12.000000	na
55.065337	0.050461	59.000000	nontarget	13.000000	na
55.115798	0.049920	59.000000	nontarget	14.000000	na
55.165718	0.050009	59.000000	nontarget	15.000000	na
55.215727	0.049601	59.000000	nontarget	16.000000	na
55.265327	0.050047	60.000000	nontarget	1.000000	na
55.315375	0.049685	60.000000	nontarget	2.000000	na
55.365059	0.050692	60.000000	nontarget	3.000000	na
55.415751	0.049499	60.000000	nontarget	4.000000	na
55.465251	0.050320	60.000000	nontarget	5.000000	na
55.515570	0.050176	60.000000	nontarget	6.000000	na
55.565746	0.049904	60.000000	nontarget	7.000000	na
55.615651	0.050276	60.000000	nontarget	8.000000	55.622029
55.665927	0.049838	60.000000	nontarget	9.000000	na
55.715765	0.050087	60.000000	nontarget	10.000000	na
55.765852	0.049208	60.000000	nontarget	11.000000	na
55.815061	0.050711	60.000000	nontarget	12.000000	na
55.865771	0.049929	60.000000	nontarget	13.000000	na
55.915701	0.049353	60.000000	nontarget	14.000000	na
55.965053	0.050740	60.000000	nontarget	15.000000	na
56.015794	0.049990	60.000000	nontarget	16.000000	na
56.065783	0.049994	61.000000	nontarget	1.000000	na
56.115778	0.049443	61.000000	nontarget	2.000000	na
56.165220	0.050538	61.000000	nontarget	3.000000	na
56.215758	0.049396	61.000000	nontarget	4.000000	na
56.265154	0.050576	61.000000	nontarget	5.000000	na
56.315730	0.050031	61.000000	nontarget	6.000000	na
56.365761	0.049969	61.000000	nontarget	7.000000	na
56.415731	0.049657	61.000000	nontarget	8.000000	na
56.465387	0.052713	61.000000	nontarget	9.000000	na
56.518100	0.046813	61.000000	nontarget	10.000000	56.523413
56.564914	0.050853	61.000000	nontarget	11.000000	na
56.615767	0.049995	61.000000	nontarget	12.000000	na
56.665762	0.049935	61.000000	nontarget	13.000000	na
56.715697	0.049969	61.000000	nontarget	14.000000	na
56.765666	0.049915	61.000000	nontarget	15.000000	na
56.815581	0.050155	61.000000	nontarget	16.000000	na
56.865736	0.050149	62.000000	nontarget	1.000000	na
56.915885	0.048986	62.000000	nontarget	2.000000	na
56.964871	0.050919	62.000000	nontarget	3.000000	na
57.015790	0.049987	62.000000	nontarget	4.000000	na
57.065777	0.049990	62.000000	nontarget	5.000000	na
57.115767	0.049814	62.000000	nontarget	6.000000	na
57.165582	0.050269	62.000000	nontarget	7.000000	na
57.215851	0.049387	62.000000	nontarget	8.000000	na
57.265238	0.050430	62.000000	nontarget	9.000000	na
57.315668	0.049659	62.000000	nontarget	10.000000	na
57.365327	0.050410	62.000000	nontarget	11.000000	na
57.415737	0.049515	62.000000	nontarget	12.000000	na
57.465251	0.050227	62.000000	nontarget	13.000000	na
57.515479	0.050401	62.000000	nontarget	14.000000	57.522044
57.565880	0.049784	62.000000	nontarget	15.000000	na
57.615664	0.050098	62.000000	nontarget	16.000000	na
57.665761	0.049233	63.000000	nontarget	1.000000	na
57.714994	0.050249	63.000000	nontarget	2.000000	na
57.765243	0.050475	63.000000	nontarget	3.000000	na
57.815717	0.050015	63.000000	nontarget	4.000000	na
57.865732	0.049642	63.000000	nontarget	5.000000	na
57.915374	0.050275	63.000000	nontarget	6.000000	na
57.965649	0.050047	63.000000	nontarget	7.000000	na
58.015696	0.050001	63.000000	nontarget	8.000000	na
58.065697	0.050070	63.000000	nontarget	9.000000	na
58.115767	0.049793	63.000000	nontarget	10.000000	na
58.165561	0.050181	63.000000	nontarget	11.000000	na
58.215741	0.049608	63.000000	nontarget	12.000000	na
58.265350	0.050183	63.000000	nontarget	13.000000	na
58.315532	0.050128	63.000000	nontarget	14.000000	na
58.365661	0.050011	63.000000	nontarget	15.000000	na
58.415671	0.049859	63.000000	nontarget	16.000000	na
58.465530	0.050155	64.000000	nontarget	1.000000	58.471900
58.515684	0.050009	64.000000	nontarget	2.000000	na
58.565694	0.050045	64.000000	nontarget	3.000000	na
58.615739	0.050014	64.000000	nontarget	4.000000	na
58.665753	0.049851	64.000000	nontarget	5.000000	na
58.715604	0.050075	64.000000	nontarget	6.000000	na
58.765679	0.049195	64.000000	nontarget	7.000000	na
58.814874	0.050754	64.000000	nontarget	8.000000	na
58.865628	0.049950	64.000000	nontarget	9.000000	na
58.915577	0.049975	64.000000	nontarget	10.000000	na
58.965552	0.050138	64.000000	nontarget	11.000000	na
59.015691	0.049988	64.000000	nontarget	12.000000	na
59.065679	0.049941	64.000000	nontarget	13.000000	na
59.115619	0.050002	64.000000	nontarget	14.000000	na
59.165621	0.050263	64.000000	nontarget	15.000000	na
59.215884	0.049254	64.000000	nontarget	16.000000	na
59.265138	0.050096	65.000000	nontarget	1.000000	na
59.315235	0.050431	65.000000	nontarget	2.000000	59.321945
59.365666	0.049985	65.000000	nontarget	3.000000	na
59.415651	0.049309	65.000000	nontarget	4.000000	na
59.464960	0.050445	65.000000	nontarget	5.000000	na
59.515405	0.050219	65.000000	nontarget	6.000000	na
59.565624	0.050121	65.000000	nontarget	7.000000	na
59.615745	0.049896	65.000000	nontarget	8.000000	na
59.665641	0.049776	65.000000	nontarget	9.000000	na
59.715417	0.049992	65.000000	nontarget	10.000000	na
59.765410	0.050222	65.000000	nontarget	11.000000	na
59.815632	0.049996	65.000000	nontarget	12.000000	na
59.865628	0.050310	65.000000	nontarget	13.000000	na
59.915938	0.049707	65.000000	nontarget	14.000000	na
59.965645	0.050028	65.000000	nontarget	15.000000	na
60.015674	0.050004	65.000000	nontarget	16.000000	na
60.065678	0.049988	66.000000	nontarget	1.000000	60.072386
60.115666	0.050043	66.000000	nontarget	2.000000	na
60.165708	0.049930	66.000000	nontarget	3.000000	na
60.215638	0.050030	66.000000	nontarget	4.000000	na
60.265668	0.050342	66.000000	nontarget	5.000000	na
60.316010	0.049584	66.000000	nontarget	6.000000	na
60.365594	0.049718	66.000000	nontarget	7.000000	na
60.415312	0.050289	66.000000	nontarget	8.000000	na
60.465601	0.050011	66.000000	nontarget	9.000000	na
60.515612	0.050029	66.000000	nontarget	10.000000	na
60.565641	0.050045	66.000000	nontarget	11.000000	na
60.615686	0.049927	66.000000	nontarget	12.000000	na
60.665613	0.049749	66.000000	nontarget	13.000000	na
60.715362	0.050027	66.000000	nontarget	14.000000	na
60.765388	0.050243	66.000000	nontarget	15.000000	na
60.815631	0.049869	66.000000	nontarget	16.000000	na
60.865501	0.050364	67.000000	nontarget	1.000000	60.881075
60.915864	0.049779	67.000000	nontarget	2.000000	na
60.965644	0.049822	67.000000	nontarget	3.000000	na
61.015466	0.050310	67.000000	nontarget	4.000000	na
61.065776	0.049857	67.000000	nontarget	5.000000	na
61.115633	0.049644	67.000000	nontarget	6.000000	na
61.165277	0.050279	67.000000	nontarget	7.000000	na
61.215556	0.050039	67.000000	nontarget	8.000000	na
61.265595	0.050060	67.000000	nontarget	9.000000	na
61.315655	0.049895	67.000000	nontarget	10.000000	na
61.365550	0.050041	67.000000	nontarget	11.000000	na
61.415591	0.050044	67.000000	nontarget	12.000000	na
61.465636	0.049962	67.000000	nontarget	13.000000	na
61.515598	0.049901	67.000000	nontarget	14.000000	na
61.565499	0.050132	67.000000	nontarget	15.000000	na
61.615632	0.049575	67.000000	nontarget	16.000000	na
61.665206	0.050385	68.000000	nontarget	1.000000	na
61.715592	0.049908	68.000000	nontarget	2.000000	61.740035
61.765500	0.050001	68.000000	nontarget	3.000000	na
61.815501	0.050413	68.000000	nontarget	4.000000	na
61.865914	0.049256	68.000000	nontarget	5.000000	na
61.915170	0.050198	68.000000	nontarget	6.000000	na
61.965368	0.050694	68.000000	nontarget	7.000000	na
62.016062	0.049584	68.000000	nontarget	8.000000	na
62.065646	0.049590	68.000000	nontarget	9.000000	na
62.115236	0.050346	68.000000	nontarget	10.000000	na
62.165582	0.050590	68.000000	nontarget	11.000000	na
62.216172	0.049398	68.000000	nontarget	12.000000	na
62.265569	0.050008	68.000000	nontarget	13.000000	na
62.315577	0.050384	68.000000	nontarget	14.000000	na
62.365961	0.049627	68.000000	nontarget	15.000000	na
62.415588	0.050181	68.000000	nontarget	16.000000	na
62.465768	0.049567	69.000000	nontarget	1.000000	na
62.515335	0.050560	69.000000	nontarget	2.000000	na
62.565895	0.049533	69.000000	nontarget	3.000000	na
62.615428	0.051663	69.000000	nontarget	4.000000	na
62.667091	0.048494	69.000000	nontarget	5.000000	62.672505
62.715586	0.049812	69.000000	nontarget	6.000000	na
62.765398	0.050646	69.000000	nontarget	7.000000	na
62.816044	0.049532	69.000000	nontarget	8.000000	na
62.865576	0.049819	69.000000	nontarget	9.000000	na
62.915395	0.049753	69.000000	nontarget	10.000000	na
62.965148	0.050596	69.000000	nontarget	11.000000	na
63.015744	0.049906	69.000000	nontarget	12.000000	na
63.065650	0.049889	69.000000	nontarget	13.000000	na
63.115539	0.050190	69.000000	nontarget	14.000000	na
63.165730	0.049515	69.000000	nontarget	15.000000	na
63.215245	0.050359	69.000000	nontarget	16.000000	na
63.265604	0.049952	70.000000	nontarget	1.000000	na
63.315556	0.050006	70.000000	nontarget	2.000000	na
63.365561	0.049710	70.000000	nontarget	3.000000	na
63.415271	0.050300	70.000000	nontarget	4.000000	na
63.465571	0.049999	70.000000	nontarget	5.000000	na
63.515569	0.050246	70.000000	nontarget	6.000000	na
63.565815	0.049088	70.000000	nontarget	7.000000	na
63.614903	0.051061	70.000000	nontarget	8.000000	63.623354
63.665965	0.049749	70.000000	nontarget	9.000000	na
63.715714	0.049077	70.000000	nontarget	10.000000	na
63.764791	0.050393	70.000000	nontarget	11.000000	na
63.815184	0.050723	70.000000	nontarget	12.000000	na
63.865906	0.049649	70.000000	nontarget	13.000000	na
63.915556	0.050241	70.000000	nontarget	14.000000	na
63.965796	0.049919	70.000000	nontarget	15.000000	na
64.015715	0.049847	70.000000	nontarget	16.000000	na
64.065561	0.050002	71.000000	nontarget	1.000000	na
64.115564	0.050287	71.000000	nontarget	2.000000	na
64.165851	0.049747	71.000000	nontarget	3.000000	na
64.215598	0.049962	71.000000	nontarget	4.000000	na
64.265560	0.049997	71.000000	nontarget	5.000000	na
64.315557	0.050334	71.000000	nontarget	6.000000	na
64.365891	0.049635	71.000000	nontarget	7.000000	na
64.415525	0.050091	71.000000	nontarget	8.000000	na
64.465617	0.049990	71.000000	nontarget	9.000000	64.471931
64.515607	0.049408	71.000000	nontarget	10.000000	na
64.565015	0.050571	71.000000	nontarget	11.000000	na
64.615586	0.050026	71.000000	nontarget	12.000000	na
64.665612	0.049707	71.000000	nontarget	13.000000	na
64.715318	0.050299	71.000000	nontarget	14.000000	na
64.765618	0.049937	71.000000	nontarget	15.000000	na
64.815555	0.049767	71.000000	nontarget	16.000000	na
64.865322	0.050244	72.000000	nontarget	1.000000	na
64.915567	0.049557	72.000000	nontarget	2.000000	na
64.965124	0.050453	72.000000	nontarget	3.000000	na
65.015577	0.050004	72.000000	nontarget	4.000000	na
65.065581	0.049974	72.000000	nontarget	5.000000	na
65.115555	0.049983	72.000000	nontarget	6.000000	na
65.165538	0.050357	72.000000	nontarget	7.000000	na
65.215895	0.049650	72.000000	nontarget	8.000000	na
65.265546	0.049224	72.000000	nontarget	9.000000	na
65.314770	0.050843	72.000000	nontarget	10.000000	na
65.365612	0.050403	72.000000	nontarget	11.000000	65.376759
65.416015	0.049715	72.000000	nontarget	12.000000	na
65.465730	0.049988	72.000000	nontarget	13.000000	na
65.515717	0.049869	72.000000	nontarget	14.000000	na
65.565587	0.049974	72.000000	nontarget	15.000000	na
65.615560	0.049988	72.000000	nontarget	16.000000	na
65.665548	0.050017	73.000000	nontarget	1.000000	na
65.715565	0.050005	73.000000	nontarget	2.000000	na
65.765570	0.049492	73.000000	nontarget	3.000000	na
65.815062	0.050475	73.000000	nontarget	4.000000	na
65.865536	0.049999	73.000000	nontarget	5.000000	na
65.915535	0.049400	73.000000	nontarget	6.000000	na
65.964935	0.050873	73.000000	nontarget	7.000000	na
66.015808	0.049592	73.000000	nontarget	8.000000	na
66.065401	0.050161	73.000000	nontarget	9.000000	na
66.115561	0.049967	73.000000	nontarget	10.000000	na
66.165528	0.050271	73.000000	nontarget	11.000000	na
66.215799	0.049800	73.000000	nontarget	12.000000	na
66.265599	0.049938	73.000000	nontarget	13.000000	66.272045
66.315537	0.049804	73.000000	nontarget	14.000000	na
66.365341	0.050134	73.000000	nontarget	15.000000	na
66.415475	0.050183	73.000000	nontarget	16.000000	na
66.465658	0.049435	74.000000	nontarget	1.000000	na
66.515093	0.050498	74.000000	nontarget	2.000000	na
66.565591	0.049960	74.000000	nontarget	3.000000	na
66.615551	0.050028	74.000000	nontarget	4.000000	na
66.665579	0.049998	74.000000	nontarget	5.000000	na
66.715578	0.049942	74.000000	nontarget	6.000000	na
66.765519	0.049986	74.000000	nontarget	7.000000	na
66.815505	0.050300	74.000000	nontarget	8.000000	na
66.865805	0.049173	74.000000	nontarget	9.000000	na
66.914979	0.050577	74.000000	nontarget	10.000000	na
66.965555	0.049984	74.000000	nontarget	11.000000	na
67.015539	0.049868	74.000000	nontarget	12.000000	na
67.065407	0.050147	74.000000	nontarget	13.000000	na
67.115554	0.049149	74.000000	nontarget	14.000000	na
67.164703	0.051133	74.000000	nontarget	15.000000	67.171913
67.215836	0.049757	74.000000	nontarget	16.000000	na
67.265594	0.049510	75.000000	nontarget	1.000000	67.272134
67.315103	0.050713	75.000000	nontarget	2.000000	na
67.365816	0.049440	75.000000	nontarget	3.000000	na
67.415256	0.050294	75.000000	nontarget	4.000000	na
67.465551	0.049952	75.000000	nontarget	5.000000	na
67.515503	0.049972	75.000000	nontarget	6.000000	na
67.565475	0.050407	75.000000	nontarget	7.000000	na
67.615883	0.049900	75.000000	nontarget	8.000000	na
67.665782	0.049452	75.000000	nontarget	9.000000	na
67.715235	0.050322	75.000000	nontarget	10.000000	na
67.765557	0.049762	75.000000	nontarget	11.000000	na
67.815319	0.050218	75.000000	nontarget	12.000000	na
67.865537	0.050012	75.000000	nontarget	13.000000	na
67.915548	0.049960	75.000000	nontarget	14.000000	na
67.965508	0.050123	75.000000	nontarget	15.000000	na
68.015631	0.049771	75.000000	nontarget	16.000000	68.022200
68.065402	0.050155	76.000000	nontarget	1.000000	68.071972
68.115557	0.049627	76.000000	nontarget	2.000000	na
68.165184	0.050738	76.000000	nontarget	3.000000	na
68.215921	0.049574	76.000000	nontarget	4.000000	na
68.265496	0.049938	76.000000	nontarget	5.000000	na
68.315433	0.050112	76.000000	nontarget	6.000000	na
68.365545	0.049980	76.000000	nontarget	7.000000	na
68.415525	0.050013	76.000000	nontarget	8.000000	na
68.465538	0.049599	76.000000	nontarget	9.000000	na
68.515138	0.050329	76.000000	nontarget	10.000000	na
68.565467	0.049897	76.000000	nontarget	11.000000	na
68.615364	0.050163	76.000000	nontarget	12.000000	na
68.665528	0.049589	76.000000	nontarget	13.000000	na
68.715117	0.050414	76.000000	nontarget	14.000000	na
68.765531	0.050293	76.000000	nontarget	15.000000	na
68.815825	0.049648	76.000000	nontarget	16.000000	na
68.865473	0.050060	77.000000	nontarget	1.000000	68.888290
68.915533	0.049986	77.000000	nontarget	2.000000	na
68.965519	0.049380	77.000000	nontarget	3.000000	na
69.014899	0.050161	77.000000	nontarget	4.000000	na
69.065060	0.050469	77.000000	nontarget	5.000000	na
69.115528	0.049969	77.000000	nontarget	6.000000	na
69.165498	0.050324	77.000000	nontarget	7.000000	na
69.215821	0.049673	77.000000	nontarget	8.000000	na
69.265494	0.049696	77.000000	nontarget	9.000000	na
69.315191	0.050695	77.000000	nontarget	10.000000	na
69.365886	0.050000	77.000000	nontarget	11.000000	na
69.415886	0.049663	77.000000	nontarget	12.000000	na
69.465549	0.049628	77.000000	nontarget	13.000000	na
69.515177	0.050605	77.000000	nontarget	14.000000	na
69.565782	0.049934	77.000000	nontarget	15.000000	na
69.615716	0.049794	77.000000	nontarget	16.000000	na
69.665509	0.050102	78.000000	nontarget	1.000000	na
69.715611	0.049885	78.000000	nontarget	2.000000	na
69.765497	0.050016	78.000000	nontarget	3.000000	na
69.815513	0.049813	78.000000	nontarget	4.000000	69.831284
69.865326	0.050206	78.000000	nontarget	5.000000	na
69.915532	0.049761	78.000000	nontarget	6.000000	na
69.965294	0.050273	78.000000	nontarget	7.000000	na
70.015567	0.049961	78.000000	nontarget	8.000000	na
70.065528	0.049850	78.000000	nontarget	9.000000	na
70.115378	0.050360	78.000000	nontarget	10.000000	na
70.165738	0.050019	78.000000	nontarget	11.000000	na
70.215757	0.049697	78.000000	nontarget	12.000000	na
70.265454	0.049696	78.000000	nontarget	13.000000	na
70.315150	0.050430	78.000000	nontarget	14.000000	na
70.365580	0.049833	78.000000	nontarget	15.000000	na
70.415413	0.050349	78.000000	nontarget	16.000000	na
70.465762	0.049262	79.000000	nontarget	1.000000	na
70.515024	0.050247	79.000000	nontarget	2.000000	na
70.565271	0.050455	79.000000	nontarget	3.000000	na
70.615725	0.049654	79.000000	nontarget	4.000000	na
70.665380	0.050092	79.000000	nontarget	5.000000	na
70.715472	0.050051	79.000000	nontarget	6.000000	70.745780
70.765524	0.049968	79.000000	nontarget	7.000000	na
70.815492	0.050077	79.000000	nontarget	8.000000	na
70.865569	0.049495	79.000000	nontarget	9.000000	na
70.915064	0.050649	79.000000	nontarget	10.000000	na
70.965713	0.050030	79.000000	nontarget	11.000000	na
71.015743	0.050128	79.000000	nontarget	12.000000	na
71.065871	0.049671	79.000000	nontarget	13.000000	na
71.115542	0.050137	79.000000	nontarget	14.000000	na
71.165678	0.049801	79.000000	nontarget	15.000000	na
71.215479	0.049963	79.000000	nontarget	16.000000	na
71.265442	0.050265	80.000000	nontarget	1.000000	na
71.315707	0.050118	80.000000	nontarget	2.000000	na
71.365825	0.049955	80.000000	nontarget	3.000000	na
71.415780	0.049952	80.000000	nontarget	4.000000	na
71.465732	0.049591	80.000000	nontarget	5.000000	na
71.515323	0.050438	80.000000	nontarget	6.000000	na
71.565761	0.050039	80.000000	nontarget	7.000000	na
71.615801	0.049641	80.000000	nontarget	8.000000	na
71.665441	0.050546	80.000000	nontarget	9.000000	na
71.715987	0.049840	80.000000	nontarget	10.000000	71.722458
71.765827	0.049938	80.000000	nontarget	11.000000	na
71.815765	0.050027	80.000000	nontarget	12.000000	na
71.865792	0.049608	80.000000	nontarget	13.000000	na
71.915400	0.050063	80.000000	nontarget	14.000000	na
71.965463	0.049816	80.000000	nontarget	15.000000	na
72.015279	0.050228	80.000000	nontarget	16.000000	na
72.065507	0.049957	81.000000	nontarget	1.000000	na
72.115464	0.050254	81.000000	nontarget	2.000000	na
72.165718	0.049737	81.000000	nontarget	3.000000	na
72.215455	0.049966	81.000000	nontarget	4.000000	na
72.265421	0.049682	81.000000	nontarget	5.000000	na
72.315103	0.050584	81.000000	nontarget	6.000000	na
72.365686	0.049687	81.000000	nontarget	7.000000	na
72.415374	0.049558	81.000000	nontarget	8.000000	na
72.464932	0.050731	81.000000	nontarget	9.000000	na
72.515662	0.049670	81.000000	nontarget	10.000000	na
72.565332	0.050543	81.000000	nontarget	11.000000	na
72.615875	0.049909	81.000000	nontarget	12.000000	na
72.665783	0.049630	81.000000	nontarget	13.000000	na
72.715413	0.050382	81.000000	nontarget	14.000000	72.722191
72.765795	0.049955	81.000000	nontarget	15.000000	na
72.815750	0.049991	81.000000	nontarget	16.000000	na
72.865741	0.049413	82.000000	nontarget	1.000000	72.872307
72.915154	0.050646	82.000000	nontarget	2.000000	na
72.965800	0.049766	82.000000	nontarget	3.000000	na
73.015566	0.049962	82.000000	nontarget	4.000000	na
73.065528	0.050623	82.000000	nontarget	5.000000	na
73.116151	0.049035	82.000000	nontarget	6.000000	na
73.165186	0.050527	82.000000	nontarget	7.000000	na
73.215713	0.049707	82.000000	nontarget	8.000000	na
73.265420	0.050324	82.000000	nontarget	9.000000	na
73.315744	0.049672	82.000000	nontarget	10.000000	na
73.365417	0.050385	82.000000	nontarget	11.000000	na
73.415802	0.049936	82.000000	nontarget	12.000000	na
73.465738	0.049969	82.000000	nontarget	13.000000	na
73.515707	0.050459	82.000000	nontarget	14.000000	na
73.566166	0.049599	82.000000	nontarget	15.000000	na
73.615765	0.049999	82.000000	nontarget	16.000000	73.638592
73.665764	0.049979	83.000000	nontarget	1.000000	73.672333
73.715743	0.049544	83.000000	nontarget	2.000000	na
73.765287	0.050119	83.000000	nontarget	3.000000	na
73.815406	0.049984	83.000000	nontarget	4.000000	na
73.865389	0.050015	83.000000	nontarget	5.000000	na
73.915405	0.049996	83.000000	nontarget	6.000000	na
73.965401	0.050056	83.000000	nontarget	7.000000	na
74.015457	0.050307	83.000000	nontarget	8.000000	na
74.065763	0.049662	83.000000	nontarget	9.000000	na
74.115425	0.049962	83.000000	nontarget	10.000000	na
74.165387	0.050007	83.000000	nontarget	11.000000	na
74.215394	0.050016	83.000000	nontarget	12.000000	na
74.265410	0.049978	83.000000	nontarget	13.000000	na
74.315387	0.050340	83.000000	nontarget	14.000000	na
74.365728	0.049981	83.000000	nontarget	15.000000	na
74.415709	0.049510	83.000000	nontarget	16.000000	na
74.465219	0.050177	84.000000	nontarget	1.000000	na
74.515397	0.050299	84.000000	nontarget	2.000000	na
74.565696	0.050095	84.000000	nontarget	3.000000	na
74.615791	0.050116	84.000000	nontarget	4.000000	74.642888
74.665906	0.049454	84.000000	nontarget	5.000000	na
74.715360	0.050073	84.000000	nontarget	6.000000	na
74.765433	0.050302	84.000000	nontarget	7.000000	na
74.815735	0.049642	84.000000	nontarget	8.000000	na
74.865377	0.050668	84.000000	nontarget	9.000000	na
74.916045	0.049685	84.000000	nontarget	10.000000	na
74.965731	0.049701	84.000000	nontarget	11.000000	na
75.015432	0.049994	84.000000	nontarget	12.000000	na
75.065426	0.049989	84.000000	nontarget	13.000000	na
75.115415	0.050450	84.000000	nontarget	14.000000	na
75.165865	0.049844	84.000000	nontarget	15.000000	na
75.215709	0.050128	84.000000	nontarget	16.000000	na
75.265837	0.049520	85.000000	nontarget	1.000000	na
75.315357	0.050407	85.000000	nontarget	2.000000	na
75.365764	0.049953	85.000000	nontarget	3.000000	na
75.415717	0.049494	85.000000	nontarget	4.000000	na
75.465211	0.050154	85.000000	nontarget	5.000000	na
75.515365	0.050305	85.000000	nontarget	6.000000	na
75.565669	0.049198	85.000000	nontarget	7.000000	na
75.614867	0.050566	85.000000	nontarget	8.000000	75.623416
75.665433	0.049905	85.000000	nontarget	9.000000	na
75.715339	0.050403	85.000000	nontarget	10.000000	na
75.765741	0.049637	85.000000	nontarget	11.000000	na
75.815378	0.050431	85.000000	nontarget	12.000000	na
75.865809	0.049361	85.000000	nontarget	13.000000	na
75.915170	0.050453	85.000000	nontarget	14.000000	na
75.965623	0.049793	85.000000	nontarget	15.000000	na
76.015416	0.050004	85.000000	nontarget	16.000000	na
76.065420	0.049990	86.000000	nontarget	1.000000	na
76.115410	0.050285	86.000000	nontarget	2.000000	na
76.165695	0.050019	86.000000	nontarget	3.000000	na
76.215714	0.050021	86.000000	nontarget	4.000000	na
76.265735	0.050055	86.000000	nontarget	5.000000	na
76.315790	0.049581	86.000000	nontarget	6.000000	na
76.365371	0.050385	86.000000	nontarget	7.000000	na
76.415756	0.050022	86.000000	nontarget	8.000000	na
76.465778	0.049973	86.000000	nontarget	9.000000	na
76.515751	0.050022	86.000000	nontarget	10.000000	na
76.565772	0.049691	86.000000	nontarget	11.000000	76.597271
76.615463	0.049947	86.000000	nontarget	12.000000	na
76.665410	0.049990	86.000000	nontarget	13.000000	na
76.715400	0.050727	86.000000	nontarget	14.000000	na
76.766127	0.049267	86.000000	nontarget	15.000000	na
76.815394	0.050635	86.000000	nontarget	16.000000	na
76.866028	0.049315	87.000000	nontarget	1.000000	na
76.915343	0.050010	87.000000	nontarget	2.000000	na
76.965353	0.050313	87.000000	nontarget	3.000000	na
77.015666	0.049735	87.000000	nontarget	4.000000	na
77.065401	0.049972	87.000000	nontarget	5.000000	na
77.115372	0.050406	87.000000	nontarget	6.000000	na
77.165778	0.049416	87.000000	nontarget	7.000000	na
77.215194	0.050204	87.000000	nontarget	8.000000	na
77.265399	0.049921	87.000000	nontarget	9.000000	na
77.315320	0.050070	87.000000	nontarget	10.000000	na
77.365390	0.049945	87.000000	nontarget	11.000000	na
77.415335	0.050005	87.000000	nontarget	12.000000	na
77.465340	0.050572	87.000000	nontarget	13.000000	na
77.515912	0.050003	87.000000	nontarget	14.000000	na
77.565916	0.049900	87.000000	nontarget	15.000000	77.593580
77.615816	0.049585	87.000000	nontarget	16.000000	na
77.665401	0.050392	88.000000	nontarget	1.000000	77.671941
77.715793	0.050458	88.000000	nontarget	2.000000	na
77.766251	0.049569	88.000000	nontarget	3.000000	na
77.815820	0.049474	88.000000	nontarget	4.000000	na
77.865293	0.049986	88.000000	nontarget	5.000000	na
77.915279	0.050140	88.000000	nontarget	6.000000	na
77.965419	0.050391	88.000000	nontarget	7.000000	na
78.015810	0.049573	88.000000	nontarget	8.000000	na
78.065383	0.050654	88.000000	nontarget	9.000000	na
78.116036	0.049720	88.000000	nontarget	10.000000	na
78.165756	0.050003	88.000000	nontarget	11.000000	na
78.215760	0.050024	88.000000	nontarget	12.000000	na
78.265784	0.049974	88.000000	nontarget	13.000000	na
78.315757	0.049955	88.000000	nontarget	14.000000	na
78.365712	0.050067	88.000000	nontarget	15.000000	na
78.415779	0.049381	88.000000	nontarget	16.000000	na
78.465161	0.050151	89.000000	target	1.000000	na
78.515312	0.050036	89.000000	target	2.000000	na
78.565348	0.050400	89.000000	target	3.000000	na
78.615748	0.049569	89.000000	target	4.000000	na
78.665317	0.050030	89.000000	target	5.000000	na
78.715346	0.049974	89.000000	target	6.000000	na
78.765320	0.050486	89.000000	target	7.000000	na
78.815806	0.049976	89.000000	target	8.000000	na
78.865782	0.049812	89.000000	target	9.000000	na
78.915594	0.050228	89.000000	target	10.000000	na
78.965822	0.050233	89.000000	target	11.000000	na
79.016055	0.049112	89.000000	target	12.000000	na
79.065167	0.050137	89.000000	target	13.000000	na
79.115304	0.050039	89.000000	target	14.000000	na
79.165342	0.049956	89.000000	target	15.000000	na
79.215299	0.050174	89.000000	target	16.000000	na
79.265473	0.050316	90.000000	nontarget	1.000000	na
79.315789	0.049290	90.000000	nontarget	2.000000	na
79.365079	0.050742	90.000000	nontarget	3.000000	79.371679
79.415821	0.049995	90.000000	nontarget	4.000000	na
79.465816	0.049900	90.000000	nontarget	5.000000	na
79.515716	0.049890	90.000000	nontarget	6.000000	na
79.565606	0.050180	90.000000	nontarget	7.000000	na
79.615786	0.050012	90.000000	nontarget	8.000000	na
79.665798	0.050165	90.000000	nontarget	9.000000	na
79.715963	0.049373	90.000000	nontarget	10.000000	na
79.765336	0.050435	90.000000	nontarget	11.000000	na
79.815772	0.049988	90.000000	nontarget	12.000000	na
79.865759	0.049580	90.000000	nontarget	13.000000	na
79.915339	0.050418	90.000000	nontarget	14.000000	na
79.965757	0.049957	90.000000	nontarget	15.000000	na
80.015714	0.050292	90.000000	nontarget	16.000000	na
80.066006	0.049555	91.000000	nontarget	1.000000	na
80.115561	0.050133	91.000000	nontarget	2.000000	na
80.165694	0.049659	91.000000	nontarget	3.000000	80.177473
80.215353	0.050731	91.000000	nontarget	4.000000	na
80.266084	0.049953	91.000000	nontarget	5.000000	na
80.316037	0.049157	91.000000	nontarget	6.000000	na
80.365194	0.050570	91.000000	nontarget	7.000000	na
80.415764	0.049999	91.000000	nontarget	8.000000	na
80.465763	0.050015	91.000000	nontarget	9.000000	na
80.515778	0.049978	91.000000	nontarget	10.000000	na
80.565757	0.049617	91.000000	nontarget	11.000000	na
80.615374	0.050530	91.000000	nontarget	12.000000	na
80.665904	0.049550	91.000000	nontarget	13.000000	na
80.715454	0.049808	91.000000	nontarget	14.000000	na
80.765262	0.050767	91.000000	nontarget	15.000000	na
80.816029	0.049723	91.000000	nontarget	16.000000	na
80.865752	0.049887	92.000000	nontarget	1.000000	na
80.915639	0.049951	92.000000	nontarget	2.000000	na
80.965590	0.050305	92.000000	nontarget	3.000000	na
81.015895	0.048909	92.000000	nontarget	4.000000	na
81.064804	0.051016	92.000000	nontarget	5.000000	81.071398
81.115820	0.049982	92.000000	nontarget	6.000000	na
81.165802	0.049523	92.000000	nontarget	7.000000	na
81.215325	0.049701	92.000000	nontarget	8.000000	na
81.265026	0.050726	92.000000	nontarget	9.000000	na
81.315751	0.049831	92.000000	nontarget	10.000000	na
81.365583	0.049695	92.000000	nontarget	11.000000	na
81.415278	0.049989	92.000000	nontarget	12.000000	na
81.465267	0.050660	92.000000	nontarget	13.000000	na
81.515926	0.049750	92.000000	nontarget	14.000000	na
81.565676	0.049356	92.000000	nontarget	15.000000	na
81.615032	0.049884	92.000000	nontarget	16.000000	na
81.664916	0.050106	93.000000	nontarget	1.000000	na
81.715021	0.050485	93.000000	nontarget	2.000000	na
81.765506	0.050124	93.000000	nontarget	3.000000	na
81.815631	0.050366	93.000000	nontarget	4.000000	na
81.865996	0.049247	93.000000	nontarget	5.000000	na
81.915244	0.050132	93.000000	nontarget	6.000000	81.926451
81.965376	0.049667	93.000000	nontarget	7.000000	na
82.015043	0.050277	93.000000	nontarget	8.000000	na
82.065320	0.050253	93.000000	nontarget	9.000000	na
82.115573	0.049699	93.000000	nontarget	10.000000	na
82.165273	0.050483	93.000000	nontarget	11.000000	na
82.215756	0.049394	93.000000	nontarget	12.000000	na
82.265150	0.049916	93.000000	nontarget	13.000000	na
82.315065	0.049972	93.000000	nontarget	14.000000	na
82.365037	0.050508	93.000000	nontarget	15.000000	na
82.415545	0.049648	93.000000	nontarget	16.000000	na
82.465193	0.049806	94.000000	nontarget	1.000000	na
82.514999	0.050695	94.000000	nontarget	2.000000	na
82.565694	0.049497	94.000000	nontarget	3.000000	na
82.615192	0.050082	94.000000	nontarget	4.000000	na
82.665274	0.049967	94.000000	nontarget	5.000000	na
82.715241	0.050030	94.000000	nontarget	6.000000	na
82.765271	0.050550	94.000000	nontarget	7.000000	82.784912
82.815822	0.049985	94.000000	nontarget	8.000000	na
82.865806	0.049992	94.000000	nontarget	9.000000	na
82.915798	0.049707	94.000000	nontarget	10.000000	na
82.965505	0.050254	94.000000	nontarget	11.000000	na
83.015758	0.050217	94.000000	nontarget	12.000000	na
83.065976	0.049823	94.000000	nontarget	13.000000	na
83.115799	0.049559	94.000000	nontarget	14.000000	na
83.165358	0.049825	94.000000	nontarget	15.000000	na
83.215183	0.049799	94.000000	nontarget	16.000000	na
83.264983	0.050688	95.000000	nontarget	1.000000	na
83.315671	0.049740	95.000000	nontarget	2.000000	na
83.365411	0.049807	95.000000	nontarget	3.000000	na
83.415218	0.050525	95.000000	nontarget	4.000000	na
83.465743	0.049577	95.000000	nontarget	5.000000	na
83.515320	0.049707	95.000000	nontarget	6.000000	na
83.565028	0.050184	95.000000	nontarget	7.000000	na
83.615212	0.050773	95.000000	nontarget	8.000000	na
83.665985	0.049786	95.000000	nontarget	9.000000	na
83.715771	0.049775	95.000000	nontarget	10.000000	83.724640
83.765546	0.049762	95.000000	nontarget	11.000000	na
83.815308	0.049753	95.000000	nontarget	12.000000	na
83.865061	0.050974	95.000000	nontarget	13.000000	na
83.916034	0.049227	95.000000	nontarget	14.000000	na
83.965261	0.050505	95.000000	nontarget	15.000000	na
84.015767	0.049650	95.000000	nontarget	16.000000	na
84.065417	0.049664	96.000000	nontarget	1.000000	na
84.115081	0.050165	96.000000	nontarget	2.000000	na
84.165246	0.049977	96.000000	nontarget	3.000000	na
84.215223	0.050503	96.000000	nontarget	4.000000	na
84.265726	0.050083	96.000000	nontarget	5.000000	na
84.315809	0.049414	96.000000	nontarget	6.000000	na
84.365223	0.050629	96.000000	nontarget	7.000000	na
84.415852	0.049982	96.000000	nontarget	8.000000	na
84.465835	0.049599	96.000000	nontarget	9.000000	na
84.515434	0.050324	96.000000	nontarget	10.000000	na
84.565758	0.049458	96.000000	nontarget	11.000000	na
84.615215	0.049935	96.000000	nontarget	12.000000	na
84.665151	0.049869	96.000000	nontarget	13.000000	84.679855
84.715020	0.050863	96.000000	nontarget	14.000000	na
84.765883	0.049963	96.000000	nontarget	15.000000	na
84.815845	0.050201	96.000000	nontarget	16.000000	na
84.866046	0.049160	97.000000	nontarget	1.000000	na
84.915206	0.049986	97.000000	nontarget	2.000000	na
84.965192	0.050093	97.000000	nontarget	3.000000	na
85.015285	0.050595	97.000000	nontarget	4.000000	na
85.065879	0.049196	97.000000	nontarget	5.000000	na
85.115075	0.050686	97.000000	nontarget	6.000000	na
85.165761	0.050129	97.000000	nontarget	7.000000	na
85.215890	0.049808	97.000000	nontarget	8.000000	na
85.265699	0.049646	97.000000	nontarget	9.000000	na
85.315345	0.050482	97.000000	nontarget	10.000000	na
85.365827	0.050068	97.000000	nontarget	11.000000	na
85.415895	0.049968	97.000000	nontarget	12.000000	na
85.465863	0.049337	97.000000	nontarget	13.000000	na
85.515200	0.050637	97.000000	nontarget	14.000000	na
85.565837	0.049733	97.000000	nontarget	15.000000	na
85.615569	0.049554	97.000000	nontarget	16.000000	na
85.665124	0.050413	98.000000	nontarget	1.000000	na
85.715536	0.050312	98.000000	nontarget	2.000000	na
85.765849	0.049809	98.000000	nontarget	3.000000	85.781259
85.815658	0.050242	98.000000	nontarget	4.000000	na
85.865900	0.049943	98.000000	nontarget	5.000000	na
85.915844	0.049992	98.000000	nontarget	6.000000	na
85.965836	0.050053	98.000000	nontarget	7.000000	na
86.015889	0.049352	98.000000	nontarget	8.000000	na
86.065241	0.049984	98.000000	nontarget	9.000000	na
86.115224	0.049983	98.000000	nontarget	10.000000	na
86.165208	0.050644	98.000000	nontarget	11.000000	na
86.215852	0.049974	98.000000	nontarget	12.000000	na
86.265826	0.049532	98.000000	nontarget	13.000000	na
86.315358	0.050476	98.000000	nontarget	14.000000	na
86.365834	0.050030	98.000000	nontarget	15.000000	na
86.415864	0.049970	98.000000	nontarget	16.000000	na
86.465834	0.049403	99.000000	nontarget	1.000000	na
86.515237	0.050124	99.000000	nontarget	2.000000	na
86.565361	0.050306	99.000000	nontarget	3.000000	na
86.615667	0.049557	99.000000	nontarget	4.000000	na
86.665224	0.050737	99.000000	nontarget	5.000000	na
86.715961	0.049205	99.000000	nontarget	6.000000	na
86.765166	0.050079	99.000000	nontarget	7.000000	86.776310
86.815245	0.050022	99.000000	nontarget	8.000000	na
86.865267	0.049959	99.000000	nontarget	9.000000	na
86.915225	0.049971	99.000000	nontarget	10.000000	na
86.965196	0.050475	99.000000	nontarget	11.000000	na
87.015671	0.050223	99.000000	nontarget	12.000000	na
87.065894	0.049313	99.000000	nontarget	13.000000	na
87.115207	0.050681	99.000000	nontarget	14.000000	na
87.165888	0.049954	99.000000	nontarget	15.000000	na
87.215842	0.050007	99.000000	nontarget	16.000000	na
87.265848	0.049268	100.000000	nontarget	1.000000	na
87.315117	0.050698	100.000000	nontarget	2.000000	na
87.365815	0.050069	100.000000	nontarget	3.000000	na
87.415884	0.049296	100.000000	nontarget	4.000000	na
87.465180	0.050018	100.000000	nontarget	5.000000	na
87.515198	0.050471	100.000000	nontarget	6.000000	na
87.565669	0.049321	100.000000	nontarget	7.000000	na
87.614990	0.050017	100.000000	nontarget	8.000000	na
87.665007	0.050717	100.000000	nontarget	9.000000	na
87.715724	0.049538	100.000000	nontarget	10.000000	87.724474
87.765262	0.049965	100.000000	nontarget	11.000000	na
87.815227	0.049981	100.000000	nontarget	12.000000	na
87.865208	0.050715	100.000000	nontarget	13.000000	na
87.915923	0.049888	100.000000	nontarget	14.000000	na
87.965810	0.050194	100.000000	nontarget	15.000000	na
88.016005	0.049185	100.000000	nontarget	16.000000	na
88.065190	0.051005	101.000000	nontarget	1.000000	na
88.116195	0.048992	101.000000	nontarget	2.000000	na
88.165187	0.049973	101.000000	nontarget	3.000000	na
88.215159	0.050029	101.000000	nontarget	4.000000	na
88.265188	0.049989	101.000000	nontarget	5.000000	na
88.315177	0.050933	101.000000	nontarget	6.000000	na
88.366110	0.049971	101.000000	nontarget	7.000000	na
88.416081	0.049504	101.000000	nontarget	8.000000	na
88.465586	0.049605	101.000000	nontarget	9.000000	na
88.515191	0.050327	101.000000	nontarget	10.000000	na
88.565518	0.050634	101.000000	nontarget	11.000000	na
88.616151	0.049985	101.000000	nontarget	12.000000	na
88.666136	0.049306	101.000000	nontarget	13.000000	na
88.715442	0.050465	101.000000	nontarget	14.000000	na
88.765907	0.050265	101.000000	nontarget	15.000000	88.772948
88.816172	0.049707	101.000000	nontarget	16.000000	na
88.865878	0.049645	102.000000	nontarget	1.000000	88.872632
88.915523	0.050309	102.000000	nontarget	2.000000	na
88.965832	0.050051	102.000000	nontarget	3.000000	na
89.015883	0.049942	102.000000	nontarget	4.000000	na
89.065825	0.049419	102.000000	nontarget	5.000000	na
89.115245	0.049908	102.000000	nontarget	6.000000	na
89.165153	0.050049	102.000000	nontarget	7.000000	na
89.215201	0.050443	102.000000	nontarget	8.000000	na
89.265644	0.049346	102.000000	nontarget	9.000000	na
89.314990	0.051253	102.000000	nontarget	10.000000	na
89.366243	0.049621	102.000000	nontarget	11.000000	na
89.415863	0.049964	102.000000	nontarget	12.000000	na
89.465828	0.049353	102.000000	nontarget	13.000000	na
89.515181	0.050702	102.000000	nontarget	14.000000	na
89.565883	0.049256	102.000000	nontarget	15.000000	na
89.615139	0.050008	102.000000	nontarget	16.000000	na
89.665147	0.050456	103.000000	nontarget	1.000000	na
89.715603	0.050277	103.000000	nontarget	2.000000	89.742754
89.765880	0.049322	103.000000	nontarget	3.000000	na
89.815202	0.051062	103.000000	nontarget	4.000000	na
89.866264	0.049370	103.000000	nontarget	5.000000	na
89.915634	0.050608	103.000000	nontarget	6.000000	na
89.966242	0.049001	103.000000	nontarget	7.000000	na
90.015243	0.049960	103.000000	nontarget	8.000000	na
90.065203	0.050950	103.000000	nontarget	9.000000	na
90.116153	0.049747	103.000000	nontarget	10.000000	na
90.165901	0.049960	103.000000	nontarget	11.000000	na
90.215861	0.049997	103.000000	nontarget	12.000000	na
90.265858	0.049541	103.000000	nontarget	13.000000	na
90.315399	0.050169	103.000000	nontarget	14.000000	na
90.365568	0.049623	103.000000	nontarget	15.000000	na
90.415191	0.049939	103.000000	nontarget	16.000000	na
90.465130	0.050754	104.000000	nontarget	1.000000	na
90.515884	0.050091	104.000000	nontarget	2.000000	na
90.565975	0.049487	104.000000	nontarget	3.000000	na
90.615462	0.050425	104.000000	nontarget	4.000000	na
90.665887	0.049995	104.000000	nontarget	5.000000	90.672084
90.715882	0.050009	104.000000	nontarget	6.000000	na
90.765891	0.049805	104.000000	nontarget	7.000000	na
90.815696	0.049445	104.000000	nontarget	8.000000	na
90.865142	0.049996	104.000000	nontarget	9.000000	na
90.915138	0.049977	104.000000	nontarget	10.000000	na
90.965115	0.050419	104.000000	nontarget	11.000000	na
91.015533	0.050052	104.000000	nontarget	12.000000	na
91.065585	0.050061	104.000000	nontarget	13.000000	na
91.115646	0.050213	104.000000	nontarget	14.000000	na
91.165859	0.049653	104.000000	nontarget	15.000000	na
91.215512	0.050548	104.000000	nontarget	16.000000	na
91.266060	0.049715	105.000000	nontarget	1.000000	na
91.315775	0.050068	105.000000	nontarget	2.000000	na
91.365842	0.049274	105.000000	nontarget	3.000000	na
91.415117	0.050736	105.000000	nontarget	4.000000	na
91.465853	0.049987	105.000000	nontarget	5.000000	na
91.515840	0.049970	105.000000	nontarget	6.000000	na
91.565810	0.049318	105.000000	nontarget	7.000000	na
91.615128	0.050347	105.000000	nontarget	8.000000	na
91.665475	0.050394	105.000000	nontarget	9.000000	91.672248
91.715869	0.049647	105.000000	nontarget	10.000000	na
91.765516	0.049937	105.000000	nontarget	11.000000	na
91.815453	0.050140	105.000000	nontarget	12.000000	na
91.865594	0.050408	105.000000	nontarget	13.000000	na
91.916002	0.049706	105.000000	nontarget	14.000000	na
91.965708	0.049466	105.000000	nontarget	15.000000	na
92.015174	0.050834	105.000000	nontarget	16.000000	na
92.066008	0.049612	106.000000	nontarget	1.000000	na
92.115621	0.049470	106.000000	nontarget	2.000000	na
92.165091	0.051021	106.000000	nontarget	3.000000	na
92.216112	0.049820	106.000000	nontarget	4.000000	na
92.265932	0.049908	106.000000	nontarget	5.000000	na
92.315841	0.050364	106.000000	nontarget	6.000000	na
92.366204	0.048896	106.000000	nontarget	7.000000	na
92.415101	0.050034	106.000000	nontarget	8.000000	na
92.465135	0.049994	106.000000	nontarget	9.000000	na
92.515129	0.050421	106.000000	nontarget	10.000000	na
92.565550	0.049882	106.000000	nontarget	11.000000	92.585116
92.615432	0.049796	106.000000	nontarget	12.000000	na
92.665228	0.049914	106.000000	nontarget	13.000000	na
92.715142	0.050745	106.000000	nontarget	14.000000	na
92.765887	0.049956	106.000000	nontarget	15.000000	na
92.815843	0.049741	106.000000	nontarget	16.000000	na
92.865584	0.050244	107.000000	nontarget	1.000000	na
92.915828	0.049286	107.000000	nontarget	2.000000	na
92.965114	0.050056	107.000000	nontarget	3.000000	na
93.015170	0.050717	107.000000	nontarget	4.000000	na
93.065887	0.050126	107.000000	nontarget	5.000000	na
93.116013	0.049709	107.000000	nontarget	6.000000	na
93.165723	0.049396	107.000000	nontarget	7.000000	na
93.215119	0.050750	107.000000	nontarget	8.000000	na
93.265868	0.049237	107.000000	nontarget	9.000000	na
93.315106	0.050637	107.000000	nontarget	10.000000	na
93.365743	0.050134	107.000000	nontarget	11.000000	na
93.415877	0.049215	107.000000	nontarget	12.000000	na
93.465091	0.050392	107.000000	nontarget	13.000000	na
93.515484	0.050227	107.000000	nontarget	14.000000	na
93.565711	0.049406	107.000000	nontarget	15.000000	na
93.615117	0.050537	107.000000	nontarget	16.000000	na
93.665654	0.050221	108.000000	nontarget	1.000000	na
93.715875	0.050111	108.000000	nontarget	2.000000	93.727817
93.765986	0.049902	108.000000	nontarget	3.000000	na
93.815888	0.049224	108.000000	nontarget	4.000000	na
93.865112	0.050343	108.000000	nontarget	5.000000	na
93.915455	0.049540	108.000000	nontarget	6.000000	na
93.964995	0.050814	108.000000	nontarget	7.000000	na
94.015809	0.049783	108.000000	nontarget	8.000000	na
94.065591	0.049556	108.000000	nontarget	9.000000	na
94.115147	0.049947	108.000000	nontarget	10.000000	na
94.165094	0.050727	108.000000	nontarget	11.000000	na
94.215820	0.050030	108.000000	nontarget	12.000000	na
94.265850	0.049573	108.000000	nontarget	13.000000	na
94.315424	0.050365	108.000000	nontarget	14.000000	na
94.365788	0.050050	108.000000	nontarget	15.000000	na
94.415838	0.050018	108.000000	nontarget	16.000000	na
94.465857	0.049974	109.000000	nontarget	1.000000	na
94.515831	0.049248	109.000000	nontarget	2.000000	na
94.565079	0.050778	109.000000	nontarget	3.000000	na
94.615857	0.049614	109.000000	nontarget	4.000000	na
94.665471	0.050365	109.000000	nontarget	5.000000	na
94.715835	0.050331	109.000000	nontarget	6.000000	na
94.766166	0.049958	109.000000	nontarget	7.000000	94.777325
94.816124	0.048978	109.000000	nontarget	8.000000	na
94.865102	0.050747	109.000000	nontarget	9.000000	na
94.915848	0.050077	109.000000	nontarget	10.000000	na
94.965926	0.049275	109.000000	nontarget	11.000000	na
95.015201	0.049916	109.000000	nontarget	12.000000	na
95.065116	0.050619	109.000000	nontarget	13.000000	na
95.115735	0.050096	109.000000	nontarget	14.000000	na
95.165832	0.049696	109.000000	nontarget	15.000000	na
95.215527	0.050508	109.000000	nontarget	16.000000	na
95.266035	0.049992	110.000000	nontarget	1.000000	na
95.316027	0.049837	110.000000	nontarget	2.000000	na
95.365865	0.049192	110.000000	nontarget	3.000000	na
95.415056	0.050807	110.000000	nontarget	4.000000	na
95.465863	0.049280	110.000000	nontarget	5.000000	na
95.515143	0.050341	110.000000	nontarget	6.000000	na
95.565484	0.050059	110.000000	nontarget	7.000000	na
95.615542	0.050244	110.000000	nontarget	8.000000	na
95.665787	0.049262	110.000000	nontarget	9.000000	na
95.715049	0.050422	110.000000	nontarget	10.000000	95.734312
95.765472	0.050438	110.000000	nontarget	11.000000	na
95.815910	0.049981	110.000000	nontarget	12.000000	na
95.865891	0.049300	110.000000	nontarget	13.000000	na
95.915191	0.050676	110.000000	nontarget	14.000000	na
95.965867	0.049020	110.000000	nontarget	15.000000	na
96.014887	0.050685	110.000000	nontarget	16.000000	na
96.065572	0.050417	111.000000	target	1.000000	na
96.115989	0.049943	111.000000	target	2.000000	na
96.165932	0.049917	111.000000	target	3.000000	na
96.215848	0.049713	111.000000	target	4.000000	na
96.265561	0.050014	111.000000	target	5.000000	na
96.315575	0.050271	111.000000	target	6.000000	na
96.365846	0.050024	111.000000	target	7.000000	na
96.415871	0.049089	111.000000	target	8.000000	na
96.464960	0.050084	111.000000	target	9.000000	na
96.515044	0.050429	111.000000	target	10.000000	na
96.565473	0.049616	111.000000	target	11.000000	na
96.615089	0.050707	111.000000	target	12.000000	na
96.665796	0.049627	111.000000	target	13.000000	na
96.715423	0.050308	111.000000	target	14.000000	na
96.765732	0.050117	111.000000	target	15.000000	na
96.815848	0.050000	111.000000	target	16.000000	na
96.865848	0.050020	112.000000	nontarget	1.000000	na
96.915869	0.050117	112.000000	nontarget	2.000000	na
96.965986	0.049920	112.000000	nontarget	3.000000	na
97.015905	0.049441	112.000000	nontarget	4.000000	na
97.065346	0.050572	112.000000	nontarget	5.000000	97.076993
97.115918	0.049967	112.000000	nontarget	6.000000	na
97.165885	0.049781	112.000000	nontarget	7.000000	na
97.215666	0.050299	112.000000	nontarget	8.000000	na
97.265965	0.049886	112.000000	nontarget	9.000000	na
97.315851	0.049255	112.000000	nontarget	10.000000	na
97.365105	0.050567	112.000000	nontarget	11.000000	na
97.415673	0.049465	112.000000	nontarget	12.000000	na
97.465138	0.050535	112.000000	nontarget	13.000000	na
97.515672	0.049816	112.000000	nontarget	14.000000	na
97.565489	0.050364	112.000000	nontarget	15.000000	na
97.615852	0.049301	112.000000	nontarget	16.000000	na
97.665153	0.050688	113.000000	target	1.000000	na
97.715841	0.049976	113.000000	target	2.000000	na
97.765817	0.049243	113.000000	target	3.000000	na
97.815060	0.050176	113.000000	target	4.000000	na
97.865236	0.050638	113.000000	target	5.000000	na
97.915874	0.049876	113.000000	target	6.000000	na
97.965751	0.049325	113.000000	target	7.000000	na
98.015075	0.050637	113.000000	target	8.000000	na
98.065712	0.049371	113.000000	target	9.000000	na
98.115083	0.049925	113.000000	target	10.000000	na
98.165008	0.050074	113.000000	target	11.000000	na
98.215081	0.050417	113.000000	target	12.000000	na
98.265498	0.050369	113.000000	target	13.000000	98.276701
98.315867	0.049479	113.000000	target	14.000000	na
98.365345	0.049728	113.000000	target	15.000000	na
98.415073	0.049954	113.000000	target	16.000000	na
98.465027	0.049996	114.000000	nontarget	1.000000	na
98.515023	0.050805	114.000000	nontarget	2.000000	na
98.565827	0.049473	114.000000	nontarget	3.000000	na
98.615300	0.049748	114.000000	nontarget	4.000000	na
98.665049	0.050791	114.000000	nontarget	5.000000	na
98.715840	0.049829	114.000000	nontarget	6.000000	na
98.765669	0.049363	114.000000	nontarget	7.000000	na
98.815032	0.049962	114.000000	nontarget	8.000000	na
98.864994	0.050844	114.000000	nontarget	9.000000	na
98.915838	0.049252	114.000000	nontarget	10.000000	na
98.965090	0.050752	114.000000	nontarget	11.000000	na
99.015842	0.049625	114.000000	nontarget	12.000000	na
99.065467	0.050418	114.000000	nontarget	13.000000	na
99.115885	0.049111	114.000000	nontarget	14.000000	na
99.164997	0.050984	114.000000	nontarget	15.000000	99.188195
99.215981	0.049091	114.000000	nontarget	16.000000	na
99.265072	0.050543	115.000000	nontarget	1.000000	99.271646
99.315616	0.050097	115.000000	nontarget	2.000000	na
99.365713	0.049381	115.000000	nontarget	3.000000	na
99.415095	0.050753	115.000000	nontarget	4.000000	na
99.465848	0.049869	115.000000	nontarget	5.000000	na
99.515717	0.050141	115.000000	nontarget	6.000000	na
99.565858	0.049864	115.000000	nontarget	7.000000	na
99.615722	0.049272	115.000000	nontarget	8.000000	na
99.664994	0.050868	115.000000	nontarget	9.000000	na
99.715862	0.049979	115.000000	nontarget	10.000000	na
99.765840	0.049135	115.000000	nontarget	11.000000	na
99.814975	0.050283	115.000000	nontarget	12.000000	na
99.865258	0.049774	115.000000	nontarget	13.000000	na
99.915031	0.049951	115.000000	nontarget	14.000000	na
99.964982	0.049962	115.000000	nontarget	15.000000	na
100.014945	0.050620	115.000000	nontarget	16.000000	100.023666
100.065564	0.049472	116.000000	nontarget	1.000000	100.072123
100.115036	0.050404	116.000000	nontarget	2.000000	na
100.165440	0.050346	116.000000	nontarget	3.000000	na
100.215786	0.050042	116.000000	nontarget	4.000000	na
100.265828	0.049953	116.000000	nontarget	5.000000	na
100.315781	0.049915	116.000000	nontarget	6.000000	na
100.365696	0.050232	116.000000	nontarget	7.000000	na
100.415928	0.050121	116.000000	nontarget	8.000000	na
100.466049	0.050099	116.000000	nontarget	9.000000	na
100.516149	0.049704	116.000000	nontarget	10.000000	na
100.565852	0.050010	116.000000	nontarget	11.000000	na
100.615863	0.050014	116.000000	nontarget	12.000000	na
100.665877	0.049957	116.000000	nontarget	13.000000	na
100.715834	0.049171	116.000000	nontarget	14.000000	na
100.765005	0.049984	116.000000	nontarget	15.000000	na
100.814989	0.050836	116.000000	nontarget	16.000000	na
100.865826	0.050026	117.000000	nontarget	1.000000	100.872430
100.915851	0.050032	117.000000	nontarget	2.000000	na
100.965883	0.049998	117.000000	nontarget	3.000000	na
101.015881	0.049998	117.000000	nontarget	4.000000	na
101.065879	0.049142	117.000000	nontarget	5.000000	na
101.115021	0.049946	117.000000	nontarget	6.000000	na
101.164966	0.050556	117.000000	nontarget	7.000000	na
101.215523	0.049609	117.000000	nontarget	8.000000	na
101.265131	0.049846	117.000000	nontarget	9.000000	na
101.314977	0.050889	117.000000	nontarget	10.000000	na
101.365866	0.050054	117.000000	nontarget	11.000000	na
101.415920	0.049928	117.000000	nontarget	12.000000	na
101.465847	0.049487	117.000000	nontarget	13.000000	na
101.515335	0.050513	117.000000	nontarget	14.000000	na
101.565848	0.050021	117.000000	nontarget	15.000000	na
101.615869	0.049743	117.000000	nontarget	16.000000	na
101.665612	0.050200	118.000000	nontarget	1.000000	na
101.715812	0.049939	118.000000	nontarget	2.000000	na
101.765750	0.049230	118.000000	nontarget	3.000000	na
101.814980	0.050048	118.000000	nontarget	4.000000	na
101.865028	0.050814	118.000000	nontarget	5.000000	101.872527
101.915842	0.050061	118.000000	nontarget	6.000000	na
101.965904	0.049751	118.000000	nontarget	7.000000	na
102.015655	0.049387	118.000000	nontarget	8.000000	na
102.065041	0.049960	118.000000	nontarget	9.000000	na
102.115001	0.050244	118.000000	nontarget	10.000000	na
102.165245	0.050664	118.000000	nontarget	11.000000	na
102.215909	0.049308	118.000000	nontarget	12.000000	na
102.265217	0.049750	118.000000	nontarget	13.000000	na
102.314967	0.050421	118.000000	nontarget	14.000000	na
102.365388	0.050486	118.000000	nontarget	15.000000	na
102.415874	0.049832	118.000000	nontarget	16.000000	na
102.465706	0.049612	119.000000	nontarget	1.000000	na
102.515318	0.050566	119.000000	nontarget	2.000000	na
102.565884	0.049909	119.000000	nontarget	3.000000	na
102.615793	0.050043	119.000000	nontarget	4.000000	na
102.665836	0.050030	119.000000	nontarget	5.000000	na
102.715866	0.049971	119.000000	nontarget	6.000000	na
102.765837	0.049999	119.000000	nontarget	7.000000	na
102.815837	0.049255	119.000000	nontarget	8.000000	na
102.865092	0.049911	119.000000	nontarget	9.000000	na
102.915003	0.050878	119.000000	nontarget	10.000000	102.942619
102.965880	0.049985	119.000000	nontarget	11.000000	na
103.015865	0.049138	119.000000	nontarget	12.000000	na
103.065003	0.050121	119.000000	nontarget	13.000000	na
103.115125	0.050682	119.000000	nontarget	14.000000	na
103.165806	0.049183	119.000000	nontarget	15.000000	na
103.214989	0.050465	119.000000	nontarget	16.000000	na
103.265454	0.050422	120.000000	nontarget	1.000000	na
103.315876	0.050375	120.000000	nontarget	2.000000	na
103.366250	0.049681	120.000000	nontarget	3.000000	na
103.415932	0.049049	120.000000	nontarget	4.000000	na
103.464981	0.050848	120.000000	nontarget	5.000000	na
103.515829	0.049955	120.000000	nontarget	6.000000	na
103.565784	0.049628	120.000000	nontarget	7.000000	na
103.615412	0.049553	120.000000	nontarget	8.000000	na
103.664964	0.051091	120.000000	nontarget	9.000000	na
103.716055	0.050314	120.000000	nontarget	10.000000	na
103.766369	0.049973	120.000000	nontarget	11.000000	na
103.816342	0.049505	120.000000	nontarget	12.000000	na
103.865847	0.050037	120.000000	nontarget	13.000000	na
103.915885	0.049954	120.000000	nontarget	14.000000	na
103.965839	0.049908	120.000000	nontarget	15.000000	na
104.015747	0.049363	120.000000	nontarget	16.000000	na
104.065110	0.050284	121.000000	target	1.000000	na
104.115394	0.050458	121.000000	target	2.000000	na
104.165852	0.050012	121.000000	target	3.000000	na
104.215864	0.050045	121.000000	target	4.000000	na
104.265909	0.049303	121.000000	target	5.000000	na
104.315213	0.050661	121.000000	target	6.000000	na
104.365874	0.050439	121.000000	target	7.000000	na
104.416313	0.049897	121.000000	target	8.000000	na
104.466210	0.049648	121.000000	target	9.000000	na
104.515858	0.049986	121.000000	target	10.000000	na
104.565845	0.050319	121.000000	target	11.000000	104.577297
104.616164	0.050217	121.000000	target	12.000000	na
104.666381	0.048917	121.000000	target	13.000000	na
104.715298	0.050678	121.000000	target	14.000000	na
