onset	duration	trial_number	stim_type	trial_type	accuracy	response_time
13.031413	1.000051	1.000000	scene	nontarget	correct	0.788702
14.031464	1.000049	1.000000	fixation	nontarget	na	na
15.031513	0.999026	2.000000	scene	nontarget	correct	0.426398
16.030539	1.000004	2.000000	fixation	nontarget	na	na
17.030542	0.999982	3.000000	scene	nontarget	correct	0.564194
18.030525	0.999991	3.000000	fixation	nontarget	na	na
19.030515	1.000033	4.000000	scene	nontarget	correct	0.745118
20.030549	1.000014	4.000000	fixation	nontarget	na	na
21.030563	0.999965	5.000000	scene	nontarget	correct	0.546270
22.030528	1.000038	5.000000	fixation	nontarget	na	na
23.030566	1.000420	6.000000	scene	nontarget	correct	0.634514
24.030986	1.000038	6.000000	fixation	nontarget	na	na
25.031024	1.000040	7.000000	scene	nontarget	correct	0.515664
26.031064	1.000017	7.000000	fixation	nontarget	na	na
27.031081	1.000038	8.000000	scene	nontarget	correct	0.697522
28.031119	1.000046	8.000000	fixation	nontarget	na	na
29.031165	0.999043	9.000000	scene	nontarget	correct	0.612736
30.030208	1.000971	9.000000	fixation	nontarget	na	na
31.031179	0.999100	10.000000	scene	nontarget	correct	0.491379
32.030279	1.000045	10.000000	fixation	nontarget	na	na
33.030324	0.999949	11.000000	scene	nontarget	correct	0.541501
34.030273	1.000167	11.000000	fixation	nontarget	na	na
35.030440	1.000419	12.000000	scene	nontarget	correct	0.747908
36.030859	1.000065	12.000000	fixation	nontarget	na	na
37.030924	0.999997	13.000000	scene	nontarget	correct	0.783583
38.030921	1.000037	13.000000	fixation	nontarget	na	na
39.030958	0.999917	14.000000	scene	target	correct	 NaN
40.030875	1.000039	14.000000	fixation	target	na	na
41.030914	1.000037	15.000000	scene	nontarget	correct	0.325052
42.030951	1.000049	15.000000	fixation	nontarget	na	na
43.031000	0.999122	16.000000	scene	nontarget	correct	0.493578
44.030123	1.000045	16.000000	fixation	nontarget	na	na
45.030168	1.000020	17.000000	scene	nontarget	correct	0.793943
46.030188	1.000145	17.000000	fixation	nontarget	na	na
47.030333	1.000533	18.000000	scene	nontarget	correct	1.012356
48.030867	0.999882	18.000000	fixation	nontarget	na	na
49.030749	1.000044	19.000000	scene	nontarget	correct	0.539194
50.030793	1.000050	19.000000	fixation	nontarget	na	na
51.030843	1.000029	20.000000	scene	nontarget	correct	0.443805
52.030872	0.999128	20.000000	fixation	nontarget	na	na
53.030000	1.000056	21.000000	scene	nontarget	correct	0.508902
54.030056	1.000061	21.000000	fixation	nontarget	na	na
55.030117	1.000052	22.000000	scene	nontarget	correct	0.591667
56.030169	0.999997	22.000000	fixation	nontarget	na	na
57.030166	1.000022	23.000000	scene	nontarget	correct	0.515002
58.030189	1.000107	23.000000	fixation	nontarget	na	na
59.030296	1.000020	24.000000	scene	target	incorrect	0.486994
60.030316	1.000005	24.000000	fixation	target	na	na
61.030321	1.000000	25.000000	scene	nontarget	correct	0.673594
62.030322	1.000001	25.000000	fixation	nontarget	na	na
63.030323	1.000418	26.000000	scene	target	correct	 NaN
64.030741	0.999115	26.000000	fixation	target	na	na
65.029856	0.999988	27.000000	scene	target	incorrect	0.518673
66.029844	1.000054	27.000000	fixation	target	na	na
67.029899	1.000970	28.000000	scene	nontarget	correct	0.648983
68.030869	0.999116	28.000000	fixation	nontarget	na	na
69.029986	1.000033	29.000000	scene	nontarget	correct	0.798088
70.030018	1.000039	29.000000	fixation	nontarget	na	na
71.030057	0.999898	30.000000	scene	nontarget	correct	0.707838
72.029955	1.000396	30.000000	fixation	nontarget	na	na
73.030351	0.999985	31.000000	scene	target	incorrect	1.115651
74.030336	0.999986	31.000000	fixation	target	na	na
75.030322	1.000135	32.000000	scene	nontarget	correct	0.641490
76.030457	0.999996	32.000000	fixation	nontarget	na	na
77.030454	0.999065	33.000000	scene	nontarget	correct	0.843072
78.029518	1.000931	33.000000	fixation	nontarget	na	na
79.030449	0.999913	34.000000	scene	nontarget	correct	0.832986
80.030362	0.999973	34.000000	fixation	nontarget	na	na
81.030335	0.999999	35.000000	scene	nontarget	correct	0.797483
82.030334	1.000028	35.000000	fixation	nontarget	na	na
83.030362	0.999963	36.000000	scene	nontarget	correct	1.106843
84.030325	1.000013	36.000000	fixation	nontarget	na	na
85.030339	1.000000	37.000000	scene	nontarget	correct	0.688309
86.030339	0.999959	37.000000	fixation	nontarget	na	na
87.030298	1.000047	38.000000	scene	nontarget	correct	0.843429
88.030345	1.000002	38.000000	fixation	nontarget	na	na
89.030348	0.999998	39.000000	scene	nontarget	correct	0.779758
90.030346	1.000001	39.000000	fixation	nontarget	na	na
91.030347	1.000005	40.000000	scene	nontarget	correct	0.625704
92.030352	0.999552	40.000000	fixation	nontarget	na	na
93.029904	1.000003	41.000000	scene	nontarget	correct	0.622846
94.029907	1.000287	41.000000	fixation	nontarget	na	na
95.030194	1.000056	42.000000	scene	nontarget	correct	0.499390
96.030250	1.000054	42.000000	fixation	nontarget	na	na
97.030304	1.000022	43.000000	scene	nontarget	correct	0.743445
98.030326	1.000006	43.000000	fixation	nontarget	na	na
99.030332	1.000041	44.000000	scene	nontarget	correct	0.769167
100.030374	0.999999	44.000000	fixation	nontarget	na	na
101.030373	1.000000	45.000000	scene	nontarget	correct	0.857646
102.030372	0.999008	45.000000	fixation	nontarget	na	na
103.029380	1.000010	46.000000	scene	nontarget	correct	0.662763
104.029390	1.000680	46.000000	fixation	nontarget	na	na
105.030070	1.000051	47.000000	scene	nontarget	correct	0.711568
106.030121	1.000056	47.000000	fixation	nontarget	na	na
107.030176	1.000061	48.000000	scene	nontarget	correct	0.532801
108.030238	0.999961	48.000000	fixation	nontarget	na	na
109.030199	1.000063	49.000000	scene	nontarget	correct	0.716646
110.030262	1.000058	49.000000	fixation	nontarget	na	na
111.030320	0.999586	50.000000	scene	nontarget	correct	1.127746
112.029906	0.999234	50.000000	fixation	nontarget	na	na
113.029140	0.999979	51.000000	scene	nontarget	correct	0.662474
114.029120	1.001159	51.000000	fixation	nontarget	na	na
115.030278	0.999653	52.000000	scene	target	correct	 NaN
116.029931	0.999999	52.000000	fixation	target	na	na
117.029930	1.000026	53.000000	scene	nontarget	correct	0.491695
118.029956	1.000007	53.000000	fixation	nontarget	na	na
119.029963	0.999990	54.000000	scene	nontarget	correct	0.541934
120.029953	1.000017	54.000000	fixation	nontarget	na	na
121.029969	1.000290	55.000000	scene	nontarget	correct	0.563101
122.030259	0.999053	55.000000	fixation	nontarget	na	na
123.029312	0.999824	56.000000	scene	target	incorrect	0.596249
124.029136	1.000002	56.000000	fixation	target	na	na
125.029138	0.999997	57.000000	scene	nontarget	correct	0.594434
126.029134	1.000029	57.000000	fixation	nontarget	na	na
127.029164	1.001286	58.000000	scene	nontarget	correct	0.986783
128.030450	0.999057	58.000000	fixation	nontarget	na	na
129.029507	0.999537	59.000000	scene	nontarget	correct	1.003892
130.029044	1.000159	59.000000	fixation	nontarget	na	na
131.029202	1.000447	60.000000	scene	nontarget	correct	0.825364
132.029649	1.000037	60.000000	fixation	nontarget	na	na
133.029686	0.999979	61.000000	scene	nontarget	correct	0.797173
134.029665	1.000016	61.000000	fixation	nontarget	na	na
135.029681	0.999986	62.000000	scene	nontarget	correct	0.680080
136.029668	0.999453	62.000000	fixation	nontarget	na	na
137.029121	0.999977	63.000000	scene	nontarget	correct	0.744520
138.029098	1.000027	63.000000	fixation	nontarget	na	na
139.029125	1.000040	64.000000	scene	nontarget	correct	0.842993
140.029165	1.000456	64.000000	fixation	nontarget	na	na
141.029621	1.000052	65.000000	scene	nontarget	correct	0.734824
142.029673	1.000008	65.000000	fixation	nontarget	na	na
143.029681	0.999866	66.000000	scene	nontarget	correct	0.814255
144.029548	1.000075	66.000000	fixation	nontarget	na	na
145.029622	0.999625	67.000000	scene	nontarget	correct	1.407186
146.029248	1.000279	67.000000	fixation	nontarget	na	na
147.029526	1.000061	68.000000	scene	nontarget	correct	0.504918
148.029588	1.000069	68.000000	fixation	nontarget	na	na
149.029657	0.999477	69.000000	scene	nontarget	correct	0.410907
150.029134	1.000120	69.000000	fixation	nontarget	na	na
151.029254	0.999831	70.000000	scene	nontarget	correct	0.520404
152.029085	0.989246	70.000000	fixation	nontarget	na	na
153.018331	0.994239	71.000000	scene	nontarget	correct	0.487691
154.012570	1.000247	71.000000	fixation	nontarget	na	na
155.012818	0.999908	72.000000	scene	nontarget	correct	0.619871
156.012726	1.000071	72.000000	fixation	nontarget	na	na
157.012797	0.999974	73.000000	scene	nontarget	correct	0.655900
158.012771	0.999993	73.000000	fixation	nontarget	na	na
159.012765	1.000014	74.000000	scene	nontarget	correct	0.617708
160.012778	0.999950	74.000000	fixation	nontarget	na	na
161.012728	0.999949	75.000000	scene	target	correct	 NaN
162.012677	1.000055	75.000000	fixation	target	na	na
163.012732	0.988998	76.000000	scene	nontarget	correct	0.321672
164.001730	0.997696	76.000000	fixation	nontarget	na	na
164.999426	0.999715	77.000000	scene	nontarget	correct	0.582356
165.999141	1.000169	77.000000	fixation	nontarget	na	na
166.999311	0.999818	78.000000	scene	nontarget	correct	0.807717
167.999129	1.000171	78.000000	fixation	nontarget	na	na
168.999300	0.999915	79.000000	scene	nontarget	correct	0.625223
169.999215	1.000203	79.000000	fixation	nontarget	na	na
170.999418	0.999663	80.000000	scene	nontarget	correct	0.786044
171.999081	1.000258	80.000000	fixation	nontarget	na	na
172.999339	0.999722	81.000000	scene	nontarget	correct	0.914727
173.999060	1.000085	81.000000	fixation	nontarget	na	na
174.999145	1.000311	82.000000	scene	target	incorrect	1.111107
175.999456	0.999295	82.000000	fixation	target	na	na
176.998751	0.999843	83.000000	scene	nontarget	correct	1.129643
177.998594	1.000309	83.000000	fixation	nontarget	na	na
178.998903	1.000131	84.000000	scene	nontarget	correct	0.590804
179.999034	1.000158	84.000000	fixation	nontarget	na	na
180.999192	0.997337	85.000000	scene	nontarget	correct	0.566811
181.996529	1.002631	85.000000	fixation	nontarget	na	na
182.999160	0.999798	86.000000	scene	nontarget	correct	0.455477
183.998959	1.000136	86.000000	fixation	nontarget	na	na
184.999095	0.999866	87.000000	scene	nontarget	correct	0.703576
185.998961	1.000326	87.000000	fixation	nontarget	na	na
186.999288	0.999993	88.000000	scene	nontarget	correct	0.683513
187.999280	1.000141	88.000000	fixation	nontarget	na	na
188.999421	0.999652	89.000000	scene	nontarget	correct	0.768565
189.999073	1.000243	89.000000	fixation	nontarget	na	na
190.999316	0.999820	90.000000	scene	nontarget	correct	0.801190
191.999136	5.985213	90.000000	fixation	nontarget	na	na
197.984349	0.994543	91.000000	face	nontarget	incorrect	 NaN
198.978892	0.989285	91.000000	fixation	nontarget	na	na
199.968177	0.993761	92.000000	face	nontarget	correct	0.452408
200.961938	0.989256	92.000000	fixation	nontarget	na	na
201.951194	0.994268	93.000000	face	nontarget	correct	0.692351
202.945462	0.989238	93.000000	fixation	nontarget	na	na
203.934700	0.993728	94.000000	face	nontarget	correct	0.626799
204.928428	0.989184	94.000000	fixation	nontarget	na	na
205.917612	0.993717	95.000000	face	nontarget	correct	0.550051
206.911329	0.990562	95.000000	fixation	nontarget	na	na
207.901891	0.993450	96.000000	face	nontarget	correct	0.589318
208.895340	0.989226	96.000000	fixation	nontarget	na	na
209.884566	0.993738	97.000000	face	nontarget	correct	0.747015
210.878304	0.990549	97.000000	fixation	nontarget	na	na
211.868853	0.992256	98.000000	face	nontarget	correct	0.543591
212.861109	0.990207	98.000000	fixation	nontarget	na	na
213.851317	0.993958	99.000000	face	nontarget	correct	1.124789
214.845275	0.989257	99.000000	fixation	nontarget	na	na
215.834532	0.993784	100.000000	face	nontarget	correct	0.702753
216.828316	0.990526	100.000000	fixation	nontarget	na	na
217.818842	0.992606	101.000000	face	nontarget	correct	0.562306
218.811448	0.990458	101.000000	fixation	nontarget	na	na
219.801906	0.992458	102.000000	face	nontarget	correct	0.597188
220.794364	0.990375	102.000000	fixation	nontarget	na	na
221.784738	0.993803	103.000000	face	nontarget	correct	0.626067
222.778541	0.989265	103.000000	fixation	nontarget	na	na
223.767806	0.993741	104.000000	face	nontarget	correct	0.546981
224.761547	0.989844	104.000000	fixation	nontarget	na	na
225.751391	0.993365	105.000000	face	nontarget	correct	0.750771
226.744756	0.990211	105.000000	fixation	nontarget	na	na
227.734967	0.992598	106.000000	face	nontarget	correct	0.655566
228.727566	0.990405	106.000000	fixation	nontarget	na	na
229.717971	0.993830	107.000000	face	nontarget	correct	0.772058
230.711801	0.990508	107.000000	fixation	nontarget	na	na
231.702309	0.997235	108.000000	face	nontarget	correct	0.985757
232.699544	0.995486	108.000000	fixation	nontarget	na	na
233.695030	0.990520	109.000000	face	target	incorrect	0.753112
234.685550	0.992791	109.000000	fixation	target	na	na
235.678341	0.989601	110.000000	face	nontarget	correct	1.238392
236.667942	0.993749	110.000000	fixation	nontarget	na	na
237.661691	0.990506	111.000000	face	nontarget	correct	0.520776
238.652197	0.992657	111.000000	fixation	nontarget	na	na
239.644854	0.990099	112.000000	face	nontarget	correct	0.597212
240.634953	0.993313	112.000000	fixation	nontarget	na	na
241.628266	0.990304	113.000000	face	nontarget	correct	0.592275
242.618569	0.992646	113.000000	fixation	nontarget	na	na
243.611216	0.999663	114.000000	face	target	correct	 NaN
244.610879	0.990380	114.000000	fixation	target	na	na
245.601259	0.993890	115.000000	face	nontarget	correct	0.640951
246.595150	0.989244	115.000000	fixation	nontarget	na	na
247.584394	0.993711	116.000000	face	nontarget	correct	0.650170
248.578105	0.990380	116.000000	fixation	nontarget	na	na
249.568485	0.992635	117.000000	face	nontarget	correct	0.692746
250.561120	0.990551	117.000000	fixation	nontarget	na	na
251.551670	0.992617	118.000000	face	nontarget	correct	0.878221
252.544287	0.990353	118.000000	fixation	nontarget	na	na
253.534640	0.992599	119.000000	face	nontarget	correct	0.763986
254.527239	0.991236	119.000000	fixation	nontarget	na	na
255.518475	0.991845	120.000000	face	target	correct	 NaN
256.510319	0.991647	120.000000	fixation	target	na	na
257.501966	0.992615	121.000000	face	nontarget	correct	0.428114
258.494582	0.990414	121.000000	fixation	nontarget	na	na
259.484995	0.992621	122.000000	face	nontarget	correct	0.712847
260.477617	0.990382	122.000000	fixation	nontarget	na	na
261.467999	0.993718	123.000000	face	nontarget	correct	1.174619
262.461717	0.990516	123.000000	fixation	nontarget	na	na
263.452233	0.992767	124.000000	face	nontarget	correct	0.488138
264.445000	0.990519	124.000000	fixation	nontarget	na	na
265.435519	0.992770	125.000000	face	nontarget	correct	0.522775
266.428289	0.990453	125.000000	fixation	nontarget	na	na
267.418742	0.992748	126.000000	face	nontarget	correct	0.499633
268.411490	0.990451	126.000000	fixation	nontarget	na	na
269.401941	0.992610	127.000000	face	nontarget	correct	0.540219
270.394552	0.990414	127.000000	fixation	nontarget	na	na
271.384966	0.992614	128.000000	face	nontarget	correct	0.443237
272.377580	0.990369	128.000000	fixation	nontarget	na	na
273.367949	0.992576	129.000000	face	nontarget	correct	0.535989
274.360524	0.991598	129.000000	fixation	nontarget	na	na
275.352122	0.991386	130.000000	face	nontarget	correct	0.638015
276.343508	0.991468	130.000000	fixation	nontarget	na	na
277.334976	0.992798	131.000000	face	nontarget	correct	0.676806
278.327774	0.990377	131.000000	fixation	nontarget	na	na
279.318151	0.992634	132.000000	face	nontarget	correct	0.731106
280.310785	0.990391	132.000000	fixation	nontarget	na	na
281.301176	0.993156	133.000000	face	nontarget	correct	1.171933
282.294332	0.990373	133.000000	fixation	nontarget	na	na
283.284705	0.992608	134.000000	face	nontarget	correct	0.609247
284.277313	0.991344	134.000000	fixation	nontarget	na	na
285.268656	0.991497	135.000000	face	nontarget	correct	0.606409
286.260153	0.991692	135.000000	fixation	nontarget	na	na
287.251846	0.992760	136.000000	face	nontarget	correct	0.473989
288.244606	0.990359	136.000000	fixation	nontarget	na	na
289.234965	0.992694	137.000000	face	nontarget	correct	0.407372
290.227659	0.990251	137.000000	fixation	nontarget	na	na
291.217910	0.992618	138.000000	face	nontarget	correct	0.478544
292.210528	0.991616	138.000000	fixation	nontarget	na	na
293.202143	0.991463	139.000000	face	nontarget	correct	0.586052
294.193606	0.991366	139.000000	fixation	nontarget	na	na
295.184972	0.992634	140.000000	face	nontarget	correct	0.619499
296.177607	0.990386	140.000000	fixation	nontarget	na	na
297.167993	0.992541	141.000000	face	nontarget	correct	0.659780
298.160534	0.991353	141.000000	fixation	nontarget	na	na
299.151887	0.992317	142.000000	face	nontarget	correct	0.611975
300.144204	0.990362	142.000000	fixation	nontarget	na	na
301.134565	0.992636	143.000000	face	nontarget	correct	0.481974
302.127201	0.991309	143.000000	fixation	nontarget	na	na
303.118510	0.991487	144.000000	face	nontarget	correct	0.466347
304.109997	0.991499	144.000000	fixation	nontarget	na	na
305.101496	0.992543	145.000000	face	nontarget	correct	0.739531
306.094039	0.991636	145.000000	fixation	nontarget	na	na
307.085675	0.991645	146.000000	face	nontarget	correct	0.701334
308.077319	0.991663	146.000000	fixation	nontarget	na	na
309.068982	0.991650	147.000000	face	target	incorrect	0.446253
310.060632	0.991645	147.000000	fixation	target	na	na
311.052277	0.991681	148.000000	face	nontarget	correct	0.723935
312.043958	0.991624	148.000000	fixation	nontarget	na	na
313.035582	0.991682	149.000000	face	nontarget	correct	0.688615
314.027264	0.991536	149.000000	fixation	nontarget	na	na
315.018799	0.991810	150.000000	face	nontarget	correct	0.710490
316.010610	0.991580	150.000000	fixation	nontarget	na	na
317.002190	0.996891	151.000000	face	target	incorrect	0.684146
317.999080	1.000316	151.000000	fixation	target	na	na
318.999396	0.999703	152.000000	face	nontarget	correct	0.668519
319.999099	1.000418	152.000000	fixation	nontarget	na	na
320.999517	0.999679	153.000000	face	nontarget	correct	0.577905
321.999196	1.000124	153.000000	fixation	nontarget	na	na
322.999320	0.999905	154.000000	face	nontarget	correct	0.605958
323.999224	1.000123	154.000000	fixation	nontarget	na	na
324.999347	0.999296	155.000000	face	target	correct	 NaN
325.998643	1.000529	155.000000	fixation	target	na	na
326.999172	0.999978	156.000000	face	nontarget	correct	0.279199
327.999150	1.000195	156.000000	fixation	nontarget	na	na
328.999345	0.999861	157.000000	face	target	incorrect	0.486785
329.999206	1.000198	157.000000	fixation	target	na	na
330.999404	1.000463	158.000000	face	target	incorrect	1.066656
331.999868	0.999111	158.000000	fixation	target	na	na
332.998979	0.994219	159.000000	face	nontarget	correct	0.630171
333.993198	0.991398	159.000000	fixation	nontarget	na	na
334.984596	0.992742	160.000000	face	nontarget	correct	0.294954
335.977337	0.991663	160.000000	fixation	nontarget	na	na
336.969001	0.991609	161.000000	face	nontarget	correct	0.004778
337.960609	0.991574	161.000000	fixation	nontarget	na	na
338.952183	0.991586	162.000000	face	nontarget	correct	0.356621
339.943769	0.991639	162.000000	fixation	nontarget	na	na
340.935408	0.991569	163.000000	face	nontarget	correct	0.391726
341.926977	0.991668	163.000000	fixation	nontarget	na	na
342.918646	0.991648	164.000000	face	nontarget	correct	0.370865
343.910294	0.991692	164.000000	fixation	nontarget	na	na
344.901986	0.991615	165.000000	face	nontarget	correct	0.526987
345.893601	0.991631	165.000000	fixation	nontarget	na	na
346.885232	0.991686	166.000000	face	nontarget	correct	0.773975
347.876918	0.991660	166.000000	fixation	nontarget	na	na
348.868578	0.991443	167.000000	face	nontarget	correct	0.525960
349.860021	0.991479	167.000000	fixation	nontarget	na	na
350.851499	0.991316	168.000000	face	target	correct	 NaN
351.842815	0.992688	168.000000	fixation	target	na	na
352.835503	0.991632	169.000000	face	nontarget	correct	0.282160
353.827135	0.991644	169.000000	fixation	nontarget	na	na
354.818779	0.991631	170.000000	face	nontarget	correct	0.445046
355.810410	0.991628	170.000000	fixation	nontarget	na	na
356.802039	0.991641	171.000000	face	nontarget	correct	0.632582
357.793680	0.991332	171.000000	fixation	nontarget	na	na
358.785012	0.991516	172.000000	face	nontarget	correct	0.539653
359.776529	0.991497	172.000000	fixation	nontarget	na	na
360.768026	0.991494	173.000000	face	nontarget	correct	0.383522
361.759520	0.992609	173.000000	fixation	nontarget	na	na
362.752129	0.991656	174.000000	face	nontarget	correct	0.476986
363.743785	0.991648	174.000000	fixation	nontarget	na	na
364.735433	0.990376	175.000000	face	nontarget	correct	0.576938
365.725809	0.992614	175.000000	fixation	nontarget	na	na
366.718424	0.991541	176.000000	face	nontarget	correct	0.575012
367.709964	0.991510	176.000000	fixation	nontarget	na	na
368.701474	0.991688	177.000000	face	nontarget	correct	0.619173
369.693162	0.991480	177.000000	fixation	nontarget	na	na
370.684642	0.991494	178.000000	face	nontarget	correct	0.600350
371.676137	0.992718	178.000000	fixation	nontarget	na	na
372.668855	0.990360	179.000000	face	nontarget	correct	0.715857
373.659215	0.992658	179.000000	fixation	nontarget	na	na
374.651872	0.991614	180.000000	face	nontarget	correct	0.730680
375.643486	0.968857	180.000000	fixation	nontarget	na	na
