onset	duration	trial_number	trial_type	frame_number	time_of_response
8.065778	0.049674	1.000000	nontarget	1.000000	na
8.115451	0.050017	1.000000	nontarget	2.000000	na
8.165469	0.049456	1.000000	nontarget	3.000000	na
8.214925	0.050758	1.000000	nontarget	4.000000	na
8.265683	0.050020	1.000000	nontarget	5.000000	na
8.315703	0.049221	1.000000	nontarget	6.000000	na
8.364924	0.050636	1.000000	nontarget	7.000000	na
8.415559	0.050218	1.000000	nontarget	8.000000	na
8.465777	0.049186	1.000000	nontarget	9.000000	na
8.514964	0.050656	1.000000	nontarget	10.000000	na
8.565620	0.049235	1.000000	nontarget	11.000000	na
8.614856	0.050912	1.000000	nontarget	12.000000	8.624565
8.665767	0.049539	1.000000	nontarget	13.000000	na
8.715307	0.049610	1.000000	nontarget	14.000000	na
8.764917	0.050159	1.000000	nontarget	15.000000	na
8.815076	0.050583	1.000000	nontarget	16.000000	na
8.865659	0.049230	2.000000	nontarget	1.000000	na
8.914889	0.050025	2.000000	nontarget	2.000000	na
8.964914	0.050797	2.000000	nontarget	3.000000	na
9.015711	0.049287	2.000000	nontarget	4.000000	na
9.064998	0.050117	2.000000	nontarget	5.000000	na
9.115115	0.050715	2.000000	nontarget	6.000000	na
9.165830	0.049841	2.000000	nontarget	7.000000	na
9.215671	0.049286	2.000000	nontarget	8.000000	na
9.264957	0.049974	2.000000	nontarget	9.000000	na
9.314931	0.050585	2.000000	nontarget	10.000000	na
9.365516	0.050269	2.000000	nontarget	11.000000	9.388331
9.415785	0.049700	2.000000	nontarget	12.000000	na
9.465485	0.050233	2.000000	nontarget	13.000000	na
9.515717	0.049229	2.000000	nontarget	14.000000	na
9.564946	0.050727	2.000000	nontarget	15.000000	na
9.615673	0.050030	2.000000	nontarget	16.000000	na
9.665703	0.049989	3.000000	nontarget	1.000000	na
9.715692	0.049227	3.000000	nontarget	2.000000	na
9.764919	0.050897	3.000000	nontarget	3.000000	na
9.815816	0.049081	3.000000	nontarget	4.000000	na
9.864897	0.050886	3.000000	nontarget	5.000000	na
9.915783	0.049771	3.000000	nontarget	6.000000	na
9.965554	0.049485	3.000000	nontarget	7.000000	na
10.015038	0.050771	3.000000	nontarget	8.000000	na
10.065810	0.049166	3.000000	nontarget	9.000000	na
10.114976	0.050772	3.000000	nontarget	10.000000	na
10.165748	0.049172	3.000000	nontarget	11.000000	na
10.214920	0.050413	3.000000	nontarget	12.000000	10.238438
10.265333	0.049989	3.000000	nontarget	13.000000	na
10.315322	0.050369	3.000000	nontarget	14.000000	na
10.365691	0.049121	3.000000	nontarget	15.000000	na
10.414813	0.050828	3.000000	nontarget	16.000000	na
10.465640	0.049214	4.000000	nontarget	1.000000	na
10.514855	0.050604	4.000000	nontarget	2.000000	na
10.565458	0.050178	4.000000	nontarget	3.000000	na
10.615636	0.050121	4.000000	nontarget	4.000000	na
10.665757	0.050016	4.000000	nontarget	5.000000	na
10.715772	0.049931	4.000000	nontarget	6.000000	na
10.765703	0.049626	4.000000	nontarget	7.000000	na
10.815329	0.049434	4.000000	nontarget	8.000000	na
10.864763	0.050169	4.000000	nontarget	9.000000	na
10.914931	0.050763	4.000000	nontarget	10.000000	na
10.965695	0.049186	4.000000	nontarget	11.000000	na
11.014881	0.050827	4.000000	nontarget	12.000000	na
11.065708	0.049226	4.000000	nontarget	13.000000	11.077393
11.114934	0.050778	4.000000	nontarget	14.000000	na
11.165712	0.049571	4.000000	nontarget	15.000000	na
11.215283	0.050357	4.000000	nontarget	16.000000	na
11.265640	0.049272	5.000000	nontarget	1.000000	na
11.314912	0.050007	5.000000	nontarget	2.000000	na
11.364919	0.050905	5.000000	nontarget	3.000000	na
11.415824	0.049101	5.000000	nontarget	4.000000	na
11.464925	0.050713	5.000000	nontarget	5.000000	na
11.515638	0.049814	5.000000	nontarget	6.000000	na
11.565452	0.050201	5.000000	nontarget	7.000000	na
11.615653	0.050059	5.000000	nontarget	8.000000	na
11.665712	0.049218	5.000000	nontarget	9.000000	na
11.714929	0.050008	5.000000	nontarget	10.000000	na
11.764938	0.050703	5.000000	nontarget	11.000000	na
11.815641	0.049294	5.000000	nontarget	12.000000	na
11.864935	0.050013	5.000000	nontarget	13.000000	11.872126
11.914948	0.050765	5.000000	nontarget	14.000000	na
11.965713	0.049258	5.000000	nontarget	15.000000	na
12.014971	0.050001	5.000000	nontarget	16.000000	na
12.064972	0.049833	6.000000	nontarget	1.000000	na
12.114805	0.050756	6.000000	nontarget	2.000000	na
12.165561	0.049361	6.000000	nontarget	3.000000	na
12.214921	0.050019	6.000000	nontarget	4.000000	na
12.264940	0.050053	6.000000	nontarget	5.000000	na
12.314993	0.049939	6.000000	nontarget	6.000000	na
12.364932	0.050153	6.000000	nontarget	7.000000	na
12.415085	0.049874	6.000000	nontarget	8.000000	na
12.464959	0.050673	6.000000	nontarget	9.000000	na
12.515631	0.050005	6.000000	nontarget	10.000000	na
12.565636	0.050180	6.000000	nontarget	11.000000	na
12.615816	0.049124	6.000000	nontarget	12.000000	na
12.664941	0.050708	6.000000	nontarget	13.000000	na
12.715648	0.053918	6.000000	nontarget	14.000000	na
12.769566	0.045757	6.000000	nontarget	15.000000	12.775008
12.815322	0.050015	6.000000	nontarget	16.000000	na
12.865337	0.050297	7.000000	nontarget	1.000000	12.871992
12.915634	0.050078	7.000000	nontarget	2.000000	na
12.965712	0.049241	7.000000	nontarget	3.000000	na
13.014953	0.050297	7.000000	nontarget	4.000000	na
13.065250	0.049662	7.000000	nontarget	5.000000	na
13.114911	0.050802	7.000000	nontarget	6.000000	na
13.165714	0.049207	7.000000	nontarget	7.000000	na
13.214921	0.050567	7.000000	nontarget	8.000000	na
13.265488	0.049442	7.000000	nontarget	9.000000	na
13.314931	0.049993	7.000000	nontarget	10.000000	na
13.364924	0.050780	7.000000	nontarget	11.000000	na
13.415704	0.049213	7.000000	nontarget	12.000000	na
13.464917	0.049991	7.000000	nontarget	13.000000	na
13.514908	0.050699	7.000000	nontarget	14.000000	na
13.565607	0.049861	7.000000	nontarget	15.000000	na
13.615468	0.050404	7.000000	nontarget	16.000000	13.625340
13.665872	0.049779	8.000000	nontarget	1.000000	13.672448
13.715651	0.049308	8.000000	nontarget	2.000000	na
13.764959	0.049977	8.000000	nontarget	3.000000	na
13.814935	0.050001	8.000000	nontarget	4.000000	na
13.864936	0.049990	8.000000	nontarget	5.000000	na
13.914926	0.050047	8.000000	nontarget	6.000000	na
13.964972	0.050054	8.000000	nontarget	7.000000	na
14.015026	0.050347	8.000000	nontarget	8.000000	na
14.065372	0.049609	8.000000	nontarget	9.000000	na
14.114981	0.050937	8.000000	nontarget	10.000000	na
14.165918	0.049697	8.000000	nontarget	11.000000	na
14.215615	0.050072	8.000000	nontarget	12.000000	na
14.265688	0.050404	8.000000	nontarget	13.000000	na
14.316092	0.049567	8.000000	nontarget	14.000000	na
14.365659	0.049192	8.000000	nontarget	15.000000	na
14.414851	0.050196	8.000000	nontarget	16.000000	14.450808
14.465047	0.050207	9.000000	nontarget	1.000000	14.471716
14.515254	0.049707	9.000000	nontarget	2.000000	na
14.564961	0.049966	9.000000	nontarget	3.000000	na
14.614927	0.050042	9.000000	nontarget	4.000000	na
14.664969	0.050618	9.000000	nontarget	5.000000	na
14.715587	0.049349	9.000000	nontarget	6.000000	na
14.764937	0.050947	9.000000	nontarget	7.000000	na
14.815884	0.049734	9.000000	nontarget	8.000000	na
14.865617	0.049951	9.000000	nontarget	9.000000	na
14.915568	0.049390	9.000000	nontarget	10.000000	na
14.964958	0.050707	9.000000	nontarget	11.000000	na
15.015666	0.049345	9.000000	nontarget	12.000000	na
15.065010	0.050726	9.000000	nontarget	13.000000	na
15.115736	0.049890	9.000000	nontarget	14.000000	na
15.165626	0.049587	9.000000	nontarget	15.000000	na
15.215213	0.050431	9.000000	nontarget	16.000000	15.230534
15.265644	0.050219	10.000000	nontarget	1.000000	15.272270
15.315863	0.049849	10.000000	nontarget	2.000000	na
15.365712	0.049224	10.000000	nontarget	3.000000	na
15.414936	0.050025	10.000000	nontarget	4.000000	na
15.464961	0.050780	10.000000	nontarget	5.000000	na
15.515741	0.049206	10.000000	nontarget	6.000000	na
15.564947	0.050567	10.000000	nontarget	7.000000	na
15.615514	0.049616	10.000000	nontarget	8.000000	na
15.665130	0.049790	10.000000	nontarget	9.000000	na
15.714920	0.050443	10.000000	nontarget	10.000000	na
15.765363	0.050159	10.000000	nontarget	11.000000	na
15.815523	0.049782	10.000000	nontarget	12.000000	na
15.865305	0.050289	10.000000	nontarget	13.000000	na
15.915593	0.049970	10.000000	nontarget	14.000000	na
15.965563	0.049475	10.000000	nontarget	15.000000	na
16.015039	0.050356	10.000000	nontarget	16.000000	na
16.065395	0.050058	11.000000	nontarget	1.000000	na
16.115453	0.050393	11.000000	nontarget	2.000000	16.126685
16.165845	0.049111	11.000000	nontarget	3.000000	na
16.214957	0.050668	11.000000	nontarget	4.000000	na
16.265625	0.049295	11.000000	nontarget	5.000000	na
16.314920	0.050026	11.000000	nontarget	6.000000	na
16.364946	0.050324	11.000000	nontarget	7.000000	na
16.415270	0.049666	11.000000	nontarget	8.000000	na
16.464936	0.050357	11.000000	nontarget	9.000000	na
16.515293	0.050392	11.000000	nontarget	10.000000	na
16.565686	0.049255	11.000000	nontarget	11.000000	na
16.614941	0.050615	11.000000	nontarget	12.000000	na
16.665556	0.049360	11.000000	nontarget	13.000000	na
16.714917	0.050016	11.000000	nontarget	14.000000	na
16.764933	0.050010	11.000000	nontarget	15.000000	na
16.814942	0.050311	11.000000	nontarget	16.000000	na
16.865254	0.050347	12.000000	nontarget	1.000000	na
16.915600	0.052919	12.000000	nontarget	2.000000	na
16.968519	0.047511	12.000000	nontarget	3.000000	16.974853
17.016030	0.049586	12.000000	nontarget	4.000000	na
17.065616	0.049966	12.000000	nontarget	5.000000	na
17.115582	0.049997	12.000000	nontarget	6.000000	na
17.165579	0.049436	12.000000	nontarget	7.000000	na
17.215015	0.049905	12.000000	nontarget	8.000000	na
17.264920	0.050659	12.000000	nontarget	9.000000	na
17.315579	0.049363	12.000000	nontarget	10.000000	na
17.364941	0.050267	12.000000	nontarget	11.000000	na
17.415208	0.050339	12.000000	nontarget	12.000000	na
17.465548	0.049409	12.000000	nontarget	13.000000	na
17.514956	0.050823	12.000000	nontarget	14.000000	na
17.565780	0.049730	12.000000	nontarget	15.000000	na
17.615510	0.049740	12.000000	nontarget	16.000000	na
17.665250	0.050325	13.000000	nontarget	1.000000	na
17.715574	0.050216	13.000000	nontarget	2.000000	17.743376
17.765790	0.049210	13.000000	nontarget	3.000000	na
17.815000	0.050717	13.000000	nontarget	4.000000	na
17.865717	0.049719	13.000000	nontarget	5.000000	na
17.915436	0.050018	13.000000	nontarget	6.000000	na
17.965454	0.049595	13.000000	nontarget	7.000000	na
18.015048	0.050594	13.000000	nontarget	8.000000	na
18.065643	0.049960	13.000000	nontarget	9.000000	na
18.115603	0.049335	13.000000	nontarget	10.000000	na
18.164938	0.050006	13.000000	nontarget	11.000000	na
18.214944	0.050004	13.000000	nontarget	12.000000	na
18.264948	0.050814	13.000000	nontarget	13.000000	na
18.315762	0.049813	13.000000	nontarget	14.000000	na
18.365575	0.049317	13.000000	nontarget	15.000000	na
18.414892	0.050938	13.000000	nontarget	16.000000	na
18.465830	0.048988	14.000000	nontarget	1.000000	na
18.514818	0.050312	14.000000	nontarget	2.000000	18.538865
18.565130	0.049833	14.000000	nontarget	3.000000	na
18.614963	0.050034	14.000000	nontarget	4.000000	na
18.664997	0.049858	14.000000	nontarget	5.000000	na
18.714855	0.050881	14.000000	nontarget	6.000000	na
18.765736	0.049205	14.000000	nontarget	7.000000	na
18.814941	0.050028	14.000000	nontarget	8.000000	na
18.864968	0.049983	14.000000	nontarget	9.000000	na
18.914951	0.049967	14.000000	nontarget	10.000000	na
18.964918	0.050111	14.000000	nontarget	11.000000	na
19.015029	0.050579	14.000000	nontarget	12.000000	na
19.065609	0.049368	14.000000	nontarget	13.000000	na
19.114977	0.049957	14.000000	nontarget	14.000000	na
19.164934	0.050252	14.000000	nontarget	15.000000	na
19.215186	0.050136	14.000000	nontarget	16.000000	na
19.265322	0.050003	15.000000	nontarget	1.000000	19.280651
19.315324	0.049931	15.000000	nontarget	2.000000	na
19.365255	0.050064	15.000000	nontarget	3.000000	na
19.415320	0.049749	15.000000	nontarget	4.000000	na
19.465069	0.050499	15.000000	nontarget	5.000000	na
19.515568	0.049991	15.000000	nontarget	6.000000	na
19.565559	0.049926	15.000000	nontarget	7.000000	na
19.615485	0.049472	15.000000	nontarget	8.000000	na
19.664957	0.049983	15.000000	nontarget	9.000000	na
19.714941	0.050774	15.000000	nontarget	10.000000	na
19.765715	0.049536	15.000000	nontarget	11.000000	na
19.815251	0.050267	15.000000	nontarget	12.000000	na
19.865518	0.050009	15.000000	nontarget	13.000000	na
19.915526	0.050187	15.000000	nontarget	14.000000	na
19.965713	0.056333	15.000000	nontarget	15.000000	19.976881
20.022046	0.043172	15.000000	nontarget	16.000000	na
20.065218	0.049450	16.000000	nontarget	1.000000	20.071428
20.114668	0.050269	16.000000	nontarget	2.000000	na
20.164937	0.050034	16.000000	nontarget	3.000000	na
20.214971	0.050568	16.000000	nontarget	4.000000	na
20.265539	0.049978	16.000000	nontarget	5.000000	na
20.315516	0.050087	16.000000	nontarget	6.000000	na
20.365604	0.049395	16.000000	nontarget	7.000000	na
20.414999	0.050545	16.000000	nontarget	8.000000	na
20.465544	0.049431	16.000000	nontarget	9.000000	na
20.514974	0.050396	16.000000	nontarget	10.000000	na
20.565370	0.050351	16.000000	nontarget	11.000000	na
20.615721	0.049248	16.000000	nontarget	12.000000	na
20.664969	0.049977	16.000000	nontarget	13.000000	na
20.714946	0.049605	16.000000	nontarget	14.000000	na
20.764551	0.050955	16.000000	nontarget	15.000000	na
20.815505	0.049453	16.000000	nontarget	16.000000	na
20.864958	0.049297	17.000000	nontarget	1.000000	na
20.914255	0.051492	17.000000	nontarget	2.000000	20.921679
20.965748	0.049290	17.000000	nontarget	3.000000	na
21.015037	0.050602	17.000000	nontarget	4.000000	na
21.065639	0.049833	17.000000	nontarget	5.000000	na
21.115472	0.049827	17.000000	nontarget	6.000000	na
21.165299	0.049673	17.000000	nontarget	7.000000	na
21.214972	0.050543	17.000000	nontarget	8.000000	na
21.265515	0.050098	17.000000	nontarget	9.000000	na
21.315613	0.049945	17.000000	nontarget	10.000000	na
21.365559	0.049939	17.000000	nontarget	11.000000	na
21.415498	0.050012	17.000000	nontarget	12.000000	na
21.465510	0.049188	17.000000	nontarget	13.000000	na
21.514699	0.050822	17.000000	nontarget	14.000000	na
21.565521	0.049725	17.000000	nontarget	15.000000	na
21.615246	0.050259	17.000000	nontarget	16.000000	na
21.665505	0.050026	18.000000	nontarget	1.000000	na
21.715531	0.050737	18.000000	nontarget	2.000000	na
21.766269	0.049434	18.000000	nontarget	3.000000	21.771830
21.815703	0.049892	18.000000	nontarget	4.000000	na
21.865594	0.049338	18.000000	nontarget	5.000000	na
21.914932	0.050748	18.000000	nontarget	6.000000	na
21.965680	0.049324	18.000000	nontarget	7.000000	na
22.015004	0.050546	18.000000	nontarget	8.000000	na
22.065550	0.049410	18.000000	nontarget	9.000000	na
22.114960	0.049994	18.000000	nontarget	10.000000	na
22.164954	0.049976	18.000000	nontarget	11.000000	na
22.214931	0.050079	18.000000	nontarget	12.000000	na
22.265010	0.049931	18.000000	nontarget	13.000000	na
22.314941	0.049814	18.000000	nontarget	14.000000	na
22.364755	0.050238	18.000000	nontarget	15.000000	na
22.414993	0.049934	18.000000	nontarget	16.000000	na
22.464927	0.050347	19.000000	nontarget	1.000000	22.471597
22.515274	0.049728	19.000000	nontarget	2.000000	na
22.565002	0.050846	19.000000	nontarget	3.000000	na
22.615848	0.049097	19.000000	nontarget	4.000000	na
22.664945	0.050540	19.000000	nontarget	5.000000	na
22.715486	0.049459	19.000000	nontarget	6.000000	na
22.764945	0.050029	19.000000	nontarget	7.000000	na
22.814974	0.049959	19.000000	nontarget	8.000000	na
22.864933	0.050412	19.000000	nontarget	9.000000	na
22.915345	0.050359	19.000000	nontarget	10.000000	na
22.965704	0.049290	19.000000	nontarget	11.000000	na
23.014994	0.049996	19.000000	nontarget	12.000000	na
23.064990	0.050573	19.000000	nontarget	13.000000	na
23.115563	0.048979	19.000000	nontarget	14.000000	na
23.164542	0.050948	19.000000	nontarget	15.000000	na
23.215490	0.049542	19.000000	nontarget	16.000000	na
23.265032	0.049911	20.000000	nontarget	1.000000	na
23.314943	0.050097	20.000000	nontarget	2.000000	na
23.365041	0.049977	20.000000	nontarget	3.000000	23.392013
23.415018	0.050515	20.000000	nontarget	4.000000	na
23.465533	0.050066	20.000000	nontarget	5.000000	na
23.515599	0.049914	20.000000	nontarget	6.000000	na
23.565513	0.049968	20.000000	nontarget	7.000000	na
23.615480	0.049455	20.000000	nontarget	8.000000	na
23.664935	0.050012	20.000000	nontarget	9.000000	na
23.714948	0.050355	20.000000	nontarget	10.000000	na
23.765303	0.050288	20.000000	nontarget	11.000000	na
23.815591	0.049260	20.000000	nontarget	12.000000	na
23.864851	0.050866	20.000000	nontarget	13.000000	na
23.915717	0.049021	20.000000	nontarget	14.000000	na
23.964738	0.050275	20.000000	nontarget	15.000000	na
24.015014	0.050499	20.000000	nontarget	16.000000	na
24.065513	0.049270	21.000000	nontarget	1.000000	na
24.114783	0.051059	21.000000	nontarget	2.000000	24.139788
24.165842	0.049682	21.000000	nontarget	3.000000	na
24.215524	0.049558	21.000000	nontarget	4.000000	na
24.265082	0.050660	21.000000	nontarget	5.000000	na
24.315742	0.049759	21.000000	nontarget	6.000000	na
24.365501	0.049964	21.000000	nontarget	7.000000	na
24.415465	0.049224	21.000000	nontarget	8.000000	na
24.464688	0.050253	21.000000	nontarget	9.000000	na
24.514942	0.049906	21.000000	nontarget	10.000000	na
24.564847	0.050096	21.000000	nontarget	11.000000	na
24.614944	0.050010	21.000000	nontarget	12.000000	na
24.664954	0.049808	21.000000	nontarget	13.000000	na
24.714762	0.050787	21.000000	nontarget	14.000000	na
24.765549	0.049665	21.000000	nontarget	15.000000	na
24.815214	0.049626	21.000000	nontarget	16.000000	na
24.864839	0.050626	22.000000	nontarget	1.000000	na
24.915466	0.049943	22.000000	nontarget	2.000000	24.946820
24.965409	0.049602	22.000000	nontarget	3.000000	na
25.015010	0.050488	22.000000	nontarget	4.000000	na
25.065498	0.049479	22.000000	nontarget	5.000000	na
25.114977	0.050804	22.000000	nontarget	6.000000	na
25.165781	0.049170	22.000000	nontarget	7.000000	na
25.214950	0.049873	22.000000	nontarget	8.000000	na
25.264823	0.050632	22.000000	nontarget	9.000000	na
25.315455	0.050029	22.000000	nontarget	10.000000	na
25.365485	0.049958	22.000000	nontarget	11.000000	na
25.415443	0.049746	22.000000	nontarget	12.000000	na
25.465189	0.050262	22.000000	nontarget	13.000000	na
25.515450	0.049486	22.000000	nontarget	14.000000	na
25.564937	0.050517	22.000000	nontarget	15.000000	na
25.615454	0.049983	22.000000	nontarget	16.000000	na
25.665437	0.050009	23.000000	nontarget	1.000000	na
25.715446	0.049499	23.000000	nontarget	2.000000	na
25.764945	0.050005	23.000000	nontarget	3.000000	na
25.814950	0.050128	23.000000	nontarget	4.000000	na
25.865078	0.049676	23.000000	nontarget	5.000000	25.871771
25.914754	0.050634	23.000000	nontarget	6.000000	na
25.965389	0.049616	23.000000	nontarget	7.000000	na
26.015004	0.050484	23.000000	nontarget	8.000000	na
26.065488	0.049497	23.000000	nontarget	9.000000	na
26.114985	0.050643	23.000000	nontarget	10.000000	na
26.165628	0.049333	23.000000	nontarget	11.000000	na
26.214960	0.050359	23.000000	nontarget	12.000000	na
26.265320	0.049547	23.000000	nontarget	13.000000	na
26.314866	0.050646	23.000000	nontarget	14.000000	na
26.365512	0.049909	23.000000	nontarget	15.000000	na
26.415421	0.049560	23.000000	nontarget	16.000000	na
26.464980	0.049959	24.000000	nontarget	1.000000	na
26.514939	0.050007	24.000000	nontarget	2.000000	na
26.564947	0.050697	24.000000	nontarget	3.000000	na
26.615644	0.049305	24.000000	nontarget	4.000000	na
26.664949	0.050001	24.000000	nontarget	5.000000	na
26.714950	0.050693	24.000000	nontarget	6.000000	na
26.765642	0.049620	24.000000	nontarget	7.000000	na
26.815262	0.051343	24.000000	nontarget	8.000000	na
26.866606	0.048403	24.000000	nontarget	9.000000	26.873242
26.915008	0.050478	24.000000	nontarget	10.000000	na
26.965486	0.050005	24.000000	nontarget	11.000000	na
27.015491	0.048976	24.000000	nontarget	12.000000	na
27.064467	0.050522	24.000000	nontarget	13.000000	na
27.114989	0.049997	24.000000	nontarget	14.000000	na
27.164987	0.049965	24.000000	nontarget	15.000000	na
27.214952	0.050002	24.000000	nontarget	16.000000	na
27.264954	0.050013	25.000000	nontarget	1.000000	na
27.314967	0.050378	25.000000	nontarget	2.000000	na
27.365345	0.049457	25.000000	nontarget	3.000000	na
27.414802	0.050141	25.000000	nontarget	4.000000	na
27.464943	0.050393	25.000000	nontarget	5.000000	na
27.515336	0.049693	25.000000	nontarget	6.000000	na
27.565029	0.050394	25.000000	nontarget	7.000000	na
27.615423	0.049535	25.000000	nontarget	8.000000	na
27.664958	0.050015	25.000000	nontarget	9.000000	na
27.714973	0.050390	25.000000	nontarget	10.000000	na
27.765363	0.049644	25.000000	nontarget	11.000000	27.785553
27.815007	0.050356	25.000000	nontarget	12.000000	na
27.865362	0.049613	25.000000	nontarget	13.000000	na
27.914976	0.049790	25.000000	nontarget	14.000000	na
27.964765	0.050249	25.000000	nontarget	15.000000	na
28.015015	0.049965	25.000000	nontarget	16.000000	na
28.064979	0.050407	26.000000	target	1.000000	na
28.115387	0.049689	26.000000	target	2.000000	na
28.165075	0.050251	26.000000	target	3.000000	na
28.215327	0.049407	26.000000	target	4.000000	na
28.264734	0.050218	26.000000	target	5.000000	na
28.314952	0.050323	26.000000	target	6.000000	na
28.365274	0.050041	26.000000	target	7.000000	na
28.415315	0.049641	26.000000	target	8.000000	na
28.464956	0.050401	26.000000	target	9.000000	na
28.515357	0.050220	26.000000	target	10.000000	na
28.565578	0.049771	26.000000	target	11.000000	na
28.615348	0.049878	26.000000	target	12.000000	na
28.665227	0.050347	26.000000	target	13.000000	na
28.715574	0.049522	26.000000	target	14.000000	na
28.765096	0.050260	26.000000	target	15.000000	na
28.815356	0.050190	26.000000	target	16.000000	na
28.865546	0.049404	27.000000	nontarget	1.000000	na
28.914950	0.050029	27.000000	nontarget	2.000000	na
28.964979	0.049955	27.000000	nontarget	3.000000	na
29.014933	0.050011	27.000000	nontarget	4.000000	na
29.064944	0.050058	27.000000	nontarget	5.000000	29.081917
29.115002	0.049469	27.000000	nontarget	6.000000	na
29.164471	0.050529	27.000000	nontarget	7.000000	na
29.215000	0.050654	27.000000	nontarget	8.000000	na
29.265654	0.049942	27.000000	nontarget	9.000000	na
29.315596	0.049718	27.000000	nontarget	10.000000	na
29.365314	0.049351	27.000000	nontarget	11.000000	na
29.414665	0.050291	27.000000	nontarget	12.000000	na
29.464956	0.050116	27.000000	nontarget	13.000000	na
29.515072	0.050684	27.000000	nontarget	14.000000	na
29.565757	0.049190	27.000000	nontarget	15.000000	na
29.614947	0.050019	27.000000	nontarget	16.000000	na
29.664966	0.050848	28.000000	nontarget	1.000000	na
29.715814	0.049741	28.000000	nontarget	2.000000	na
29.765554	0.049399	28.000000	nontarget	3.000000	na
29.814954	0.050575	28.000000	nontarget	4.000000	na
29.865529	0.049425	28.000000	nontarget	5.000000	na
29.914954	0.049990	28.000000	nontarget	6.000000	na
29.964944	0.050065	28.000000	nontarget	7.000000	na
30.015009	0.050333	28.000000	nontarget	8.000000	na
30.065342	0.050555	28.000000	nontarget	9.000000	30.085139
30.115896	0.049736	28.000000	nontarget	10.000000	na
30.165633	0.049971	28.000000	nontarget	11.000000	na
30.215604	0.049301	28.000000	nontarget	12.000000	na
30.264904	0.050420	28.000000	nontarget	13.000000	na
30.315324	0.050105	28.000000	nontarget	14.000000	na
30.365429	0.049532	28.000000	nontarget	15.000000	na
30.414961	0.050582	28.000000	nontarget	16.000000	na
30.465543	0.049413	29.000000	nontarget	1.000000	na
30.514956	0.050814	29.000000	nontarget	2.000000	na
30.565770	0.049182	29.000000	nontarget	3.000000	na
30.614952	0.050754	29.000000	nontarget	4.000000	na
30.665706	0.049236	29.000000	nontarget	5.000000	na
30.714942	0.050796	29.000000	nontarget	6.000000	na
30.765738	0.049788	29.000000	nontarget	7.000000	na
30.815526	0.050005	29.000000	nontarget	8.000000	na
30.865531	0.049434	29.000000	nontarget	9.000000	na
30.914965	0.050312	29.000000	nontarget	10.000000	na
30.965278	0.049653	29.000000	nontarget	11.000000	na
31.014931	0.050631	29.000000	nontarget	12.000000	na
31.065562	0.049743	29.000000	nontarget	13.000000	na
31.115305	0.049700	29.000000	nontarget	14.000000	31.121923
31.165005	0.049994	29.000000	nontarget	15.000000	na
31.214999	0.050745	29.000000	nontarget	16.000000	na
31.265744	0.049538	30.000000	nontarget	1.000000	na
31.315282	0.049675	30.000000	nontarget	2.000000	na
31.364957	0.050324	30.000000	nontarget	3.000000	na
31.415281	0.050379	30.000000	nontarget	4.000000	na
31.465660	0.049322	30.000000	nontarget	5.000000	na
31.514983	0.050574	30.000000	nontarget	6.000000	na
31.565557	0.049964	30.000000	nontarget	7.000000	na
31.615521	0.050091	30.000000	nontarget	8.000000	na
31.665612	0.049551	30.000000	nontarget	9.000000	na
31.715163	0.050659	30.000000	nontarget	10.000000	na
31.765822	0.049769	30.000000	nontarget	11.000000	na
31.815591	0.049377	30.000000	nontarget	12.000000	na
31.864968	0.050292	30.000000	nontarget	13.000000	na
31.915259	0.049613	30.000000	nontarget	14.000000	na
31.964872	0.050163	30.000000	nontarget	15.000000	na
32.015036	0.050632	30.000000	nontarget	16.000000	32.039156
32.065668	0.049348	31.000000	nontarget	1.000000	32.072285
32.115016	0.049774	31.000000	nontarget	2.000000	na
32.164790	0.050295	31.000000	nontarget	3.000000	na
32.215085	0.050180	31.000000	nontarget	4.000000	na
32.265266	0.049696	31.000000	nontarget	5.000000	na
32.314962	0.050549	31.000000	nontarget	6.000000	na
32.365511	0.049437	31.000000	nontarget	7.000000	na
32.414947	0.050320	31.000000	nontarget	8.000000	na
32.465268	0.050026	31.000000	nontarget	9.000000	na
32.515294	0.049345	31.000000	nontarget	10.000000	na
32.564639	0.050451	31.000000	nontarget	11.000000	na
32.615090	0.049858	31.000000	nontarget	12.000000	na
32.664948	0.050473	31.000000	nontarget	13.000000	na
32.715421	0.049834	31.000000	nontarget	14.000000	na
32.765256	0.049171	31.000000	nontarget	15.000000	na
32.814427	0.050572	31.000000	nontarget	16.000000	na
32.864999	0.050252	32.000000	nontarget	1.000000	na
32.915251	0.050007	32.000000	nontarget	2.000000	na
32.965257	0.049736	32.000000	nontarget	3.000000	na
33.014993	0.050614	32.000000	nontarget	4.000000	33.023710
33.065608	0.049407	32.000000	nontarget	5.000000	na
33.115014	0.049738	32.000000	nontarget	6.000000	na
33.164752	0.050040	32.000000	nontarget	7.000000	na
33.214792	0.050163	32.000000	nontarget	8.000000	na
33.264955	0.049591	32.000000	nontarget	9.000000	na
33.314546	0.050410	32.000000	nontarget	10.000000	na
33.364956	0.049757	32.000000	nontarget	11.000000	na
33.414714	0.050168	32.000000	nontarget	12.000000	na
33.464882	0.050166	32.000000	nontarget	13.000000	na
33.515049	0.049861	32.000000	nontarget	14.000000	na
33.564909	0.049853	32.000000	nontarget	15.000000	na
33.614763	0.050490	32.000000	nontarget	16.000000	na
33.665253	0.049353	33.000000	nontarget	1.000000	na
33.714605	0.050676	33.000000	nontarget	2.000000	na
33.765281	0.049321	33.000000	nontarget	3.000000	na
33.814602	0.050796	33.000000	nontarget	4.000000	33.845730
33.865397	0.049898	33.000000	nontarget	5.000000	na
33.915296	0.050084	33.000000	nontarget	6.000000	na
33.965379	0.050211	33.000000	nontarget	7.000000	na
34.015590	0.049535	33.000000	nontarget	8.000000	na
34.065126	0.050192	33.000000	nontarget	9.000000	na
34.115317	0.049959	33.000000	nontarget	10.000000	na
34.165276	0.049969	33.000000	nontarget	11.000000	na
34.215245	0.049918	33.000000	nontarget	12.000000	na
34.265163	0.049974	33.000000	nontarget	13.000000	na
34.315137	0.049970	33.000000	nontarget	14.000000	na
34.365107	0.049607	33.000000	nontarget	15.000000	na
34.414714	0.050541	33.000000	nontarget	16.000000	na
34.465255	0.049973	34.000000	nontarget	1.000000	na
34.515228	0.049789	34.000000	nontarget	2.000000	na
34.565016	0.050213	34.000000	nontarget	3.000000	na
34.615229	0.049734	34.000000	nontarget	4.000000	na
34.664963	0.049673	34.000000	nontarget	5.000000	na
34.714636	0.050331	34.000000	nontarget	6.000000	na
34.764966	0.050370	34.000000	nontarget	7.000000	na
34.815336	0.049227	34.000000	nontarget	8.000000	na
34.864563	0.050697	34.000000	nontarget	9.000000	na
34.915260	0.049121	34.000000	nontarget	10.000000	na
34.964381	0.053176	34.000000	nontarget	11.000000	na
35.017557	0.047675	34.000000	nontarget	12.000000	35.023892
35.065232	0.050053	34.000000	nontarget	13.000000	na
35.115284	0.049963	34.000000	nontarget	14.000000	na
35.165247	0.049710	34.000000	nontarget	15.000000	na
35.214957	0.050199	34.000000	nontarget	16.000000	na
35.265156	0.050057	35.000000	nontarget	1.000000	na
35.315213	0.050274	35.000000	nontarget	2.000000	na
35.365487	0.049464	35.000000	nontarget	3.000000	na
35.414951	0.049990	35.000000	nontarget	4.000000	na
35.464941	0.050010	35.000000	nontarget	5.000000	na
35.514951	0.049553	35.000000	nontarget	6.000000	na
35.564504	0.050464	35.000000	nontarget	7.000000	na
35.614968	0.050073	35.000000	nontarget	8.000000	na
35.665041	0.049912	35.000000	nontarget	9.000000	na
35.714953	0.050313	35.000000	nontarget	10.000000	na
35.765266	0.049464	35.000000	nontarget	11.000000	35.776560
35.814730	0.050433	35.000000	nontarget	12.000000	na
35.865163	0.049821	35.000000	nontarget	13.000000	na
35.914984	0.050259	35.000000	nontarget	14.000000	na
35.965243	0.050027	35.000000	nontarget	15.000000	na
36.015270	0.049686	35.000000	nontarget	16.000000	na
36.064956	0.050411	36.000000	target	1.000000	na
36.115367	0.050152	36.000000	target	2.000000	na
36.165520	0.049996	36.000000	target	3.000000	na
36.215516	0.049512	36.000000	target	4.000000	na
36.265028	0.049709	36.000000	target	5.000000	na
36.314738	0.050342	36.000000	target	6.000000	na
36.365080	0.050175	36.000000	target	7.000000	na
36.415255	0.049969	36.000000	target	8.000000	na
36.465224	0.049877	36.000000	target	9.000000	na
36.515102	0.050005	36.000000	target	10.000000	na
36.565107	0.050142	36.000000	target	11.000000	na
36.615249	0.049813	36.000000	target	12.000000	na
36.665062	0.050183	36.000000	target	13.000000	na
36.715246	0.049767	36.000000	target	14.000000	na
36.765012	0.049660	36.000000	target	15.000000	na
36.814673	0.050264	36.000000	target	16.000000	na
36.864937	0.050110	37.000000	nontarget	1.000000	na
36.915047	0.049931	37.000000	nontarget	2.000000	na
36.964979	0.050057	37.000000	nontarget	3.000000	36.976240
37.015036	0.050370	37.000000	nontarget	4.000000	na
37.065406	0.049670	37.000000	nontarget	5.000000	na
37.115076	0.049313	37.000000	nontarget	6.000000	na
37.164390	0.050575	37.000000	nontarget	7.000000	na
37.214965	0.050045	37.000000	nontarget	8.000000	na
37.265010	0.050025	37.000000	nontarget	9.000000	na
37.315034	0.050023	37.000000	nontarget	10.000000	na
37.365058	0.049895	37.000000	nontarget	11.000000	na
37.414953	0.049767	37.000000	nontarget	12.000000	na
37.464720	0.050266	37.000000	nontarget	13.000000	na
37.514986	0.049695	37.000000	nontarget	14.000000	na
37.564681	0.050831	37.000000	nontarget	15.000000	na
37.615512	0.049006	37.000000	nontarget	16.000000	na
37.664518	0.050466	38.000000	nontarget	1.000000	na
37.714984	0.049526	38.000000	nontarget	2.000000	na
37.764510	0.050500	38.000000	nontarget	3.000000	na
37.815009	0.050034	38.000000	nontarget	4.000000	na
37.865044	0.049795	38.000000	nontarget	5.000000	na
37.914839	0.050189	38.000000	nontarget	6.000000	37.949350
37.965027	0.049998	38.000000	nontarget	7.000000	na
38.015025	0.050028	38.000000	nontarget	8.000000	na
38.065053	0.049929	38.000000	nontarget	9.000000	na
38.114982	0.049449	38.000000	nontarget	10.000000	na
38.164432	0.050534	38.000000	nontarget	11.000000	na
38.214966	0.049556	38.000000	nontarget	12.000000	na
38.264522	0.050420	38.000000	nontarget	13.000000	na
38.314942	0.049605	38.000000	nontarget	14.000000	na
38.364547	0.050680	38.000000	nontarget	15.000000	na
38.415227	0.049743	38.000000	nontarget	16.000000	na
38.464970	0.050013	39.000000	nontarget	1.000000	na
38.514983	0.049976	39.000000	nontarget	2.000000	na
38.564959	0.049689	39.000000	nontarget	3.000000	na
38.614648	0.050347	39.000000	nontarget	4.000000	na
38.664994	0.049874	39.000000	nontarget	5.000000	na
38.714868	0.049756	39.000000	nontarget	6.000000	na
38.764625	0.049568	39.000000	nontarget	7.000000	na
38.814193	0.050797	39.000000	nontarget	8.000000	na
38.864989	0.049984	39.000000	nontarget	9.000000	na
38.914973	0.049802	39.000000	nontarget	10.000000	na
38.964775	0.050264	39.000000	nontarget	11.000000	na
39.015039	0.053079	39.000000	nontarget	12.000000	na
39.068118	0.046903	39.000000	nontarget	13.000000	39.073560
39.115021	0.050521	39.000000	nontarget	14.000000	na
39.165542	0.049272	39.000000	nontarget	15.000000	na
39.214814	0.050148	39.000000	nontarget	16.000000	na
39.264962	0.049581	40.000000	nontarget	1.000000	na
39.314543	0.049909	40.000000	nontarget	2.000000	na
39.364452	0.050521	40.000000	nontarget	3.000000	na
39.414973	0.050046	40.000000	nontarget	4.000000	na
39.465019	0.049963	40.000000	nontarget	5.000000	na
39.514982	0.049991	40.000000	nontarget	6.000000	na
39.564973	0.050062	40.000000	nontarget	7.000000	na
39.615035	0.049994	40.000000	nontarget	8.000000	na
39.665029	0.049996	40.000000	nontarget	9.000000	na
39.715025	0.049953	40.000000	nontarget	10.000000	na
39.764979	0.050320	40.000000	nontarget	11.000000	na
39.815299	0.049655	40.000000	nontarget	12.000000	na
39.864954	0.049994	40.000000	nontarget	13.000000	na
39.914948	0.050056	40.000000	nontarget	14.000000	na
39.965003	0.050035	40.000000	nontarget	15.000000	na
40.015039	0.049821	40.000000	nontarget	16.000000	na
40.064860	0.050094	41.000000	nontarget	1.000000	na
40.114953	0.050355	41.000000	nontarget	2.000000	na
40.165308	0.049705	41.000000	nontarget	3.000000	40.172025
40.215013	0.050000	41.000000	nontarget	4.000000	na
40.265013	0.050025	41.000000	nontarget	5.000000	na
40.315038	0.049374	41.000000	nontarget	6.000000	na
40.364413	0.050552	41.000000	nontarget	7.000000	na
40.414964	0.050029	41.000000	nontarget	8.000000	na
40.464994	0.049958	41.000000	nontarget	9.000000	na
40.514951	0.050044	41.000000	nontarget	10.000000	na
40.564995	0.049962	41.000000	nontarget	11.000000	na
40.614958	0.050530	41.000000	nontarget	12.000000	na
40.665488	0.049604	41.000000	nontarget	13.000000	na
40.715092	0.049802	41.000000	nontarget	14.000000	na
40.764894	0.049567	41.000000	nontarget	15.000000	na
40.814461	0.050210	41.000000	nontarget	16.000000	na
40.864671	0.050293	42.000000	nontarget	1.000000	na
40.914964	0.049631	42.000000	nontarget	2.000000	na
40.964595	0.051080	42.000000	nontarget	3.000000	40.999170
41.015675	0.049345	42.000000	nontarget	4.000000	na
41.065021	0.049996	42.000000	nontarget	5.000000	na
41.115016	0.049845	42.000000	nontarget	6.000000	na
41.164861	0.050177	42.000000	nontarget	7.000000	na
41.215039	0.049929	42.000000	nontarget	8.000000	na
41.264967	0.049622	42.000000	nontarget	9.000000	na
41.314589	0.050351	42.000000	nontarget	10.000000	na
41.364940	0.050034	42.000000	nontarget	11.000000	na
41.414974	0.049971	42.000000	nontarget	12.000000	na
41.464945	0.050208	42.000000	nontarget	13.000000	na
41.515153	0.049230	42.000000	nontarget	14.000000	na
41.564384	0.050450	42.000000	nontarget	15.000000	na
41.614833	0.050147	42.000000	nontarget	16.000000	na
41.664980	0.050016	43.000000	nontarget	1.000000	na
41.714996	0.049977	43.000000	nontarget	2.000000	na
41.764974	0.049763	43.000000	nontarget	3.000000	na
41.814737	0.050405	43.000000	nontarget	4.000000	na
41.865141	0.049840	43.000000	nontarget	5.000000	na
41.914982	0.049978	43.000000	nontarget	6.000000	na
41.964960	0.049599	43.000000	nontarget	7.000000	41.995305
42.014559	0.049981	43.000000	nontarget	8.000000	na
42.064540	0.049922	43.000000	nontarget	9.000000	na
42.114461	0.051104	43.000000	nontarget	10.000000	na
42.165566	0.049385	43.000000	nontarget	11.000000	na
42.214950	0.049861	43.000000	nontarget	12.000000	na
42.264812	0.050186	43.000000	nontarget	13.000000	na
42.314998	0.049985	43.000000	nontarget	14.000000	na
42.364983	0.049980	43.000000	nontarget	15.000000	na
42.414963	0.049693	43.000000	nontarget	16.000000	na
42.464657	0.050156	44.000000	nontarget	1.000000	na
42.514813	0.049568	44.000000	nontarget	2.000000	na
42.564381	0.050902	44.000000	nontarget	3.000000	na
42.615283	0.049707	44.000000	nontarget	4.000000	na
42.664990	0.050056	44.000000	nontarget	5.000000	na
42.715046	0.049363	44.000000	nontarget	6.000000	na
42.764410	0.050575	44.000000	nontarget	7.000000	na
42.814984	0.050041	44.000000	nontarget	8.000000	42.824867
42.865026	0.050075	44.000000	nontarget	9.000000	na
42.915101	0.050292	44.000000	nontarget	10.000000	na
42.965393	0.049645	44.000000	nontarget	11.000000	na
43.015038	0.049993	44.000000	nontarget	12.000000	na
43.065031	0.049964	44.000000	nontarget	13.000000	na
43.114995	0.049992	44.000000	nontarget	14.000000	na
43.164987	0.049970	44.000000	nontarget	15.000000	na
43.214957	0.050319	44.000000	nontarget	16.000000	na
43.265276	0.049698	45.000000	nontarget	1.000000	na
43.314974	0.050500	45.000000	nontarget	2.000000	na
43.365473	0.049501	45.000000	nontarget	3.000000	na
43.414974	0.049995	45.000000	nontarget	4.000000	na
43.464969	0.050007	45.000000	nontarget	5.000000	na
43.514976	0.049991	45.000000	nontarget	6.000000	na
43.564966	0.050028	45.000000	nontarget	7.000000	na
43.614994	0.049791	45.000000	nontarget	8.000000	na
43.664785	0.050182	45.000000	nontarget	9.000000	na
43.714966	0.049473	45.000000	nontarget	10.000000	na
43.764440	0.050531	45.000000	nontarget	11.000000	na
43.814970	0.050027	45.000000	nontarget	12.000000	na
43.864997	0.049718	45.000000	nontarget	13.000000	43.896001
43.914715	0.050323	45.000000	nontarget	14.000000	na
43.965038	0.050000	45.000000	nontarget	15.000000	na
44.015037	0.049676	45.000000	nontarget	16.000000	na
44.064713	0.049962	46.000000	nontarget	1.000000	na
44.114675	0.050284	46.000000	nontarget	2.000000	na
44.164959	0.050014	46.000000	nontarget	3.000000	na
44.214973	0.050619	46.000000	nontarget	4.000000	na
44.265591	0.049292	46.000000	nontarget	5.000000	na
44.314883	0.050103	46.000000	nontarget	6.000000	na
44.364986	0.049988	46.000000	nontarget	7.000000	na
44.414973	0.050004	46.000000	nontarget	8.000000	na
44.464978	0.049995	46.000000	nontarget	9.000000	na
44.514973	0.049815	46.000000	nontarget	10.000000	na
44.564788	0.050185	46.000000	nontarget	11.000000	na
44.614973	0.049792	46.000000	nontarget	12.000000	na
44.664765	0.050213	46.000000	nontarget	13.000000	na
44.714977	0.050048	46.000000	nontarget	14.000000	na
44.765025	0.049951	46.000000	nontarget	15.000000	na
44.814976	0.050017	46.000000	nontarget	16.000000	na
44.864993	0.049978	47.000000	nontarget	1.000000	na
44.914971	0.050187	47.000000	nontarget	2.000000	44.926128
44.965158	0.049864	47.000000	nontarget	3.000000	na
45.015022	0.050022	47.000000	nontarget	4.000000	na
45.065043	0.049554	47.000000	nontarget	5.000000	na
45.114598	0.050370	47.000000	nontarget	6.000000	na
45.164967	0.049933	47.000000	nontarget	7.000000	na
45.214900	0.050077	47.000000	nontarget	8.000000	na
45.264977	0.049994	47.000000	nontarget	9.000000	na
45.314970	0.050068	47.000000	nontarget	10.000000	na
45.365038	0.049931	47.000000	nontarget	11.000000	na
45.414969	0.050654	47.000000	nontarget	12.000000	na
45.465623	0.049341	47.000000	nontarget	13.000000	na
45.514964	0.050024	47.000000	nontarget	14.000000	na
45.564987	0.049978	47.000000	nontarget	15.000000	na
45.614966	0.049663	47.000000	nontarget	16.000000	na
45.664629	0.050355	48.000000	nontarget	1.000000	na
45.714984	0.049824	48.000000	nontarget	2.000000	na
45.764808	0.050176	48.000000	nontarget	3.000000	na
45.814984	0.050050	48.000000	nontarget	4.000000	45.821722
45.865034	0.049981	48.000000	nontarget	5.000000	na
45.915015	0.049998	48.000000	nontarget	6.000000	na
45.965013	0.050200	48.000000	nontarget	7.000000	na
46.015213	0.049501	48.000000	nontarget	8.000000	na
46.064714	0.050290	48.000000	nontarget	9.000000	na
46.115004	0.049669	48.000000	nontarget	10.000000	na
46.164673	0.050315	48.000000	nontarget	11.000000	na
46.214988	0.050376	48.000000	nontarget	12.000000	na
46.265363	0.049618	48.000000	nontarget	13.000000	na
46.314982	0.049824	48.000000	nontarget	14.000000	na
46.364806	0.050181	48.000000	nontarget	15.000000	na
46.414988	0.049976	48.000000	nontarget	16.000000	na
46.464963	0.050266	49.000000	nontarget	1.000000	na
46.515229	0.049380	49.000000	nontarget	2.000000	na
46.564609	0.050381	49.000000	nontarget	3.000000	na
46.614990	0.049986	49.000000	nontarget	4.000000	na
46.664976	0.049987	49.000000	nontarget	5.000000	na
46.714964	0.050602	49.000000	nontarget	6.000000	na
46.765566	0.049408	49.000000	nontarget	7.000000	na
46.814974	0.050062	49.000000	nontarget	8.000000	46.830263
46.865036	0.049519	49.000000	nontarget	9.000000	na
46.914555	0.049890	49.000000	nontarget	10.000000	na
46.964444	0.050570	49.000000	nontarget	11.000000	na
47.015014	0.050038	49.000000	nontarget	12.000000	na
47.065052	0.049641	49.000000	nontarget	13.000000	na
47.114693	0.049824	49.000000	nontarget	14.000000	na
47.164517	0.050528	49.000000	nontarget	15.000000	na
47.215045	0.050080	49.000000	nontarget	16.000000	na
47.265125	0.049770	50.000000	nontarget	1.000000	na
47.314895	0.050092	50.000000	nontarget	2.000000	na
47.364987	0.049869	50.000000	nontarget	3.000000	na
47.414856	0.049947	50.000000	nontarget	4.000000	na
47.464803	0.050171	50.000000	nontarget	5.000000	na
47.514974	0.049405	50.000000	nontarget	6.000000	na
47.564380	0.050604	50.000000	nontarget	7.000000	na
47.614984	0.049696	50.000000	nontarget	8.000000	na
47.664680	0.053837	50.000000	nontarget	9.000000	na
47.718516	0.046573	50.000000	nontarget	10.000000	47.724867
47.765089	0.049780	50.000000	nontarget	11.000000	na
47.814869	0.050037	50.000000	nontarget	12.000000	na
47.864906	0.049664	50.000000	nontarget	13.000000	na
47.914570	0.049816	50.000000	nontarget	14.000000	na
47.964385	0.050620	50.000000	nontarget	15.000000	na
48.015006	0.049969	50.000000	nontarget	16.000000	na
48.064975	0.049304	51.000000	nontarget	1.000000	na
48.114279	0.050157	51.000000	nontarget	2.000000	na
48.164436	0.050526	51.000000	nontarget	3.000000	na
48.214962	0.050118	51.000000	nontarget	4.000000	na
48.265080	0.049888	51.000000	nontarget	5.000000	na
48.314968	0.049664	51.000000	nontarget	6.000000	na
48.364632	0.050454	51.000000	nontarget	7.000000	na
48.415086	0.049866	51.000000	nontarget	8.000000	na
48.464951	0.050043	51.000000	nontarget	9.000000	na
48.514994	0.049986	51.000000	nontarget	10.000000	na
48.564980	0.049759	51.000000	nontarget	11.000000	na
48.614739	0.050611	51.000000	nontarget	12.000000	na
48.665350	0.049755	51.000000	nontarget	13.000000	48.692467
48.715105	0.049820	51.000000	nontarget	14.000000	na
48.764925	0.050177	51.000000	nontarget	15.000000	na
48.815102	0.049948	51.000000	nontarget	16.000000	na
48.865050	0.049581	52.000000	nontarget	1.000000	na
48.914632	0.049813	52.000000	nontarget	2.000000	na
48.964444	0.050702	52.000000	nontarget	3.000000	na
49.015147	0.049946	52.000000	nontarget	4.000000	na
49.065092	0.049889	52.000000	nontarget	5.000000	na
49.114981	0.049459	52.000000	nontarget	6.000000	na
49.164440	0.050609	52.000000	nontarget	7.000000	na
49.215049	0.049779	52.000000	nontarget	8.000000	na
49.264828	0.050223	52.000000	nontarget	9.000000	na
49.315051	0.049667	52.000000	nontarget	10.000000	na
49.364718	0.050334	52.000000	nontarget	11.000000	na
49.415052	0.049819	52.000000	nontarget	12.000000	na
49.464871	0.050328	52.000000	nontarget	13.000000	na
49.515200	0.049865	52.000000	nontarget	14.000000	na
49.565064	0.049981	52.000000	nontarget	15.000000	na
49.615045	0.049356	52.000000	nontarget	16.000000	na
49.664402	0.050216	53.000000	nontarget	1.000000	49.671150
49.714618	0.050226	53.000000	nontarget	2.000000	na
49.764844	0.050263	53.000000	nontarget	3.000000	na
49.815107	0.050089	53.000000	nontarget	4.000000	na
49.865197	0.049842	53.000000	nontarget	5.000000	na
49.915038	0.050011	53.000000	nontarget	6.000000	na
49.965049	0.049907	53.000000	nontarget	7.000000	na
50.014957	0.050156	53.000000	nontarget	8.000000	na
50.065113	0.050008	53.000000	nontarget	9.000000	na
50.115120	0.049923	53.000000	nontarget	10.000000	na
50.165044	0.049645	53.000000	nontarget	11.000000	na
50.214688	0.050074	53.000000	nontarget	12.000000	na
50.264762	0.050285	53.000000	nontarget	13.000000	na
50.315047	0.049782	53.000000	nontarget	14.000000	na
50.364829	0.050252	53.000000	nontarget	15.000000	na
50.415081	0.049908	53.000000	nontarget	16.000000	na
50.464989	0.050148	54.000000	nontarget	1.000000	na
50.515137	0.049917	54.000000	nontarget	2.000000	na
50.565055	0.049980	54.000000	nontarget	3.000000	na
50.615035	0.049808	54.000000	nontarget	4.000000	na
50.664843	0.050216	54.000000	nontarget	5.000000	na
50.715059	0.049982	54.000000	nontarget	6.000000	na
50.765040	0.049503	54.000000	nontarget	7.000000	50.784019
50.814543	0.050275	54.000000	nontarget	8.000000	na
50.864818	0.050244	54.000000	nontarget	9.000000	na
50.915063	0.049790	54.000000	nontarget	10.000000	na
50.964853	0.050264	54.000000	nontarget	11.000000	na
51.015116	0.049567	54.000000	nontarget	12.000000	na
51.064684	0.050412	54.000000	nontarget	13.000000	na
51.115096	0.049936	54.000000	nontarget	14.000000	na
51.165031	0.049566	54.000000	nontarget	15.000000	na
51.214597	0.049759	54.000000	nontarget	16.000000	na
51.264356	0.050117	55.000000	target	1.000000	na
51.314473	0.050541	55.000000	target	2.000000	na
51.365014	0.049544	55.000000	target	3.000000	na
51.414559	0.050522	55.000000	target	4.000000	na
51.465081	0.049816	55.000000	target	5.000000	na
51.514897	0.049655	55.000000	target	6.000000	na
51.564551	0.050521	55.000000	target	7.000000	na
51.615073	0.049600	55.000000	target	8.000000	na
51.664673	0.049885	55.000000	target	9.000000	na
51.714557	0.050496	55.000000	target	10.000000	na
51.765054	0.049805	55.000000	target	11.000000	na
51.814859	0.049991	55.000000	target	12.000000	na
51.864850	0.049656	55.000000	target	13.000000	na
51.914506	0.050495	55.000000	target	14.000000	na
51.965001	0.050100	55.000000	target	15.000000	na
52.015101	0.049999	55.000000	target	16.000000	na
52.065100	0.049609	56.000000	nontarget	1.000000	na
52.114709	0.049359	56.000000	nontarget	2.000000	na
52.164068	0.050830	56.000000	nontarget	3.000000	52.173302
52.214898	0.050201	56.000000	nontarget	4.000000	na
52.265100	0.049991	56.000000	nontarget	5.000000	na
52.315090	0.050020	56.000000	nontarget	6.000000	na
52.365111	0.049606	56.000000	nontarget	7.000000	na
52.414717	0.050004	56.000000	nontarget	8.000000	na
52.464721	0.050502	56.000000	nontarget	9.000000	na
52.515223	0.049795	56.000000	nontarget	10.000000	na
52.565018	0.050179	56.000000	nontarget	11.000000	na
52.615197	0.049873	56.000000	nontarget	12.000000	na
52.665070	0.049756	56.000000	nontarget	13.000000	na
52.714826	0.050228	56.000000	nontarget	14.000000	na
52.765053	0.049239	56.000000	nontarget	15.000000	na
52.814292	0.050740	56.000000	nontarget	16.000000	na
52.865033	0.050006	57.000000	nontarget	1.000000	na
52.915038	0.050012	57.000000	nontarget	2.000000	na
52.965050	0.050048	57.000000	nontarget	3.000000	na
53.015098	0.049422	57.000000	nontarget	4.000000	na
53.064520	0.050788	57.000000	nontarget	5.000000	na
53.115307	0.049788	57.000000	nontarget	6.000000	53.121936
53.165096	0.050006	57.000000	nontarget	7.000000	na
53.215101	0.049908	57.000000	nontarget	8.000000	na
53.265009	0.050195	57.000000	nontarget	9.000000	na
53.315205	0.049862	57.000000	nontarget	10.000000	na
53.365067	0.049989	57.000000	nontarget	11.000000	na
53.415056	0.050017	57.000000	nontarget	12.000000	na
53.465073	0.050002	57.000000	nontarget	13.000000	na
53.515075	0.049968	57.000000	nontarget	14.000000	na
53.565043	0.050012	57.000000	nontarget	15.000000	na
53.615055	0.049985	57.000000	nontarget	16.000000	na
53.665040	0.050006	58.000000	nontarget	1.000000	na
53.715047	0.049756	58.000000	nontarget	2.000000	na
53.764803	0.050253	58.000000	nontarget	3.000000	na
53.815056	0.049230	58.000000	nontarget	4.000000	na
53.864286	0.050676	58.000000	nontarget	5.000000	na
53.914962	0.049523	58.000000	nontarget	6.000000	na
53.964485	0.050648	58.000000	nontarget	7.000000	na
54.015133	0.049330	58.000000	nontarget	8.000000	54.026433
54.064463	0.050203	58.000000	nontarget	9.000000	na
54.114666	0.050402	58.000000	nontarget	10.000000	na
54.165067	0.049983	58.000000	nontarget	11.000000	na
54.215050	0.050007	58.000000	nontarget	12.000000	na
54.265058	0.049995	58.000000	nontarget	13.000000	na
54.315053	0.049991	58.000000	nontarget	14.000000	na
54.365043	0.049804	58.000000	nontarget	15.000000	na
54.414847	0.050203	58.000000	nontarget	16.000000	na
54.465050	0.049977	59.000000	nontarget	1.000000	na
54.515027	0.049356	59.000000	nontarget	2.000000	na
54.564383	0.050646	59.000000	nontarget	3.000000	na
54.615029	0.050044	59.000000	nontarget	4.000000	na
54.665072	0.049012	59.000000	nontarget	5.000000	na
54.714084	0.050567	59.000000	nontarget	6.000000	na
54.764651	0.050392	59.000000	nontarget	7.000000	na
54.815043	0.049967	59.000000	nontarget	8.000000	na
54.865010	0.049932	59.000000	nontarget	9.000000	na
54.914942	0.050273	59.000000	nontarget	10.000000	54.942696
54.965215	0.049895	59.000000	nontarget	11.000000	na
55.015111	0.049417	59.000000	nontarget	12.000000	na
55.064528	0.050412	59.000000	nontarget	13.000000	na
55.114940	0.050105	59.000000	nontarget	14.000000	na
55.165045	0.050003	59.000000	nontarget	15.000000	na
55.215048	0.049860	59.000000	nontarget	16.000000	na
55.264907	0.050060	60.000000	nontarget	1.000000	na
55.314967	0.049428	60.000000	nontarget	2.000000	na
55.364395	0.050472	60.000000	nontarget	3.000000	na
55.414867	0.050158	60.000000	nontarget	4.000000	na
55.465026	0.049777	60.000000	nontarget	5.000000	na
55.514803	0.049502	60.000000	nontarget	6.000000	na
55.564305	0.050744	60.000000	nontarget	7.000000	na
55.615049	0.049880	60.000000	nontarget	8.000000	na
55.664930	0.050129	60.000000	nontarget	9.000000	na
55.715059	0.049487	60.000000	nontarget	10.000000	na
55.764546	0.050512	60.000000	nontarget	11.000000	na
55.815057	0.049308	60.000000	nontarget	12.000000	55.843004
55.864365	0.050213	60.000000	nontarget	13.000000	na
55.914578	0.050424	60.000000	nontarget	14.000000	na
55.965002	0.049700	60.000000	nontarget	15.000000	na
56.014703	0.050374	60.000000	nontarget	16.000000	na
56.065076	0.049981	61.000000	nontarget	1.000000	na
56.115058	0.049938	61.000000	nontarget	2.000000	na
56.164995	0.049434	61.000000	nontarget	3.000000	na
56.214429	0.050393	61.000000	nontarget	4.000000	na
56.264822	0.050218	61.000000	nontarget	5.000000	na
56.315039	0.049970	61.000000	nontarget	6.000000	na
56.365010	0.049432	61.000000	nontarget	7.000000	na
56.414441	0.050016	61.000000	nontarget	8.000000	na
56.464457	0.049842	61.000000	nontarget	9.000000	na
56.514299	0.050108	61.000000	nontarget	10.000000	na
56.564407	0.049959	61.000000	nontarget	11.000000	na
56.614366	0.050677	61.000000	nontarget	12.000000	na
56.665044	0.049998	61.000000	nontarget	13.000000	na
56.715041	0.049398	61.000000	nontarget	14.000000	na
56.764440	0.050555	61.000000	nontarget	15.000000	56.775807
56.814995	0.049913	61.000000	nontarget	16.000000	na
56.864908	0.050196	62.000000	nontarget	1.000000	56.871506
56.915103	0.049133	62.000000	nontarget	2.000000	na
56.964237	0.050913	62.000000	nontarget	3.000000	na
57.015150	0.049182	62.000000	nontarget	4.000000	na
57.064331	0.050707	62.000000	nontarget	5.000000	na
57.115039	0.050007	62.000000	nontarget	6.000000	na
57.165046	0.050311	62.000000	nontarget	7.000000	na
57.215357	0.050006	62.000000	nontarget	8.000000	na
57.265363	0.049698	62.000000	nontarget	9.000000	na
57.315061	0.049861	62.000000	nontarget	10.000000	na
57.364922	0.050087	62.000000	nontarget	11.000000	na
57.415009	0.049918	62.000000	nontarget	12.000000	na
57.464927	0.049538	62.000000	nontarget	13.000000	na
57.514465	0.050560	62.000000	nontarget	14.000000	na
57.565025	0.049864	62.000000	nontarget	15.000000	na
57.614889	0.049759	62.000000	nontarget	16.000000	na
57.664648	0.050486	63.000000	nontarget	1.000000	57.671406
57.715134	0.049352	63.000000	nontarget	2.000000	na
57.764486	0.050540	63.000000	nontarget	3.000000	na
57.815026	0.049976	63.000000	nontarget	4.000000	na
57.865002	0.049482	63.000000	nontarget	5.000000	na
57.914485	0.049915	63.000000	nontarget	6.000000	na
57.964400	0.050712	63.000000	nontarget	7.000000	na
58.015112	0.050016	63.000000	nontarget	8.000000	na
58.065127	0.049900	63.000000	nontarget	9.000000	na
58.115027	0.050019	63.000000	nontarget	10.000000	na
58.165046	0.049865	63.000000	nontarget	11.000000	na
58.214911	0.050117	63.000000	nontarget	12.000000	na
58.265028	0.050333	63.000000	nontarget	13.000000	na
58.315361	0.049698	63.000000	nontarget	14.000000	na
58.365059	0.049941	63.000000	nontarget	15.000000	na
58.415000	0.050060	63.000000	nontarget	16.000000	na
58.465060	0.049887	64.000000	nontarget	1.000000	na
58.514946	0.050117	64.000000	nontarget	2.000000	na
58.565064	0.049942	64.000000	nontarget	3.000000	na
58.615005	0.049969	64.000000	nontarget	4.000000	58.621841
58.664974	0.049853	64.000000	nontarget	5.000000	na
58.714827	0.050180	64.000000	nontarget	6.000000	na
58.765008	0.049907	64.000000	nontarget	7.000000	na
58.814914	0.049955	64.000000	nontarget	8.000000	na
58.864869	0.050198	64.000000	nontarget	9.000000	na
58.915068	0.049347	64.000000	nontarget	10.000000	na
58.964414	0.050735	64.000000	nontarget	11.000000	na
59.015149	0.049909	64.000000	nontarget	12.000000	na
59.065058	0.049333	64.000000	nontarget	13.000000	na
59.114391	0.050595	64.000000	nontarget	14.000000	na
59.164986	0.049999	64.000000	nontarget	15.000000	na
59.214985	0.049789	64.000000	nontarget	16.000000	na
59.264774	0.050391	65.000000	nontarget	1.000000	na
59.315165	0.049917	65.000000	nontarget	2.000000	na
59.365081	0.049239	65.000000	nontarget	3.000000	na
59.414320	0.050743	65.000000	nontarget	4.000000	59.421733
59.465063	0.049984	65.000000	nontarget	5.000000	na
59.515047	0.050005	65.000000	nontarget	6.000000	na
59.565052	0.050017	65.000000	nontarget	7.000000	na
59.615070	0.049911	65.000000	nontarget	8.000000	na
59.664980	0.050073	65.000000	nontarget	9.000000	na
59.715053	0.050013	65.000000	nontarget	10.000000	na
59.765066	0.049354	65.000000	nontarget	11.000000	na
59.814420	0.050903	65.000000	nontarget	12.000000	na
59.865323	0.049655	65.000000	nontarget	13.000000	na
59.914978	0.049402	65.000000	nontarget	14.000000	na
59.964380	0.050724	65.000000	nontarget	15.000000	na
60.015104	0.049245	65.000000	nontarget	16.000000	na
60.064349	0.050627	66.000000	nontarget	1.000000	na
60.114976	0.049521	66.000000	nontarget	2.000000	na
60.164497	0.050584	66.000000	nontarget	3.000000	na
60.215081	0.049941	66.000000	nontarget	4.000000	na
60.265022	0.049969	66.000000	nontarget	5.000000	na
60.314990	0.049528	66.000000	nontarget	6.000000	60.338448
60.364519	0.050138	66.000000	nontarget	7.000000	na
60.414657	0.049942	66.000000	nontarget	8.000000	na
60.464598	0.050481	66.000000	nontarget	9.000000	na
60.515080	0.049894	66.000000	nontarget	10.000000	na
60.564974	0.049415	66.000000	nontarget	11.000000	na
60.614389	0.050596	66.000000	nontarget	12.000000	na
60.664985	0.049829	66.000000	nontarget	13.000000	na
60.714814	0.050513	66.000000	nontarget	14.000000	na
60.765328	0.049128	66.000000	nontarget	15.000000	na
60.814456	0.050541	66.000000	nontarget	16.000000	na
60.864997	0.049836	67.000000	target	1.000000	na
60.914832	0.049108	67.000000	target	2.000000	na
60.963940	0.051171	67.000000	target	3.000000	na
61.015111	0.049544	67.000000	target	4.000000	na
61.064655	0.050041	67.000000	target	5.000000	na
61.114696	0.049704	67.000000	target	6.000000	na
61.164400	0.050636	67.000000	target	7.000000	na
61.215036	0.050064	67.000000	target	8.000000	na
61.265100	0.049861	67.000000	target	9.000000	na
61.314961	0.049991	67.000000	target	10.000000	na
61.364952	0.049737	67.000000	target	11.000000	na
61.414690	0.050257	67.000000	target	12.000000	na
61.464947	0.050001	67.000000	target	13.000000	na
61.514949	0.049870	67.000000	target	14.000000	na
61.564819	0.050254	67.000000	target	15.000000	na
61.615073	0.049599	67.000000	target	16.000000	na
61.664672	0.050280	68.000000	nontarget	1.000000	na
61.714952	0.050010	68.000000	nontarget	2.000000	na
61.764962	0.050018	68.000000	nontarget	3.000000	na
61.814980	0.049870	68.000000	nontarget	4.000000	na
61.864849	0.050146	68.000000	nontarget	5.000000	na
61.914995	0.049999	68.000000	nontarget	6.000000	61.930584
61.964994	0.050137	68.000000	nontarget	7.000000	na
62.015132	0.049867	68.000000	nontarget	8.000000	na
62.064998	0.049780	68.000000	nontarget	9.000000	na
62.114778	0.049624	68.000000	nontarget	10.000000	na
62.164402	0.050532	68.000000	nontarget	11.000000	na
62.214934	0.050036	68.000000	nontarget	12.000000	na
62.264970	0.049990	68.000000	nontarget	13.000000	na
62.314960	0.049900	68.000000	nontarget	14.000000	na
62.364860	0.050093	68.000000	nontarget	15.000000	na
62.414953	0.050065	68.000000	nontarget	16.000000	na
62.465018	0.050032	69.000000	nontarget	1.000000	na
62.515050	0.049898	69.000000	nontarget	2.000000	na
62.564948	0.049992	69.000000	nontarget	3.000000	na
62.614941	0.049323	69.000000	nontarget	4.000000	na
62.664264	0.050007	69.000000	nontarget	5.000000	na
62.714271	0.050734	69.000000	nontarget	6.000000	na
62.765004	0.049387	69.000000	nontarget	7.000000	na
62.814392	0.050560	69.000000	nontarget	8.000000	na
62.864952	0.049987	69.000000	nontarget	9.000000	na
62.914939	0.049442	69.000000	nontarget	10.000000	62.942693
62.964381	0.050723	69.000000	nontarget	11.000000	na
63.015103	0.049756	69.000000	nontarget	12.000000	na
63.064859	0.049942	69.000000	nontarget	13.000000	na
63.114802	0.049537	69.000000	nontarget	14.000000	na
63.164339	0.050707	69.000000	nontarget	15.000000	na
63.215045	0.049920	69.000000	nontarget	16.000000	na
63.264966	0.049976	70.000000	nontarget	1.000000	na
63.314941	0.049378	70.000000	nontarget	2.000000	na
63.364319	0.049878	70.000000	nontarget	3.000000	na
63.414197	0.050614	70.000000	nontarget	4.000000	na
63.464810	0.050118	70.000000	nontarget	5.000000	na
63.514928	0.050002	70.000000	nontarget	6.000000	na
63.564930	0.049996	70.000000	nontarget	7.000000	na
63.614926	0.050002	70.000000	nontarget	8.000000	na
63.664928	0.049938	70.000000	nontarget	9.000000	na
63.714866	0.050064	70.000000	nontarget	10.000000	na
63.764931	0.049892	70.000000	nontarget	11.000000	na
63.814823	0.050103	70.000000	nontarget	12.000000	na
63.864926	0.049502	70.000000	nontarget	13.000000	63.871476
63.914429	0.050284	70.000000	nontarget	14.000000	na
63.964712	0.050023	70.000000	nontarget	15.000000	na
64.014735	0.049852	70.000000	nontarget	16.000000	na
64.064587	0.049618	71.000000	nontarget	1.000000	na
64.114205	0.050610	71.000000	nontarget	2.000000	na
64.164814	0.050238	71.000000	nontarget	3.000000	na
64.215052	0.049425	71.000000	nontarget	4.000000	na
64.264477	0.049406	71.000000	nontarget	5.000000	na
64.313883	0.050564	71.000000	nontarget	6.000000	na
64.364447	0.050571	71.000000	nontarget	7.000000	na
64.415018	0.049970	71.000000	nontarget	8.000000	na
64.464989	0.049868	71.000000	nontarget	9.000000	na
64.514856	0.050240	71.000000	nontarget	10.000000	na
64.565097	0.049804	71.000000	nontarget	11.000000	na
64.614900	0.050083	71.000000	nontarget	12.000000	na
64.664983	0.049444	71.000000	nontarget	13.000000	na
64.714427	0.049976	71.000000	nontarget	14.000000	na
64.764403	0.050570	71.000000	nontarget	15.000000	na
64.814974	0.049354	71.000000	nontarget	16.000000	na
64.864327	0.050598	72.000000	target	1.000000	na
64.914925	0.049999	72.000000	target	2.000000	na
64.964925	0.049030	72.000000	target	3.000000	na
65.013955	0.051022	72.000000	target	4.000000	na
65.064977	0.050094	72.000000	target	5.000000	na
65.115071	0.049885	72.000000	target	6.000000	na
65.164956	0.049812	72.000000	target	7.000000	na
65.214768	0.049961	72.000000	target	8.000000	na
65.264729	0.050046	72.000000	target	9.000000	na
65.314775	0.050071	72.000000	target	10.000000	na
65.364846	0.050052	72.000000	target	11.000000	na
65.414899	0.049750	72.000000	target	12.000000	na
65.464648	0.049665	72.000000	target	13.000000	na
65.514313	0.049922	72.000000	target	14.000000	na
65.564235	0.049927	72.000000	target	15.000000	na
65.614162	0.050756	72.000000	target	16.000000	na
65.664918	0.049981	73.000000	nontarget	1.000000	na
65.714899	0.049346	73.000000	nontarget	2.000000	na
65.764245	0.049889	73.000000	nontarget	3.000000	na
65.814134	0.050188	73.000000	nontarget	4.000000	na
65.864322	0.050085	73.000000	nontarget	5.000000	65.870953
65.914406	0.049814	73.000000	nontarget	6.000000	na
65.964220	0.049727	73.000000	nontarget	7.000000	na
66.013947	0.051127	73.000000	nontarget	8.000000	na
66.065075	0.049858	73.000000	nontarget	9.000000	na
66.114933	0.049986	73.000000	nontarget	10.000000	na
66.164919	0.049932	73.000000	nontarget	11.000000	na
66.214850	0.050210	73.000000	nontarget	12.000000	na
66.265061	0.049269	73.000000	nontarget	13.000000	na
66.314330	0.050651	73.000000	nontarget	14.000000	na
66.364981	0.049809	73.000000	nontarget	15.000000	na
66.414790	0.050102	73.000000	nontarget	16.000000	na
66.464892	0.049687	74.000000	nontarget	1.000000	na
66.514579	0.049821	74.000000	nontarget	2.000000	na
66.564400	0.050525	74.000000	nontarget	3.000000	na
66.614925	0.049663	74.000000	nontarget	4.000000	na
66.664588	0.050390	74.000000	nontarget	5.000000	66.674254
66.714978	0.049426	74.000000	nontarget	6.000000	na
66.764404	0.050343	74.000000	nontarget	7.000000	na
66.814748	0.049533	74.000000	nontarget	8.000000	na
66.864280	0.050078	74.000000	nontarget	9.000000	na
66.914358	0.050289	74.000000	nontarget	10.000000	na
66.964647	0.049335	74.000000	nontarget	11.000000	na
67.013982	0.051092	74.000000	nontarget	12.000000	na
67.065073	0.049909	74.000000	nontarget	13.000000	na
67.114982	0.049889	74.000000	nontarget	14.000000	na
67.164871	0.049909	74.000000	nontarget	15.000000	na
67.214780	0.050103	74.000000	nontarget	16.000000	na
67.264883	0.049994	75.000000	nontarget	1.000000	na
67.314877	0.050165	75.000000	nontarget	2.000000	na
67.365043	0.049871	75.000000	nontarget	3.000000	na
67.414914	0.049971	75.000000	nontarget	4.000000	na
67.464886	0.049336	75.000000	nontarget	5.000000	na
67.514221	0.050425	75.000000	nontarget	6.000000	na
67.564646	0.050253	75.000000	nontarget	7.000000	67.574026
67.614899	0.050063	75.000000	nontarget	8.000000	na
67.664961	0.049943	75.000000	nontarget	9.000000	na
67.714904	0.050058	75.000000	nontarget	10.000000	na
67.764963	0.049980	75.000000	nontarget	11.000000	na
67.814943	0.049962	75.000000	nontarget	12.000000	na
67.864905	0.049961	75.000000	nontarget	13.000000	na
67.914866	0.049524	75.000000	nontarget	14.000000	na
67.964390	0.050518	75.000000	nontarget	15.000000	na
68.014907	0.049927	75.000000	nontarget	16.000000	na
68.064835	0.050223	76.000000	nontarget	1.000000	na
68.115058	0.049791	76.000000	nontarget	2.000000	na
68.164849	0.050038	76.000000	nontarget	3.000000	na
68.214887	0.049862	76.000000	nontarget	4.000000	na
68.264749	0.050020	76.000000	nontarget	5.000000	na
68.314769	0.049435	76.000000	nontarget	6.000000	na
68.364204	0.050098	76.000000	nontarget	7.000000	68.373417
68.414302	0.050613	76.000000	nontarget	8.000000	na
68.464914	0.049638	76.000000	nontarget	9.000000	na
68.514552	0.049769	76.000000	nontarget	10.000000	na
68.564321	0.050726	76.000000	nontarget	11.000000	na
68.615047	0.049834	76.000000	nontarget	12.000000	na
68.664881	0.049873	76.000000	nontarget	13.000000	na
68.714754	0.049419	76.000000	nontarget	14.000000	na
68.764173	0.050298	76.000000	nontarget	15.000000	na
68.814471	0.050378	76.000000	nontarget	16.000000	na
68.864850	0.050079	77.000000	nontarget	1.000000	na
68.914929	0.049703	77.000000	nontarget	2.000000	na
68.964632	0.049337	77.000000	nontarget	3.000000	na
69.013970	0.050341	77.000000	nontarget	4.000000	na
69.064310	0.050247	77.000000	nontarget	5.000000	na
69.114557	0.050445	77.000000	nontarget	6.000000	69.149003
69.165002	0.049961	77.000000	nontarget	7.000000	na
69.214963	0.049905	77.000000	nontarget	8.000000	na
69.264869	0.049749	77.000000	nontarget	9.000000	na
69.314618	0.050225	77.000000	nontarget	10.000000	na
69.364843	0.049489	77.000000	nontarget	11.000000	na
69.414332	0.049955	77.000000	nontarget	12.000000	na
69.464287	0.050573	77.000000	nontarget	13.000000	na
69.514860	0.049980	77.000000	nontarget	14.000000	na
69.564840	0.050122	77.000000	nontarget	15.000000	na
69.614962	0.049889	77.000000	nontarget	16.000000	na
69.664852	0.050002	78.000000	nontarget	1.000000	na
69.714854	0.049793	78.000000	nontarget	2.000000	na
69.764647	0.049783	78.000000	nontarget	3.000000	na
69.814429	0.049887	78.000000	nontarget	4.000000	na
69.864316	0.050524	78.000000	nontarget	5.000000	na
69.914840	0.050011	78.000000	nontarget	6.000000	na
69.964851	0.048887	78.000000	nontarget	7.000000	69.991720
70.013738	0.051173	78.000000	nontarget	8.000000	na
70.064912	0.049816	78.000000	nontarget	9.000000	na
70.114728	0.050160	78.000000	nontarget	10.000000	na
70.164888	0.049955	78.000000	nontarget	11.000000	na
70.214843	0.049995	78.000000	nontarget	12.000000	na
70.264838	0.050002	78.000000	nontarget	13.000000	na
70.314840	0.049564	78.000000	nontarget	14.000000	na
70.364404	0.050588	78.000000	nontarget	15.000000	na
70.414992	0.049330	78.000000	nontarget	16.000000	na
70.464322	0.050377	79.000000	nontarget	1.000000	na
70.514698	0.050160	79.000000	nontarget	2.000000	na
70.564859	0.049825	79.000000	nontarget	3.000000	na
70.614684	0.050160	79.000000	nontarget	4.000000	na
70.664844	0.049510	79.000000	nontarget	5.000000	na
70.714354	0.049687	79.000000	nontarget	6.000000	na
70.764040	0.052335	79.000000	nontarget	7.000000	na
70.816375	0.047654	79.000000	nontarget	8.000000	70.822819
70.864029	0.050671	79.000000	nontarget	9.000000	na
70.914701	0.049363	79.000000	nontarget	10.000000	na
70.964064	0.050133	79.000000	nontarget	11.000000	na
71.014196	0.050524	79.000000	nontarget	12.000000	na
71.064720	0.050205	79.000000	nontarget	13.000000	na
71.114925	0.049913	79.000000	nontarget	14.000000	na
71.164838	0.049982	79.000000	nontarget	15.000000	na
71.214819	0.050085	79.000000	nontarget	16.000000	na
71.264904	0.049727	80.000000	nontarget	1.000000	na
71.314631	0.050104	80.000000	nontarget	2.000000	na
71.364736	0.049649	80.000000	nontarget	3.000000	na
71.414384	0.050082	80.000000	nontarget	4.000000	na
71.464466	0.050340	80.000000	nontarget	5.000000	na
71.514806	0.050025	80.000000	nontarget	6.000000	na
71.564831	0.049971	80.000000	nontarget	7.000000	na
71.614802	0.049910	80.000000	nontarget	8.000000	na
71.664712	0.050190	80.000000	nontarget	9.000000	na
71.714901	0.049725	80.000000	nontarget	10.000000	71.734705
71.764627	0.049674	80.000000	nontarget	11.000000	na
71.814301	0.050277	80.000000	nontarget	12.000000	na
71.864578	0.050128	80.000000	nontarget	13.000000	na
71.914706	0.049654	80.000000	nontarget	14.000000	na
71.964360	0.049688	80.000000	nontarget	15.000000	na
72.014048	0.050835	80.000000	nontarget	16.000000	na
72.064882	0.049965	81.000000	nontarget	1.000000	na
72.114848	0.049980	81.000000	nontarget	2.000000	na
72.164828	0.050019	81.000000	nontarget	3.000000	na
72.214848	0.050186	81.000000	nontarget	4.000000	na
72.265033	0.050035	81.000000	nontarget	5.000000	na
72.315068	0.049274	81.000000	nontarget	6.000000	na
72.364342	0.050580	81.000000	nontarget	7.000000	na
72.414922	0.049891	81.000000	nontarget	8.000000	na
72.464813	0.049489	81.000000	nontarget	9.000000	na
72.514302	0.050474	81.000000	nontarget	10.000000	na
72.564775	0.049939	81.000000	nontarget	11.000000	na
72.614714	0.053322	81.000000	nontarget	12.000000	na
72.668036	0.046872	81.000000	nontarget	13.000000	72.673595
72.714908	0.049941	81.000000	nontarget	14.000000	na
72.764850	0.049963	81.000000	nontarget	15.000000	na
72.814813	0.050147	81.000000	nontarget	16.000000	na
72.864959	0.049932	82.000000	nontarget	1.000000	na
72.914891	0.049672	82.000000	nontarget	2.000000	na
72.964563	0.050585	82.000000	nontarget	3.000000	na
73.015148	0.049697	82.000000	nontarget	4.000000	na
73.064845	0.050128	82.000000	nontarget	5.000000	na
73.114973	0.049611	82.000000	nontarget	6.000000	na
73.164584	0.050031	82.000000	nontarget	7.000000	na
73.214614	0.050292	82.000000	nontarget	8.000000	na
73.264906	0.050168	82.000000	nontarget	9.000000	na
73.315074	0.049729	82.000000	nontarget	10.000000	na
73.364803	0.049980	82.000000	nontarget	11.000000	na
73.414783	0.050158	82.000000	nontarget	12.000000	na
73.464941	0.049916	82.000000	nontarget	13.000000	na
73.514857	0.049930	82.000000	nontarget	14.000000	na
73.564787	0.049608	82.000000	nontarget	15.000000	na
73.614395	0.050062	82.000000	nontarget	16.000000	na
73.664456	0.050647	83.000000	target	1.000000	na
73.715103	0.049687	83.000000	target	2.000000	na
73.764790	0.049890	83.000000	target	3.000000	na
73.814680	0.050274	83.000000	target	4.000000	na
73.864955	0.049758	83.000000	target	5.000000	na
73.914712	0.049855	83.000000	target	6.000000	na
73.964567	0.050568	83.000000	target	7.000000	na
74.015135	0.049706	83.000000	target	8.000000	na
74.064841	0.050003	83.000000	target	9.000000	na
74.114845	0.049180	83.000000	target	10.000000	na
74.164024	0.051058	83.000000	target	11.000000	na
74.215082	0.049229	83.000000	target	12.000000	na
74.264311	0.050353	83.000000	target	13.000000	na
74.314663	0.050051	83.000000	target	14.000000	na
74.364715	0.049852	83.000000	target	15.000000	na
74.414566	0.049969	83.000000	target	16.000000	na
74.464536	0.050246	84.000000	nontarget	1.000000	na
74.514782	0.050297	84.000000	nontarget	2.000000	na
74.565079	0.049894	84.000000	nontarget	3.000000	na
74.614973	0.049871	84.000000	nontarget	4.000000	74.630535
74.664844	0.049988	84.000000	nontarget	5.000000	na
74.714831	0.049783	84.000000	nontarget	6.000000	na
74.764614	0.050115	84.000000	nontarget	7.000000	na
74.814729	0.049966	84.000000	nontarget	8.000000	na
74.864695	0.049943	84.000000	nontarget	9.000000	na
74.914638	0.049672	84.000000	nontarget	10.000000	na
74.964311	0.050772	84.000000	nontarget	11.000000	na
75.015083	0.049311	84.000000	nontarget	12.000000	na
75.064394	0.050644	84.000000	nontarget	13.000000	na
75.115038	0.049502	84.000000	nontarget	14.000000	na
75.164541	0.049909	84.000000	nontarget	15.000000	na
75.214449	0.049754	84.000000	nontarget	16.000000	na
75.264203	0.050581	85.000000	target	1.000000	75.273941
75.314784	0.049899	85.000000	target	2.000000	na
75.364683	0.050344	85.000000	target	3.000000	na
75.415027	0.049742	85.000000	target	4.000000	na
75.464769	0.049796	85.000000	target	5.000000	na
75.514565	0.050031	85.000000	target	6.000000	na
75.564597	0.050100	85.000000	target	7.000000	na
75.614696	0.050052	85.000000	target	8.000000	na
75.664748	0.049597	85.000000	target	9.000000	na
75.714345	0.050695	85.000000	target	10.000000	na
75.765040	0.049688	85.000000	target	11.000000	na
75.814728	0.049933	85.000000	target	12.000000	na
75.864661	0.050427	85.000000	target	13.000000	na
75.915088	0.049267	85.000000	target	14.000000	na
75.964355	0.050779	85.000000	target	15.000000	na
76.015134	0.049640	85.000000	target	16.000000	na
76.064774	0.050016	86.000000	nontarget	1.000000	na
76.114790	0.049756	86.000000	nontarget	2.000000	na
76.164546	0.050553	86.000000	nontarget	3.000000	na
76.215098	0.049198	86.000000	nontarget	4.000000	na
76.264297	0.050120	86.000000	nontarget	5.000000	na
76.314416	0.050411	86.000000	nontarget	6.000000	na
76.364827	0.049267	86.000000	nontarget	7.000000	na
76.414094	0.050767	86.000000	nontarget	8.000000	76.423562
76.464861	0.050009	86.000000	nontarget	9.000000	na
76.514870	0.050109	86.000000	nontarget	10.000000	na
76.564979	0.049909	86.000000	nontarget	11.000000	na
76.614888	0.049492	86.000000	nontarget	12.000000	na
76.664379	0.050148	86.000000	nontarget	13.000000	na
76.714528	0.049790	86.000000	nontarget	14.000000	na
76.764318	0.050048	86.000000	nontarget	15.000000	na
76.814366	0.049620	86.000000	nontarget	16.000000	na
76.863986	0.050756	87.000000	nontarget	1.000000	na
76.914741	0.050070	87.000000	nontarget	2.000000	na
76.964811	0.050361	87.000000	nontarget	3.000000	na
77.015172	0.049465	87.000000	nontarget	4.000000	na
77.064637	0.050146	87.000000	nontarget	5.000000	na
77.114783	0.049630	87.000000	nontarget	6.000000	na
77.164413	0.049708	87.000000	nontarget	7.000000	na
77.214121	0.049785	87.000000	nontarget	8.000000	na
77.263905	0.050897	87.000000	nontarget	9.000000	77.273256
77.314803	0.049520	87.000000	nontarget	10.000000	na
77.364322	0.049988	87.000000	nontarget	11.000000	na
77.414310	0.050253	87.000000	nontarget	12.000000	na
77.464563	0.050091	87.000000	nontarget	13.000000	na
77.514654	0.049638	87.000000	nontarget	14.000000	na
77.564291	0.050098	87.000000	nontarget	15.000000	na
77.614390	0.049969	87.000000	nontarget	16.000000	na
77.664359	0.049914	88.000000	nontarget	1.000000	na
77.714272	0.049810	88.000000	nontarget	2.000000	na
77.764082	0.050725	88.000000	nontarget	3.000000	na
77.814807	0.049904	88.000000	nontarget	4.000000	na
77.864712	0.049943	88.000000	nontarget	5.000000	na
77.914654	0.050090	88.000000	nontarget	6.000000	na
77.964744	0.049210	88.000000	nontarget	7.000000	na
78.013954	0.050581	88.000000	nontarget	8.000000	78.045655
78.064535	0.050568	88.000000	nontarget	9.000000	na
78.115104	0.049685	88.000000	nontarget	10.000000	na
78.164788	0.049436	88.000000	nontarget	11.000000	na
78.214225	0.050511	88.000000	nontarget	12.000000	na
78.264736	0.049614	88.000000	nontarget	13.000000	na
78.314350	0.050202	88.000000	nontarget	14.000000	na
78.364552	0.050156	88.000000	nontarget	15.000000	na
78.414708	0.050201	88.000000	nontarget	16.000000	na
78.464909	0.049823	89.000000	nontarget	1.000000	na
78.514732	0.049717	89.000000	nontarget	2.000000	na
78.564449	0.050168	89.000000	nontarget	3.000000	na
78.614618	0.050104	89.000000	nontarget	4.000000	na
78.664722	0.049998	89.000000	nontarget	5.000000	na
78.714720	0.049620	89.000000	nontarget	6.000000	na
78.764340	0.050376	89.000000	nontarget	7.000000	na
78.814716	0.049010	89.000000	nontarget	8.000000	na
78.863726	0.050886	89.000000	nontarget	9.000000	na
78.914612	0.050068	89.000000	nontarget	10.000000	na
78.964679	0.049400	89.000000	nontarget	11.000000	na
79.014079	0.052186	89.000000	nontarget	12.000000	na
79.066265	0.048633	89.000000	nontarget	13.000000	79.072719
79.114898	0.049868	89.000000	nontarget	14.000000	na
79.164766	0.049955	89.000000	nontarget	15.000000	na
79.214721	0.049459	89.000000	nontarget	16.000000	na
79.264180	0.050453	90.000000	nontarget	1.000000	na
79.314633	0.049920	90.000000	nontarget	2.000000	na
79.364553	0.049985	90.000000	nontarget	3.000000	na
79.414538	0.050153	90.000000	nontarget	4.000000	na
79.464691	0.049377	90.000000	nontarget	5.000000	na
79.514068	0.050484	90.000000	nontarget	6.000000	na
79.564552	0.050157	90.000000	nontarget	7.000000	na
79.614710	0.049379	90.000000	nontarget	8.000000	na
79.664089	0.050182	90.000000	nontarget	9.000000	na
79.714271	0.050438	90.000000	nontarget	10.000000	na
79.764709	0.049869	90.000000	nontarget	11.000000	na
79.814578	0.049702	90.000000	nontarget	12.000000	na
79.864280	0.050435	90.000000	nontarget	13.000000	na
79.914715	0.049546	90.000000	nontarget	14.000000	na
79.964262	0.055054	90.000000	nontarget	15.000000	na
80.019315	0.045084	90.000000	nontarget	16.000000	80.024943
80.064400	0.050560	91.000000	nontarget	1.000000	80.071029
80.114960	0.049524	91.000000	nontarget	2.000000	na
80.164484	0.050227	91.000000	nontarget	3.000000	na
80.214710	0.050075	91.000000	nontarget	4.000000	na
80.264785	0.049571	91.000000	nontarget	5.000000	na
80.314356	0.050308	91.000000	nontarget	6.000000	na
80.364664	0.049730	91.000000	nontarget	7.000000	na
80.414394	0.049870	91.000000	nontarget	8.000000	na
80.464264	0.050474	91.000000	nontarget	9.000000	na
80.514738	0.049675	91.000000	nontarget	10.000000	na
80.564413	0.050183	91.000000	nontarget	11.000000	na
80.614596	0.050176	91.000000	nontarget	12.000000	na
80.664772	0.049931	91.000000	nontarget	13.000000	na
80.714703	0.050018	91.000000	nontarget	14.000000	na
80.764721	0.050108	91.000000	nontarget	15.000000	na
80.814829	0.049783	91.000000	nontarget	16.000000	na
80.864612	0.050231	92.000000	nontarget	1.000000	na
80.914843	0.049497	92.000000	nontarget	2.000000	na
80.964340	0.049721	92.000000	nontarget	3.000000	na
81.014061	0.050446	92.000000	nontarget	4.000000	na
81.064508	0.050210	92.000000	nontarget	5.000000	81.071841
81.114717	0.050166	92.000000	nontarget	6.000000	na
81.164883	0.049860	92.000000	nontarget	7.000000	na
81.214743	0.049867	92.000000	nontarget	8.000000	na
81.264609	0.050085	92.000000	nontarget	9.000000	na
81.314695	0.049454	92.000000	nontarget	10.000000	na
81.364148	0.050578	92.000000	nontarget	11.000000	na
81.414727	0.049837	92.000000	nontarget	12.000000	na
81.464564	0.050118	92.000000	nontarget	13.000000	na
81.514682	0.049985	92.000000	nontarget	14.000000	na
81.564667	0.050040	92.000000	nontarget	15.000000	na
81.614707	0.050195	92.000000	nontarget	16.000000	na
81.664903	0.049716	93.000000	nontarget	1.000000	na
81.714618	0.049929	93.000000	nontarget	2.000000	na
81.764547	0.049852	93.000000	nontarget	3.000000	81.792299
81.814400	0.049385	93.000000	nontarget	4.000000	na
81.863785	0.050541	93.000000	nontarget	5.000000	na
81.914326	0.050624	93.000000	nontarget	6.000000	na
81.964950	0.049061	93.000000	nontarget	7.000000	na
82.014010	0.050470	93.000000	nontarget	8.000000	na
82.064481	0.049959	93.000000	nontarget	9.000000	na
82.114440	0.050244	93.000000	nontarget	10.000000	na
82.164684	0.050003	93.000000	nontarget	11.000000	na
82.214687	0.049321	93.000000	nontarget	12.000000	na
82.264008	0.050697	93.000000	nontarget	13.000000	na
82.314704	0.049830	93.000000	nontarget	14.000000	na
82.364535	0.050310	93.000000	nontarget	15.000000	na
82.414845	0.049960	93.000000	nontarget	16.000000	na
82.464804	0.049869	94.000000	nontarget	1.000000	na
82.514674	0.049801	94.000000	nontarget	2.000000	na
82.564475	0.050013	94.000000	nontarget	3.000000	82.575837
82.614488	0.050228	94.000000	nontarget	4.000000	na
82.664716	0.049945	94.000000	nontarget	5.000000	na
82.714661	0.050069	94.000000	nontarget	6.000000	na
82.764731	0.049877	94.000000	nontarget	7.000000	na
82.814608	0.049789	94.000000	nontarget	8.000000	na
82.864397	0.050270	94.000000	nontarget	9.000000	na
82.914667	0.049995	94.000000	nontarget	10.000000	na
82.964662	0.050050	94.000000	nontarget	11.000000	na
83.014712	0.050004	94.000000	nontarget	12.000000	na
83.064716	0.049973	94.000000	nontarget	13.000000	na
83.114689	0.050077	94.000000	nontarget	14.000000	na
83.164766	0.049425	94.000000	nontarget	15.000000	na
83.214191	0.049784	94.000000	nontarget	16.000000	na
83.263975	0.050408	95.000000	nontarget	1.000000	na
83.314383	0.050212	95.000000	nontarget	2.000000	na
83.364595	0.049164	95.000000	nontarget	3.000000	83.371068
83.413759	0.050952	95.000000	nontarget	4.000000	na
83.464711	0.049781	95.000000	nontarget	5.000000	na
83.514492	0.050167	95.000000	nontarget	6.000000	na
83.564659	0.049983	95.000000	nontarget	7.000000	na
83.614642	0.050028	95.000000	nontarget	8.000000	na
83.664670	0.049335	95.000000	nontarget	9.000000	na
83.714005	0.050456	95.000000	nontarget	10.000000	na
83.764461	0.049841	95.000000	nontarget	11.000000	na
83.814302	0.050041	95.000000	nontarget	12.000000	na
83.864343	0.049841	95.000000	nontarget	13.000000	na
83.914183	0.049726	95.000000	nontarget	14.000000	na
83.963910	0.050808	95.000000	nontarget	15.000000	na
84.014717	0.049611	95.000000	nontarget	16.000000	na
84.064328	0.049709	96.000000	nontarget	1.000000	na
84.114038	0.050531	96.000000	nontarget	2.000000	84.129529
84.164569	0.050144	96.000000	nontarget	3.000000	na
84.214713	0.049259	96.000000	nontarget	4.000000	na
84.263972	0.050382	96.000000	nontarget	5.000000	na
84.314354	0.050296	96.000000	nontarget	6.000000	na
84.364650	0.050001	96.000000	nontarget	7.000000	na
84.414651	0.049710	96.000000	nontarget	8.000000	na
84.464361	0.050065	96.000000	nontarget	9.000000	na
84.514426	0.049593	96.000000	nontarget	10.000000	na
84.564019	0.050720	96.000000	nontarget	11.000000	na
84.614739	0.049380	96.000000	nontarget	12.000000	na
84.664119	0.050529	96.000000	nontarget	13.000000	na
84.714648	0.049777	96.000000	nontarget	14.000000	na
84.764426	0.050233	96.000000	nontarget	15.000000	na
84.814659	0.049974	96.000000	nontarget	16.000000	na
84.864633	0.049938	97.000000	nontarget	1.000000	na
84.914571	0.053989	97.000000	nontarget	2.000000	na
84.968560	0.045657	97.000000	nontarget	3.000000	84.974054
85.014217	0.050134	97.000000	nontarget	4.000000	na
85.064351	0.050028	97.000000	nontarget	5.000000	na
85.114379	0.050215	97.000000	nontarget	6.000000	na
85.164594	0.050057	97.000000	nontarget	7.000000	na
85.214651	0.049701	97.000000	nontarget	8.000000	na
85.264353	0.050278	97.000000	nontarget	9.000000	na
85.314631	0.050001	97.000000	nontarget	10.000000	na
85.364632	0.049925	97.000000	nontarget	11.000000	na
85.414557	0.050074	97.000000	nontarget	12.000000	na
85.464631	0.049256	97.000000	nontarget	13.000000	na
85.513887	0.050616	97.000000	nontarget	14.000000	na
85.564503	0.049828	97.000000	nontarget	15.000000	na
85.614331	0.050183	97.000000	nontarget	16.000000	na
85.664514	0.050117	98.000000	nontarget	1.000000	na
85.714631	0.050020	98.000000	nontarget	2.000000	na
85.764651	0.049319	98.000000	nontarget	3.000000	na
85.813970	0.049951	98.000000	nontarget	4.000000	na
85.863921	0.050522	98.000000	nontarget	5.000000	85.887940
85.914443	0.050067	98.000000	nontarget	6.000000	na
85.964510	0.049586	98.000000	nontarget	7.000000	na
86.014096	0.050790	98.000000	nontarget	8.000000	na
86.064886	0.049114	98.000000	nontarget	9.000000	na
86.114000	0.050364	98.000000	nontarget	10.000000	na
86.164364	0.050421	98.000000	nontarget	11.000000	na
86.214785	0.049566	98.000000	nontarget	12.000000	na
86.264352	0.050276	98.000000	nontarget	13.000000	na
86.314628	0.049987	98.000000	nontarget	14.000000	na
86.364615	0.050016	98.000000	nontarget	15.000000	na
86.414631	0.049105	98.000000	nontarget	16.000000	na
86.463736	0.050267	99.000000	nontarget	1.000000	na
86.514003	0.050750	99.000000	nontarget	2.000000	na
86.564753	0.049857	99.000000	nontarget	3.000000	na
86.614610	0.050061	99.000000	nontarget	4.000000	na
86.664671	0.049805	99.000000	nontarget	5.000000	na
86.714476	0.049952	99.000000	nontarget	6.000000	86.738155
86.764429	0.050235	99.000000	nontarget	7.000000	na
86.814663	0.049355	99.000000	nontarget	8.000000	na
86.864018	0.050273	99.000000	nontarget	9.000000	na
86.914291	0.050127	99.000000	nontarget	10.000000	na
86.964418	0.049576	99.000000	nontarget	11.000000	na
87.013994	0.050067	99.000000	nontarget	12.000000	na
87.064061	0.050578	99.000000	nontarget	13.000000	na
87.114639	0.049622	99.000000	nontarget	14.000000	na
87.164261	0.049998	99.000000	nontarget	15.000000	na
87.214260	0.050068	99.000000	nontarget	16.000000	na
87.264328	0.050270	100.000000	nontarget	1.000000	na
87.314598	0.050043	100.000000	nontarget	2.000000	na
87.364641	0.049749	100.000000	nontarget	3.000000	na
87.414390	0.049990	100.000000	nontarget	4.000000	na
87.464380	0.050217	100.000000	nontarget	5.000000	na
87.514597	0.049901	100.000000	nontarget	6.000000	na
87.564498	0.050154	100.000000	nontarget	7.000000	87.571171
87.614652	0.050043	100.000000	nontarget	8.000000	na
87.664696	0.050170	100.000000	nontarget	9.000000	na
87.714866	0.049195	100.000000	nontarget	10.000000	na
87.764061	0.049941	100.000000	nontarget	11.000000	na
87.814002	0.050601	100.000000	nontarget	12.000000	na
87.864603	0.050059	100.000000	nontarget	13.000000	na
87.914662	0.049411	100.000000	nontarget	14.000000	na
87.964073	0.050547	100.000000	nontarget	15.000000	na
88.014620	0.049775	100.000000	nontarget	16.000000	na
88.064395	0.050512	101.000000	nontarget	1.000000	na
88.114907	0.049483	101.000000	nontarget	2.000000	na
88.164390	0.050086	101.000000	nontarget	3.000000	na
88.214476	0.050186	101.000000	nontarget	4.000000	na
88.264662	0.049896	101.000000	nontarget	5.000000	na
88.314558	0.049716	101.000000	nontarget	6.000000	na
88.364274	0.050130	101.000000	nontarget	7.000000	88.372322
88.414404	0.050093	101.000000	nontarget	8.000000	na
88.464497	0.050040	101.000000	nontarget	9.000000	na
88.514537	0.050243	101.000000	nontarget	10.000000	na
88.564781	0.049392	101.000000	nontarget	11.000000	na
88.614173	0.050492	101.000000	nontarget	12.000000	na
88.664664	0.049925	101.000000	nontarget	13.000000	na
88.714590	0.049858	101.000000	nontarget	14.000000	na
88.764447	0.049875	101.000000	nontarget	15.000000	na
88.814323	0.050540	101.000000	nontarget	16.000000	na
88.864863	0.049769	102.000000	nontarget	1.000000	na
88.914632	0.049744	102.000000	nontarget	2.000000	na
88.964376	0.049723	102.000000	nontarget	3.000000	na
89.014099	0.050370	102.000000	nontarget	4.000000	na
89.064470	0.049687	102.000000	nontarget	5.000000	na
89.114156	0.050300	102.000000	nontarget	6.000000	89.120747
89.164456	0.050026	102.000000	nontarget	7.000000	na
89.214483	0.050134	102.000000	nontarget	8.000000	na
89.264616	0.049428	102.000000	nontarget	9.000000	na
89.314044	0.050297	102.000000	nontarget	10.000000	na
89.364341	0.050424	102.000000	nontarget	11.000000	na
89.414765	0.049077	102.000000	nontarget	12.000000	na
89.463842	0.051088	102.000000	nontarget	13.000000	na
89.514930	0.049644	102.000000	nontarget	14.000000	na
89.564575	0.049920	102.000000	nontarget	15.000000	na
89.614494	0.049930	102.000000	nontarget	16.000000	na
89.664424	0.050142	103.000000	nontarget	1.000000	na
89.714567	0.049477	103.000000	nontarget	2.000000	na
89.764043	0.050032	103.000000	nontarget	3.000000	na
89.814075	0.050764	103.000000	nontarget	4.000000	na
89.864839	0.049381	103.000000	nontarget	5.000000	89.896799
89.914220	0.050197	103.000000	nontarget	6.000000	na
89.964417	0.050411	103.000000	nontarget	7.000000	na
90.014828	0.049553	103.000000	nontarget	8.000000	na
90.064381	0.050465	103.000000	nontarget	9.000000	na
90.114845	0.049704	103.000000	nontarget	10.000000	na
90.164550	0.049992	103.000000	nontarget	11.000000	na
90.214542	0.049533	103.000000	nontarget	12.000000	na
90.264074	0.050547	103.000000	nontarget	13.000000	na
90.314622	0.049840	103.000000	nontarget	14.000000	na
90.364461	0.050001	103.000000	nontarget	15.000000	na
90.414463	0.050085	103.000000	nontarget	16.000000	na
90.464548	0.050178	104.000000	nontarget	1.000000	na
90.514726	0.050136	104.000000	nontarget	2.000000	na
90.564862	0.049843	104.000000	nontarget	3.000000	na
90.614706	0.049505	104.000000	nontarget	4.000000	90.645382
90.664210	0.050412	104.000000	nontarget	5.000000	na
90.714622	0.049962	104.000000	nontarget	6.000000	na
90.764584	0.049855	104.000000	nontarget	7.000000	na
90.814439	0.050178	104.000000	nontarget	8.000000	na
90.864617	0.050053	104.000000	nontarget	9.000000	na
90.914670	0.049699	104.000000	nontarget	10.000000	na
90.964369	0.050247	104.000000	nontarget	11.000000	na
91.014616	0.049582	104.000000	nontarget	12.000000	na
91.064198	0.050129	104.000000	nontarget	13.000000	na
91.114327	0.049618	104.000000	nontarget	14.000000	na
91.163945	0.050583	104.000000	nontarget	15.000000	na
91.214527	0.049787	104.000000	nontarget	16.000000	na
91.264314	0.049721	105.000000	nontarget	1.000000	na
91.314035	0.050416	105.000000	nontarget	2.000000	na
91.364451	0.049952	105.000000	nontarget	3.000000	na
91.414403	0.049636	105.000000	nontarget	4.000000	91.423910
91.464040	0.050442	105.000000	nontarget	5.000000	na
91.514482	0.049973	105.000000	nontarget	6.000000	na
91.564455	0.049841	105.000000	nontarget	7.000000	na
91.614296	0.049853	105.000000	nontarget	8.000000	na
91.664149	0.050370	105.000000	nontarget	9.000000	na
91.714519	0.049706	105.000000	nontarget	10.000000	na
91.764225	0.049970	105.000000	nontarget	11.000000	na
91.814195	0.050679	105.000000	nontarget	12.000000	na
91.864874	0.049060	105.000000	nontarget	13.000000	na
91.913935	0.050627	105.000000	nontarget	14.000000	na
91.964561	0.050033	105.000000	nontarget	15.000000	na
92.014594	0.050148	105.000000	nontarget	16.000000	na
92.064743	0.049783	106.000000	nontarget	1.000000	na
92.114526	0.049934	106.000000	nontarget	2.000000	92.138415
92.164460	0.050437	106.000000	nontarget	3.000000	na
92.214897	0.049816	106.000000	nontarget	4.000000	na
92.264713	0.049113	106.000000	nontarget	5.000000	na
92.313825	0.050641	106.000000	nontarget	6.000000	na
92.364466	0.050112	106.000000	nontarget	7.000000	na
92.414578	0.049792	106.000000	nontarget	8.000000	na
92.464370	0.050041	106.000000	nontarget	9.000000	na
92.514411	0.050002	106.000000	nontarget	10.000000	na
92.564413	0.050205	106.000000	nontarget	11.000000	na
92.614618	0.050148	106.000000	nontarget	12.000000	na
92.664766	0.049116	106.000000	nontarget	13.000000	na
92.713882	0.050649	106.000000	nontarget	14.000000	na
92.764532	0.049992	106.000000	nontarget	15.000000	na
92.814524	0.049462	106.000000	nontarget	16.000000	na
92.863986	0.049994	107.000000	nontarget	1.000000	na
92.913980	0.050551	107.000000	nontarget	2.000000	na
92.964530	0.049539	107.000000	nontarget	3.000000	na
93.014070	0.050348	107.000000	nontarget	4.000000	93.042334
93.064418	0.050008	107.000000	nontarget	5.000000	na
93.114426	0.050051	107.000000	nontarget	6.000000	na
93.164477	0.050217	107.000000	nontarget	7.000000	na
93.214695	0.050081	107.000000	nontarget	8.000000	na
93.264776	0.049730	107.000000	nontarget	9.000000	na
93.314507	0.050036	107.000000	nontarget	10.000000	na
93.364543	0.049852	107.000000	nontarget	11.000000	na
93.414395	0.049513	107.000000	nontarget	12.000000	na
93.463907	0.050113	107.000000	nontarget	13.000000	na
93.514020	0.050404	107.000000	nontarget	14.000000	na
93.564424	0.050094	107.000000	nontarget	15.000000	na
93.614518	0.050151	107.000000	nontarget	16.000000	na
93.664669	0.049507	108.000000	nontarget	1.000000	na
93.714175	0.050235	108.000000	nontarget	2.000000	na
93.764411	0.049272	108.000000	nontarget	3.000000	na
93.813682	0.050584	108.000000	nontarget	4.000000	93.836860
93.864266	0.049741	108.000000	nontarget	5.000000	na
93.914007	0.050652	108.000000	nontarget	6.000000	na
93.964659	0.049402	108.000000	nontarget	7.000000	na
94.014062	0.050510	108.000000	nontarget	8.000000	na
94.064572	0.049973	108.000000	nontarget	9.000000	na
94.114545	0.049820	108.000000	nontarget	10.000000	na
94.164364	0.050024	108.000000	nontarget	11.000000	na
94.214388	0.050124	108.000000	nontarget	12.000000	na
94.264512	0.049322	108.000000	nontarget	13.000000	na
94.313834	0.050559	108.000000	nontarget	14.000000	na
94.364393	0.049972	108.000000	nontarget	15.000000	na
94.414365	0.050049	108.000000	nontarget	16.000000	na
94.464414	0.050091	109.000000	nontarget	1.000000	na
94.514505	0.049729	109.000000	nontarget	2.000000	94.526411
94.564234	0.050175	109.000000	nontarget	3.000000	na
94.614409	0.049554	109.000000	nontarget	4.000000	na
94.663963	0.050614	109.000000	nontarget	5.000000	na
94.714577	0.049825	109.000000	nontarget	6.000000	na
94.764402	0.050124	109.000000	nontarget	7.000000	na
94.814526	0.050039	109.000000	nontarget	8.000000	na
94.864565	0.049937	109.000000	nontarget	9.000000	na
94.914502	0.049966	109.000000	nontarget	10.000000	na
94.964469	0.050111	109.000000	nontarget	11.000000	na
95.014580	0.049970	109.000000	nontarget	12.000000	na
95.064550	0.050013	109.000000	nontarget	13.000000	na
95.114562	0.049984	109.000000	nontarget	14.000000	95.125791
95.164546	0.049989	109.000000	nontarget	15.000000	na
95.214535	0.049966	109.000000	nontarget	16.000000	na
95.264500	0.049776	110.000000	target	1.000000	na
95.314276	0.050172	110.000000	target	2.000000	na
95.364448	0.049535	110.000000	target	3.000000	na
95.413983	0.050515	110.000000	target	4.000000	na
95.464498	0.049966	110.000000	target	5.000000	na
95.514464	0.049905	110.000000	target	6.000000	na
95.564368	0.050337	110.000000	target	7.000000	na
95.614705	0.049793	110.000000	target	8.000000	na
95.664498	0.049921	110.000000	target	9.000000	na
95.714420	0.049992	110.000000	target	10.000000	na
95.764412	0.049953	110.000000	target	11.000000	na
95.814365	0.050137	110.000000	target	12.000000	na
95.864502	0.049502	110.000000	target	13.000000	na
95.914004	0.050698	110.000000	target	14.000000	na
95.964701	0.049373	110.000000	target	15.000000	na
96.014074	0.050248	110.000000	target	16.000000	na
96.064322	0.050209	111.000000	nontarget	1.000000	na
96.114531	0.049790	111.000000	nontarget	2.000000	na
96.164321	0.049419	111.000000	nontarget	3.000000	na
96.213741	0.050363	111.000000	nontarget	4.000000	96.222474
96.264104	0.050516	111.000000	nontarget	5.000000	na
96.314620	0.049738	111.000000	nontarget	6.000000	na
96.364358	0.049580	111.000000	nontarget	7.000000	na
96.413938	0.049903	111.000000	nontarget	8.000000	na
96.463841	0.050630	111.000000	nontarget	9.000000	na
96.514471	0.050027	111.000000	nontarget	10.000000	na
96.564498	0.050012	111.000000	nontarget	11.000000	na
96.614510	0.050000	111.000000	nontarget	12.000000	na
96.664510	0.049973	111.000000	nontarget	13.000000	na
96.714483	0.049921	111.000000	nontarget	14.000000	na
96.764403	0.050169	111.000000	nontarget	15.000000	na
96.814573	0.049949	111.000000	nontarget	16.000000	na
96.864522	0.049287	112.000000	nontarget	1.000000	na
96.913808	0.050287	112.000000	nontarget	2.000000	na
96.964095	0.050492	112.000000	nontarget	3.000000	96.995472
97.014588	0.049760	112.000000	nontarget	4.000000	na
97.064348	0.050056	112.000000	nontarget	5.000000	na
97.114404	0.049477	112.000000	nontarget	6.000000	na
97.163881	0.050520	112.000000	nontarget	7.000000	na
97.214401	0.049415	112.000000	nontarget	8.000000	na
97.263816	0.050895	112.000000	nontarget	9.000000	na
97.314711	0.049772	112.000000	nontarget	10.000000	na
97.364483	0.049841	112.000000	nontarget	11.000000	na
97.414324	0.050140	112.000000	nontarget	12.000000	na
97.464464	0.050018	112.000000	nontarget	13.000000	na
97.514482	0.049879	112.000000	nontarget	14.000000	na
97.564362	0.049565	112.000000	nontarget	15.000000	na
97.613927	0.050657	112.000000	nontarget	16.000000	na
97.664583	0.049808	113.000000	nontarget	1.000000	na
97.714392	0.049823	113.000000	nontarget	2.000000	na
97.764214	0.050408	113.000000	nontarget	3.000000	97.771026
97.814622	0.049265	113.000000	nontarget	4.000000	na
97.863887	0.050659	113.000000	nontarget	5.000000	na
97.914546	0.049209	113.000000	nontarget	6.000000	na
97.963755	0.050291	113.000000	nontarget	7.000000	na
98.014046	0.050375	113.000000	nontarget	8.000000	na
98.064421	0.049971	113.000000	nontarget	9.000000	na
98.114392	0.049978	113.000000	nontarget	10.000000	na
98.164370	0.050098	113.000000	nontarget	11.000000	na
98.214467	0.049781	113.000000	nontarget	12.000000	na
98.264249	0.050190	113.000000	nontarget	13.000000	na
98.314438	0.050129	113.000000	nontarget	14.000000	na
98.364567	0.049905	113.000000	nontarget	15.000000	na
98.414472	0.049986	113.000000	nontarget	16.000000	na
98.464457	0.049650	114.000000	nontarget	1.000000	na
98.514108	0.053397	114.000000	nontarget	2.000000	na
98.567505	0.046608	114.000000	nontarget	3.000000	98.573606
98.614113	0.050194	114.000000	nontarget	4.000000	na
98.664307	0.050183	114.000000	nontarget	5.000000	na
98.714490	0.050204	114.000000	nontarget	6.000000	na
98.764694	0.049694	114.000000	nontarget	7.000000	na
98.814388	0.050240	114.000000	nontarget	8.000000	na
98.864628	0.049859	114.000000	nontarget	9.000000	na
98.914487	0.049895	114.000000	nontarget	10.000000	na
98.964382	0.049673	114.000000	nontarget	11.000000	na
99.014056	0.049984	114.000000	nontarget	12.000000	na
99.064039	0.050338	114.000000	nontarget	13.000000	na
99.114378	0.049994	114.000000	nontarget	14.000000	na
99.164371	0.050123	114.000000	nontarget	15.000000	99.171004
99.214494	0.050013	114.000000	nontarget	16.000000	na
99.264507	0.049238	115.000000	target	1.000000	99.271127
99.313745	0.050848	115.000000	target	2.000000	na
99.364593	0.050124	115.000000	target	3.000000	na
99.414717	0.049661	115.000000	target	4.000000	na
99.464377	0.049837	115.000000	target	5.000000	na
99.514215	0.050123	115.000000	target	6.000000	na
99.564338	0.050078	115.000000	target	7.000000	na
99.614416	0.049328	115.000000	target	8.000000	na
99.663744	0.050657	115.000000	target	9.000000	na
99.714401	0.049945	115.000000	target	10.000000	na
99.764346	0.050154	115.000000	target	11.000000	na
99.814500	0.050171	115.000000	target	12.000000	na
99.864671	0.049043	115.000000	target	13.000000	na
99.913714	0.050658	115.000000	target	14.000000	na
99.964372	0.049649	115.000000	target	15.000000	na
100.014021	0.053442	115.000000	target	16.000000	na
100.067464	0.046721	116.000000	nontarget	1.000000	100.074012
100.114184	0.050324	116.000000	nontarget	2.000000	na
100.164508	0.049046	116.000000	nontarget	3.000000	na
100.213555	0.050528	116.000000	nontarget	4.000000	na
100.264082	0.049993	116.000000	nontarget	5.000000	na
100.314076	0.050097	116.000000	nontarget	6.000000	na
100.364173	0.050260	116.000000	nontarget	7.000000	na
100.414433	0.050049	116.000000	nontarget	8.000000	na
100.464482	0.050015	116.000000	nontarget	9.000000	na
100.514497	0.049908	116.000000	nontarget	10.000000	na
100.564406	0.049972	116.000000	nontarget	11.000000	na
100.614378	0.049939	116.000000	nontarget	12.000000	na
100.664317	0.050154	116.000000	nontarget	13.000000	na
100.714471	0.049920	116.000000	nontarget	14.000000	na
100.764391	0.050016	116.000000	nontarget	15.000000	na
100.814407	0.050002	116.000000	nontarget	16.000000	na
100.864409	0.049994	117.000000	nontarget	1.000000	na
100.914403	0.050012	117.000000	nontarget	2.000000	na
100.964414	0.049641	117.000000	nontarget	3.000000	na
101.014056	0.053291	117.000000	nontarget	4.000000	na
101.067347	0.046326	117.000000	nontarget	5.000000	101.073131
101.113673	0.050760	117.000000	nontarget	6.000000	na
101.164433	0.049129	117.000000	nontarget	7.000000	na
101.213562	0.050877	117.000000	nontarget	8.000000	na
101.264439	0.049990	117.000000	nontarget	9.000000	na
101.314429	0.049938	117.000000	nontarget	10.000000	na
101.364367	0.049801	117.000000	nontarget	11.000000	na
101.414168	0.050223	117.000000	nontarget	12.000000	na
101.464391	0.050018	117.000000	nontarget	13.000000	na
101.514409	0.049955	117.000000	nontarget	14.000000	na
101.564364	0.050027	117.000000	nontarget	15.000000	na
101.614391	0.049844	117.000000	nontarget	16.000000	na
101.664234	0.049597	118.000000	target	1.000000	na
101.713831	0.050315	118.000000	target	2.000000	na
101.764146	0.050237	118.000000	target	3.000000	na
101.814383	0.049977	118.000000	target	4.000000	na
101.864360	0.050053	118.000000	target	5.000000	na
101.914413	0.049984	118.000000	target	6.000000	na
101.964398	0.049637	118.000000	target	7.000000	na
102.014035	0.050489	118.000000	target	8.000000	na
102.064524	0.049842	118.000000	target	9.000000	na
102.114366	0.050070	118.000000	target	10.000000	na
102.164436	0.049906	118.000000	target	11.000000	na
102.214342	0.050137	118.000000	target	12.000000	na
102.264479	0.049447	118.000000	target	13.000000	na
102.313925	0.050649	118.000000	target	14.000000	na
102.364574	0.050936	118.000000	target	15.000000	na
102.415511	0.048954	118.000000	target	16.000000	102.421352
102.464465	0.049978	119.000000	nontarget	1.000000	102.470972
102.514443	0.049930	119.000000	nontarget	2.000000	na
102.564372	0.050208	119.000000	nontarget	3.000000	na
102.614581	0.049834	119.000000	nontarget	4.000000	na
102.664415	0.049297	119.000000	nontarget	5.000000	na
102.713711	0.050632	119.000000	nontarget	6.000000	na
102.764343	0.050058	119.000000	nontarget	7.000000	na
102.814401	0.050000	119.000000	nontarget	8.000000	na
102.864402	0.049983	119.000000	nontarget	9.000000	na
102.914385	0.050000	119.000000	nontarget	10.000000	na
102.964385	0.049660	119.000000	nontarget	11.000000	na
103.014045	0.050398	119.000000	nontarget	12.000000	na
103.064442	0.049998	119.000000	nontarget	13.000000	na
103.114440	0.049946	119.000000	nontarget	14.000000	na
103.164387	0.051079	119.000000	nontarget	15.000000	na
103.215466	0.048959	119.000000	nontarget	16.000000	103.221484
103.264424	0.049957	120.000000	nontarget	1.000000	103.271003
103.314381	0.050032	120.000000	nontarget	2.000000	na
103.364413	0.049503	120.000000	nontarget	3.000000	na
103.413917	0.050491	120.000000	nontarget	4.000000	na
103.464408	0.049973	120.000000	nontarget	5.000000	na
103.514381	0.049338	120.000000	nontarget	6.000000	na
103.563720	0.050670	120.000000	nontarget	7.000000	na
103.614389	0.050003	120.000000	nontarget	8.000000	na
103.664392	0.049998	120.000000	nontarget	9.000000	na
103.714390	0.050000	120.000000	nontarget	10.000000	na
103.764390	0.049595	120.000000	nontarget	11.000000	na
103.813985	0.050390	120.000000	nontarget	12.000000	na
103.864375	0.049702	120.000000	nontarget	13.000000	na
103.914077	0.050229	120.000000	nontarget	14.000000	na
103.964306	0.050088	120.000000	nontarget	15.000000	na
104.014395	0.050031	120.000000	nontarget	16.000000	na
104.064426	0.049906	121.000000	nontarget	1.000000	104.091469
104.114332	0.050094	121.000000	nontarget	2.000000	na
104.164426	0.050055	121.000000	nontarget	3.000000	na
104.214481	0.050163	121.000000	nontarget	4.000000	na
104.264643	0.049200	121.000000	nontarget	5.000000	na
104.313843	0.050567	121.000000	nontarget	6.000000	na
104.364410	0.049981	121.000000	nontarget	7.000000	na
104.414392	0.049987	121.000000	nontarget	8.000000	na
104.464379	0.050164	121.000000	nontarget	9.000000	na
104.514544	0.049498	121.000000	nontarget	10.000000	na
104.564042	0.050658	121.000000	nontarget	11.000000	na
