onset	duration	trial_number	trial_type	frame_number	time_of_response
8.058020	0.049955	1.000000	nontarget	1.000000	na
8.107975	0.049624	1.000000	nontarget	2.000000	na
8.157599	0.050021	1.000000	nontarget	3.000000	na
8.207620	0.050391	1.000000	nontarget	4.000000	na
8.258011	0.049463	1.000000	nontarget	5.000000	na
8.307474	0.050524	1.000000	nontarget	6.000000	na
8.357998	0.049562	1.000000	nontarget	7.000000	na
8.407560	0.050162	1.000000	nontarget	8.000000	na
8.457722	0.049989	1.000000	nontarget	9.000000	na
8.507712	0.049337	1.000000	nontarget	10.000000	8.516373
8.557049	0.050871	1.000000	nontarget	11.000000	na
8.607920	0.049337	1.000000	nontarget	12.000000	na
8.657257	0.050273	1.000000	nontarget	13.000000	na
8.707530	0.049893	1.000000	nontarget	14.000000	na
8.757423	0.050189	1.000000	nontarget	15.000000	na
8.807612	0.050200	1.000000	nontarget	16.000000	na
8.857812	0.049812	2.000000	nontarget	1.000000	na
8.907624	0.049684	2.000000	nontarget	2.000000	na
8.957308	0.049741	2.000000	nontarget	3.000000	na
9.007049	0.050256	2.000000	nontarget	4.000000	na
9.057306	0.051607	2.000000	nontarget	5.000000	na
9.108913	0.048301	2.000000	nontarget	6.000000	9.116853
9.157214	0.050401	2.000000	nontarget	7.000000	na
9.207615	0.049999	2.000000	nontarget	8.000000	na
9.257614	0.049978	2.000000	nontarget	9.000000	na
9.307592	0.049915	2.000000	nontarget	10.000000	na
9.357508	0.050144	2.000000	nontarget	11.000000	na
9.407652	0.050264	2.000000	nontarget	12.000000	na
9.457916	0.049919	2.000000	nontarget	13.000000	na
9.507834	0.050123	2.000000	nontarget	14.000000	na
9.557958	0.049652	2.000000	nontarget	15.000000	na
9.607609	0.049997	2.000000	nontarget	16.000000	na
9.657606	0.049893	3.000000	nontarget	1.000000	9.688542
9.707499	0.049979	3.000000	nontarget	2.000000	na
9.757477	0.050025	3.000000	nontarget	3.000000	na
9.807503	0.049840	3.000000	nontarget	4.000000	na
9.857343	0.050288	3.000000	nontarget	5.000000	na
9.907631	0.050012	3.000000	nontarget	6.000000	na
9.957643	0.049196	3.000000	nontarget	7.000000	na
10.006839	0.051166	3.000000	nontarget	8.000000	na
10.058005	0.049376	3.000000	nontarget	9.000000	na
10.107381	0.050346	3.000000	nontarget	10.000000	na
10.157727	0.050093	3.000000	nontarget	11.000000	na
10.207821	0.049777	3.000000	nontarget	12.000000	10.239161
10.257598	0.050308	3.000000	nontarget	13.000000	na
10.307906	0.049698	3.000000	nontarget	14.000000	na
10.357604	0.050125	3.000000	nontarget	15.000000	na
10.407729	0.049862	3.000000	nontarget	16.000000	na
10.457590	0.050189	4.000000	nontarget	1.000000	na
10.507779	0.049324	4.000000	nontarget	2.000000	na
10.557103	0.050494	4.000000	nontarget	3.000000	na
10.607597	0.049990	4.000000	nontarget	4.000000	na
10.657587	0.050235	4.000000	nontarget	5.000000	na
10.707822	0.049909	4.000000	nontarget	6.000000	na
10.757731	0.049788	4.000000	nontarget	7.000000	na
10.807519	0.050204	4.000000	nontarget	8.000000	na
10.857723	0.049662	4.000000	nontarget	9.000000	10.874718
10.907385	0.050036	4.000000	nontarget	10.000000	na
10.957421	0.051268	4.000000	nontarget	11.000000	na
11.008689	0.048489	4.000000	nontarget	12.000000	na
11.057178	0.050338	4.000000	nontarget	13.000000	na
11.107516	0.049877	4.000000	nontarget	14.000000	na
11.157393	0.050322	4.000000	nontarget	15.000000	na
11.207715	0.049876	4.000000	nontarget	16.000000	na
11.257591	0.050000	5.000000	nontarget	1.000000	na
11.307591	0.049941	5.000000	nontarget	2.000000	na
11.357532	0.050056	5.000000	nontarget	3.000000	na
11.407588	0.050359	5.000000	nontarget	4.000000	na
11.457947	0.049646	5.000000	nontarget	5.000000	na
11.507593	0.050398	5.000000	nontarget	6.000000	na
11.557992	0.052708	5.000000	nontarget	7.000000	na
11.610699	0.046865	5.000000	nontarget	8.000000	11.615619
11.657565	0.049816	5.000000	nontarget	9.000000	na
11.707381	0.050356	5.000000	nontarget	10.000000	na
11.757737	0.049852	5.000000	nontarget	11.000000	na
11.807589	0.049988	5.000000	nontarget	12.000000	na
11.857577	0.050318	5.000000	nontarget	13.000000	na
11.907894	0.050018	5.000000	nontarget	14.000000	na
11.957913	0.049021	5.000000	nontarget	15.000000	na
12.006933	0.051132	5.000000	nontarget	16.000000	na
12.058066	0.049926	6.000000	nontarget	1.000000	na
12.107991	0.049213	6.000000	nontarget	2.000000	na
12.157205	0.050428	6.000000	nontarget	3.000000	na
12.207632	0.050066	6.000000	nontarget	4.000000	na
12.257699	0.049947	6.000000	nontarget	5.000000	12.277268
12.307645	0.049595	6.000000	nontarget	6.000000	na
12.357240	0.050668	6.000000	nontarget	7.000000	na
12.407909	0.049472	6.000000	nontarget	8.000000	na
12.457381	0.050120	6.000000	nontarget	9.000000	na
12.507501	0.050324	6.000000	nontarget	10.000000	na
12.557825	0.049673	6.000000	nontarget	11.000000	na
12.607498	0.050426	6.000000	nontarget	12.000000	na
12.657924	0.049613	6.000000	nontarget	13.000000	na
12.707537	0.050069	6.000000	nontarget	14.000000	na
12.757605	0.050048	6.000000	nontarget	15.000000	na
12.807653	0.050184	6.000000	nontarget	16.000000	na
12.857837	0.049751	7.000000	nontarget	1.000000	na
12.907589	0.049958	7.000000	nontarget	2.000000	12.923140
12.957547	0.049170	7.000000	nontarget	3.000000	na
13.006717	0.050653	7.000000	nontarget	4.000000	na
13.057370	0.050312	7.000000	nontarget	5.000000	na
13.107682	0.049567	7.000000	nontarget	6.000000	na
13.157250	0.050303	7.000000	nontarget	7.000000	na
13.207553	0.050030	7.000000	nontarget	8.000000	na
13.257583	0.049592	7.000000	nontarget	9.000000	na
13.307176	0.050481	7.000000	nontarget	10.000000	na
13.357657	0.050026	7.000000	nontarget	11.000000	na
13.407683	0.049353	7.000000	nontarget	12.000000	na
13.457036	0.050497	7.000000	nontarget	13.000000	na
13.507533	0.050051	7.000000	nontarget	14.000000	na
13.557583	0.050183	7.000000	nontarget	15.000000	13.566628
13.607766	0.049934	7.000000	nontarget	16.000000	na
13.657700	0.049186	8.000000	nontarget	1.000000	13.664234
13.706886	0.050908	8.000000	nontarget	2.000000	na
13.757794	0.049114	8.000000	nontarget	3.000000	na
13.806908	0.050868	8.000000	nontarget	4.000000	na
13.857776	0.050100	8.000000	nontarget	5.000000	na
13.907876	0.049667	8.000000	nontarget	6.000000	na
13.957543	0.050026	8.000000	nontarget	7.000000	na
14.007569	0.049548	8.000000	nontarget	8.000000	na
14.057117	0.050542	8.000000	nontarget	9.000000	na
14.107659	0.049693	8.000000	nontarget	10.000000	na
14.157352	0.050187	8.000000	nontarget	11.000000	na
14.207539	0.050100	8.000000	nontarget	12.000000	na
14.257640	0.049916	8.000000	nontarget	13.000000	na
14.307555	0.049217	8.000000	nontarget	14.000000	na
14.356773	0.050753	8.000000	nontarget	15.000000	14.365211
14.407526	0.049880	8.000000	nontarget	16.000000	na
14.457405	0.050076	9.000000	nontarget	1.000000	14.464317
14.507481	0.050153	9.000000	nontarget	2.000000	na
14.557635	0.049906	9.000000	nontarget	3.000000	na
14.607541	0.050319	9.000000	nontarget	4.000000	na
14.657859	0.049825	9.000000	nontarget	5.000000	na
14.707685	0.050189	9.000000	nontarget	6.000000	na
14.757873	0.049657	9.000000	nontarget	7.000000	na
14.807530	0.050147	9.000000	nontarget	8.000000	na
14.857677	0.049394	9.000000	nontarget	9.000000	na
14.907072	0.050462	9.000000	nontarget	10.000000	na
14.957534	0.050128	9.000000	nontarget	11.000000	na
15.007661	0.049869	9.000000	nontarget	12.000000	na
15.057530	0.050162	9.000000	nontarget	13.000000	na
15.107693	0.049972	9.000000	nontarget	14.000000	na
15.157665	0.050138	9.000000	nontarget	15.000000	na
15.207803	0.049266	9.000000	nontarget	16.000000	na
15.257068	0.050560	10.000000	target	1.000000	na
15.307629	0.049834	10.000000	target	2.000000	na
15.357463	0.050186	10.000000	target	3.000000	na
15.407649	0.049881	10.000000	target	4.000000	na
15.457530	0.050268	10.000000	target	5.000000	na
15.507798	0.049848	10.000000	target	6.000000	na
15.557646	0.049743	10.000000	target	7.000000	na
15.607389	0.050165	10.000000	target	8.000000	na
15.657554	0.050094	10.000000	target	9.000000	na
15.707647	0.049475	10.000000	target	10.000000	na
15.757123	0.054851	10.000000	target	11.000000	na
15.811974	0.045588	10.000000	target	12.000000	15.816856
15.857562	0.050142	10.000000	target	13.000000	na
15.907704	0.050178	10.000000	target	14.000000	na
15.957883	0.049479	10.000000	target	15.000000	na
16.007362	0.049982	10.000000	target	16.000000	na
16.057344	0.050300	11.000000	nontarget	1.000000	na
16.107644	0.050008	11.000000	nontarget	2.000000	na
16.157652	0.049532	11.000000	nontarget	3.000000	na
16.207184	0.050496	11.000000	nontarget	4.000000	na
16.257680	0.049205	11.000000	nontarget	5.000000	na
16.306885	0.050145	11.000000	nontarget	6.000000	na
16.357030	0.050643	11.000000	nontarget	7.000000	na
16.407673	0.049829	11.000000	nontarget	8.000000	na
16.457502	0.049472	11.000000	nontarget	9.000000	na
16.506974	0.050696	11.000000	nontarget	10.000000	na
16.557670	0.049826	11.000000	nontarget	11.000000	na
16.607497	0.050171	11.000000	nontarget	12.000000	16.616963
16.657668	0.049295	11.000000	nontarget	13.000000	na
16.706963	0.050465	11.000000	nontarget	14.000000	na
16.757428	0.050018	11.000000	nontarget	15.000000	na
16.807446	0.049391	11.000000	nontarget	16.000000	na
16.856837	0.050966	12.000000	nontarget	1.000000	na
16.907803	0.049179	12.000000	nontarget	2.000000	na
16.956981	0.050410	12.000000	nontarget	3.000000	na
17.007392	0.050340	12.000000	nontarget	4.000000	na
17.057732	0.049890	12.000000	nontarget	5.000000	na
17.107622	0.050254	12.000000	nontarget	6.000000	na
17.157875	0.049213	12.000000	nontarget	7.000000	na
17.207088	0.050520	12.000000	nontarget	8.000000	na
17.257608	0.049917	12.000000	nontarget	9.000000	na
17.307525	0.050115	12.000000	nontarget	10.000000	17.331628
17.357640	0.049409	12.000000	nontarget	11.000000	na
17.407049	0.050184	12.000000	nontarget	12.000000	na
17.457234	0.050292	12.000000	nontarget	13.000000	na
17.507526	0.049975	12.000000	nontarget	14.000000	na
17.557501	0.050144	12.000000	nontarget	15.000000	na
17.607645	0.050259	12.000000	nontarget	16.000000	na
17.657905	0.049755	13.000000	nontarget	1.000000	na
17.707660	0.049518	13.000000	nontarget	2.000000	na
17.757178	0.050405	13.000000	nontarget	3.000000	na
17.807583	0.050044	13.000000	nontarget	4.000000	na
17.857627	0.049987	13.000000	nontarget	5.000000	na
17.907614	0.050036	13.000000	nontarget	6.000000	na
17.957650	0.049818	13.000000	nontarget	7.000000	na
18.007467	0.049817	13.000000	nontarget	8.000000	na
18.057284	0.050563	13.000000	nontarget	9.000000	na
18.107847	0.049122	13.000000	nontarget	10.000000	na
18.156969	0.053620	13.000000	nontarget	11.000000	na
18.210589	0.046603	13.000000	nontarget	12.000000	18.215515
18.257192	0.050456	13.000000	nontarget	13.000000	na
18.307648	0.049946	13.000000	nontarget	14.000000	na
18.357593	0.049922	13.000000	nontarget	15.000000	na
18.407515	0.050098	13.000000	nontarget	16.000000	na
18.457613	0.049991	14.000000	nontarget	1.000000	na
18.507604	0.049529	14.000000	nontarget	2.000000	na
18.557133	0.050514	14.000000	nontarget	3.000000	na
18.607647	0.050004	14.000000	nontarget	4.000000	na
18.657651	0.049970	14.000000	nontarget	5.000000	na
18.707621	0.049368	14.000000	nontarget	6.000000	na
18.756990	0.050723	14.000000	nontarget	7.000000	na
18.807712	0.049929	14.000000	nontarget	8.000000	na
18.857641	0.049618	14.000000	nontarget	9.000000	na
18.907258	0.050572	14.000000	nontarget	10.000000	na
18.957830	0.049648	14.000000	nontarget	11.000000	18.964449
19.007479	0.049996	14.000000	nontarget	12.000000	na
19.057475	0.050225	14.000000	nontarget	13.000000	na
19.107700	0.050008	14.000000	nontarget	14.000000	na
19.157708	0.049372	14.000000	nontarget	15.000000	na
19.207080	0.050733	14.000000	nontarget	16.000000	na
19.257813	0.049835	15.000000	nontarget	1.000000	na
19.307648	0.049993	15.000000	nontarget	2.000000	na
19.357640	0.049345	15.000000	nontarget	3.000000	na
19.406985	0.050404	15.000000	nontarget	4.000000	na
19.457389	0.050491	15.000000	nontarget	5.000000	na
19.507879	0.049849	15.000000	nontarget	6.000000	na
19.557729	0.049591	15.000000	nontarget	7.000000	na
19.607320	0.052442	15.000000	nontarget	8.000000	na
19.659762	0.047911	15.000000	nontarget	9.000000	19.665393
19.707673	0.050216	15.000000	nontarget	10.000000	na
19.757889	0.049687	15.000000	nontarget	11.000000	na
19.807576	0.049519	15.000000	nontarget	12.000000	na
19.857095	0.050587	15.000000	nontarget	13.000000	na
19.907682	0.049213	15.000000	nontarget	14.000000	na
19.956895	0.050145	15.000000	nontarget	15.000000	na
20.007040	0.050021	15.000000	nontarget	16.000000	na
20.057061	0.050625	16.000000	nontarget	1.000000	na
20.107686	0.049966	16.000000	nontarget	2.000000	na
20.157652	0.049968	16.000000	nontarget	3.000000	na
20.207621	0.049838	16.000000	nontarget	4.000000	na
20.257459	0.050238	16.000000	nontarget	5.000000	na
20.307697	0.049097	16.000000	nontarget	6.000000	na
20.356794	0.050902	16.000000	nontarget	7.000000	20.365681
20.407696	0.050015	16.000000	nontarget	8.000000	na
20.457711	0.049300	16.000000	nontarget	9.000000	na
20.507011	0.050038	16.000000	nontarget	10.000000	na
20.557049	0.050568	16.000000	nontarget	11.000000	na
20.607617	0.049814	16.000000	nontarget	12.000000	na
20.657431	0.050207	16.000000	nontarget	13.000000	na
20.707638	0.050239	16.000000	nontarget	14.000000	na
20.757878	0.049725	16.000000	nontarget	15.000000	na
20.807603	0.050008	16.000000	nontarget	16.000000	na
20.857611	0.050104	17.000000	nontarget	1.000000	na
20.907715	0.049632	17.000000	nontarget	2.000000	na
20.957347	0.050316	17.000000	nontarget	3.000000	na
21.007663	0.049884	17.000000	nontarget	4.000000	na
21.057547	0.050155	17.000000	nontarget	5.000000	21.069519
21.107702	0.049477	17.000000	nontarget	6.000000	na
21.157179	0.049769	17.000000	nontarget	7.000000	na
21.206948	0.050677	17.000000	nontarget	8.000000	na
21.257624	0.050051	17.000000	nontarget	9.000000	na
21.307675	0.049210	17.000000	nontarget	10.000000	na
21.356886	0.050591	17.000000	nontarget	11.000000	na
21.407476	0.050383	17.000000	nontarget	12.000000	na
21.457860	0.049906	17.000000	nontarget	13.000000	na
21.507766	0.049678	17.000000	nontarget	14.000000	na
21.557444	0.050283	17.000000	nontarget	15.000000	na
21.607727	0.049295	17.000000	nontarget	16.000000	na
21.657022	0.050792	18.000000	nontarget	1.000000	na
21.707814	0.049787	18.000000	nontarget	2.000000	na
21.757600	0.049715	18.000000	nontarget	3.000000	na
21.807316	0.049766	18.000000	nontarget	4.000000	21.822910
21.857081	0.050187	18.000000	nontarget	5.000000	na
21.907269	0.050449	18.000000	nontarget	6.000000	na
21.957717	0.049743	18.000000	nontarget	7.000000	na
22.007461	0.049768	18.000000	nontarget	8.000000	na
22.057228	0.050291	18.000000	nontarget	9.000000	na
22.107520	0.050380	18.000000	nontarget	10.000000	na
22.157900	0.049451	18.000000	nontarget	11.000000	na
22.207351	0.050546	18.000000	nontarget	12.000000	na
22.257897	0.049800	18.000000	nontarget	13.000000	na
22.307697	0.049967	18.000000	nontarget	14.000000	na
22.357664	0.050003	18.000000	nontarget	15.000000	na
22.407667	0.050032	18.000000	nontarget	16.000000	na
22.457699	0.049968	19.000000	nontarget	1.000000	na
22.507668	0.049673	19.000000	nontarget	2.000000	na
22.557341	0.050374	19.000000	nontarget	3.000000	na
22.607715	0.049410	19.000000	nontarget	4.000000	na
22.657125	0.050532	19.000000	nontarget	5.000000	na
22.707657	0.050040	19.000000	nontarget	6.000000	na
22.757696	0.050303	19.000000	nontarget	7.000000	na
22.808000	0.049338	19.000000	nontarget	8.000000	22.834931
22.857338	0.050322	19.000000	nontarget	9.000000	na
22.907660	0.050005	19.000000	nontarget	10.000000	na
22.957664	0.050101	19.000000	nontarget	11.000000	na
23.007766	0.050222	19.000000	nontarget	12.000000	na
23.057988	0.050075	19.000000	nontarget	13.000000	na
23.108062	0.049796	19.000000	nontarget	14.000000	na
23.157859	0.049489	19.000000	nontarget	15.000000	na
23.207347	0.050538	19.000000	nontarget	16.000000	na
23.257885	0.049611	20.000000	target	1.000000	na
23.307496	0.050468	20.000000	target	2.000000	na
23.357964	0.049689	20.000000	target	3.000000	na
23.407653	0.050257	20.000000	target	4.000000	na
23.457910	0.049221	20.000000	target	5.000000	na
23.507131	0.050683	20.000000	target	6.000000	na
23.557814	0.049645	20.000000	target	7.000000	na
23.607459	0.050443	20.000000	target	8.000000	na
23.657902	0.049540	20.000000	target	9.000000	na
23.707442	0.049916	20.000000	target	10.000000	na
23.757359	0.050059	20.000000	target	11.000000	na
23.807417	0.050596	20.000000	target	12.000000	na
23.858013	0.049437	20.000000	target	13.000000	23.867156
23.907450	0.049930	20.000000	target	14.000000	na
23.957381	0.049856	20.000000	target	15.000000	na
24.007237	0.050449	20.000000	target	16.000000	na
24.057686	0.050007	21.000000	nontarget	1.000000	na
24.107692	0.050021	21.000000	nontarget	2.000000	na
24.157714	0.049933	21.000000	nontarget	3.000000	na
24.207647	0.049753	21.000000	nontarget	4.000000	na
24.257400	0.050358	21.000000	nontarget	5.000000	na
24.307759	0.049806	21.000000	nontarget	6.000000	na
24.357564	0.050111	21.000000	nontarget	7.000000	na
24.407675	0.050047	21.000000	nontarget	8.000000	na
24.457722	0.050200	21.000000	nontarget	9.000000	na
24.507922	0.049732	21.000000	nontarget	10.000000	na
24.557654	0.049978	21.000000	nontarget	11.000000	na
24.607632	0.049422	21.000000	nontarget	12.000000	na
24.657053	0.050918	21.000000	nontarget	13.000000	na
24.707971	0.049664	21.000000	nontarget	14.000000	24.727805
24.757635	0.049868	21.000000	nontarget	15.000000	na
24.807503	0.050505	21.000000	nontarget	16.000000	na
24.858009	0.049550	22.000000	nontarget	1.000000	24.864620
24.907559	0.049840	22.000000	nontarget	2.000000	na
24.957399	0.050194	22.000000	nontarget	3.000000	na
25.007593	0.049974	22.000000	nontarget	4.000000	na
25.057567	0.049706	22.000000	nontarget	5.000000	na
25.107273	0.050377	22.000000	nontarget	6.000000	na
25.157650	0.049993	22.000000	nontarget	7.000000	na
25.207643	0.049600	22.000000	nontarget	8.000000	na
25.257243	0.050489	22.000000	nontarget	9.000000	na
25.307732	0.049457	22.000000	nontarget	10.000000	na
25.357189	0.050656	22.000000	nontarget	11.000000	na
25.407845	0.049845	22.000000	nontarget	12.000000	na
25.457690	0.049968	22.000000	nontarget	13.000000	na
25.507658	0.050147	22.000000	nontarget	14.000000	na
25.557805	0.049767	22.000000	nontarget	15.000000	na
25.607572	0.049953	22.000000	nontarget	16.000000	na
25.657525	0.054484	23.000000	nontarget	1.000000	na
25.712009	0.045579	23.000000	nontarget	2.000000	25.717145
25.757589	0.050032	23.000000	nontarget	3.000000	na
25.807620	0.049942	23.000000	nontarget	4.000000	na
25.857562	0.050115	23.000000	nontarget	5.000000	na
25.907677	0.050286	23.000000	nontarget	6.000000	na
25.957963	0.049807	23.000000	nontarget	7.000000	na
26.007770	0.050171	23.000000	nontarget	8.000000	na
26.057941	0.049723	23.000000	nontarget	9.000000	na
26.107664	0.049974	23.000000	nontarget	10.000000	na
26.157638	0.050001	23.000000	nontarget	11.000000	na
26.207639	0.050019	23.000000	nontarget	12.000000	na
26.257658	0.049787	23.000000	nontarget	13.000000	na
26.307445	0.050490	23.000000	nontarget	14.000000	na
26.357935	0.050033	23.000000	nontarget	15.000000	na
26.407968	0.049693	23.000000	nontarget	16.000000	na
26.457661	0.049712	24.000000	nontarget	1.000000	na
26.507373	0.050174	24.000000	nontarget	2.000000	na
26.557547	0.050111	24.000000	nontarget	3.000000	na
26.607658	0.050378	24.000000	nontarget	4.000000	26.614440
26.658036	0.049940	24.000000	nontarget	5.000000	na
26.707976	0.049715	24.000000	nontarget	6.000000	na
26.757691	0.049818	24.000000	nontarget	7.000000	na
26.807509	0.050294	24.000000	nontarget	8.000000	na
26.857804	0.049834	24.000000	nontarget	9.000000	na
26.907638	0.049588	24.000000	nontarget	10.000000	na
26.957226	0.050582	24.000000	nontarget	11.000000	na
27.007807	0.049894	24.000000	nontarget	12.000000	na
27.057701	0.050070	24.000000	nontarget	13.000000	na
27.107771	0.050043	24.000000	nontarget	14.000000	na
27.157814	0.050048	24.000000	nontarget	15.000000	na
27.207862	0.049606	24.000000	nontarget	16.000000	na
27.257468	0.050070	25.000000	nontarget	1.000000	27.263868
27.307537	0.050466	25.000000	nontarget	2.000000	na
27.358003	0.049599	25.000000	nontarget	3.000000	na
27.407602	0.049886	25.000000	nontarget	4.000000	na
27.457488	0.050313	25.000000	nontarget	5.000000	na
27.507802	0.049809	25.000000	nontarget	6.000000	na
27.557611	0.049493	25.000000	nontarget	7.000000	na
27.607103	0.049982	25.000000	nontarget	8.000000	na
27.657085	0.050776	25.000000	nontarget	9.000000	na
27.707861	0.049575	25.000000	nontarget	10.000000	na
27.757436	0.050317	25.000000	nontarget	11.000000	na
27.807753	0.049894	25.000000	nontarget	12.000000	na
27.857647	0.049588	25.000000	nontarget	13.000000	na
27.907236	0.050528	25.000000	nontarget	14.000000	na
27.957764	0.049300	25.000000	nontarget	15.000000	na
28.007065	0.050000	25.000000	nontarget	16.000000	na
28.057065	0.050622	26.000000	nontarget	1.000000	na
28.107687	0.050028	26.000000	nontarget	2.000000	28.118968
28.157715	0.049914	26.000000	nontarget	3.000000	na
28.207629	0.049654	26.000000	nontarget	4.000000	na
28.257283	0.050324	26.000000	nontarget	5.000000	na
28.307607	0.049665	26.000000	nontarget	6.000000	na
28.357272	0.050403	26.000000	nontarget	7.000000	na
28.407675	0.049611	26.000000	nontarget	8.000000	na
28.457285	0.050377	26.000000	nontarget	9.000000	na
28.507663	0.050006	26.000000	nontarget	10.000000	na
28.557669	0.049976	26.000000	nontarget	11.000000	na
28.607645	0.049425	26.000000	nontarget	12.000000	na
28.657069	0.049872	26.000000	nontarget	13.000000	na
28.706941	0.050710	26.000000	nontarget	14.000000	na
28.757651	0.050097	26.000000	nontarget	15.000000	na
28.807748	0.049556	26.000000	nontarget	16.000000	na
28.857304	0.049906	27.000000	nontarget	1.000000	na
28.907209	0.049739	27.000000	nontarget	2.000000	na
28.956948	0.050761	27.000000	nontarget	3.000000	na
29.007709	0.050009	27.000000	nontarget	4.000000	29.017204
29.057718	0.049937	27.000000	nontarget	5.000000	na
29.107655	0.049716	27.000000	nontarget	6.000000	na
29.157371	0.050225	27.000000	nontarget	7.000000	na
29.207596	0.050050	27.000000	nontarget	8.000000	na
29.257646	0.049969	27.000000	nontarget	9.000000	na
29.307615	0.049745	27.000000	nontarget	10.000000	na
29.357360	0.050478	27.000000	nontarget	11.000000	na
29.407838	0.049806	27.000000	nontarget	12.000000	na
29.457643	0.049703	27.000000	nontarget	13.000000	na
29.507346	0.050520	27.000000	nontarget	14.000000	na
29.557866	0.049772	27.000000	nontarget	15.000000	na
29.607638	0.049716	27.000000	nontarget	16.000000	na
29.657354	0.050264	28.000000	target	1.000000	na
29.707618	0.050025	28.000000	target	2.000000	na
29.757643	0.050042	28.000000	target	3.000000	na
29.807685	0.050125	28.000000	target	4.000000	na
29.857810	0.049868	28.000000	target	5.000000	na
29.907678	0.049978	28.000000	target	6.000000	na
29.957656	0.049794	28.000000	target	7.000000	na
30.007450	0.050144	28.000000	target	8.000000	na
30.057595	0.050024	28.000000	target	9.000000	na
30.107618	0.049830	28.000000	target	10.000000	na
30.157448	0.050159	28.000000	target	11.000000	na
30.207606	0.049910	28.000000	target	12.000000	na
30.257516	0.050352	28.000000	target	13.000000	na
30.307868	0.049776	28.000000	target	14.000000	na
30.357645	0.049799	28.000000	target	15.000000	na
30.407443	0.049992	28.000000	target	16.000000	30.416362
30.457436	0.049698	29.000000	nontarget	1.000000	30.464013
30.507134	0.049793	29.000000	nontarget	2.000000	na
30.556927	0.050779	29.000000	nontarget	3.000000	na
30.607706	0.050001	29.000000	nontarget	4.000000	na
30.657708	0.049942	29.000000	nontarget	5.000000	na
30.707650	0.050204	29.000000	nontarget	6.000000	na
30.757854	0.049377	29.000000	nontarget	7.000000	na
30.807231	0.050450	29.000000	nontarget	8.000000	na
30.857681	0.049509	29.000000	nontarget	9.000000	na
30.907190	0.050173	29.000000	nontarget	10.000000	na
30.957364	0.050953	29.000000	nontarget	11.000000	na
31.008317	0.049021	29.000000	nontarget	12.000000	na
31.057338	0.050447	29.000000	nontarget	13.000000	na
31.107786	0.049866	29.000000	nontarget	14.000000	na
31.157651	0.050024	29.000000	nontarget	15.000000	na
31.207675	0.049585	29.000000	nontarget	16.000000	na
31.257260	0.049581	30.000000	nontarget	1.000000	na
31.306842	0.050445	30.000000	nontarget	2.000000	31.313559
31.357286	0.050448	30.000000	nontarget	3.000000	na
31.407734	0.049947	30.000000	nontarget	4.000000	na
31.457681	0.049972	30.000000	nontarget	5.000000	na
31.507653	0.049949	30.000000	nontarget	6.000000	na
31.557601	0.050268	30.000000	nontarget	7.000000	na
31.607869	0.049643	30.000000	nontarget	8.000000	na
31.657512	0.050152	30.000000	nontarget	9.000000	na
31.707664	0.049646	30.000000	nontarget	10.000000	na
31.757310	0.050349	30.000000	nontarget	11.000000	na
31.807659	0.049996	30.000000	nontarget	12.000000	na
31.857654	0.050063	30.000000	nontarget	13.000000	na
31.907718	0.050101	30.000000	nontarget	14.000000	na
31.957819	0.049357	30.000000	nontarget	15.000000	na
32.007176	0.050244	30.000000	nontarget	16.000000	na
32.057420	0.050271	31.000000	target	1.000000	na
32.107690	0.049463	31.000000	target	2.000000	na
32.157153	0.050519	31.000000	target	3.000000	na
32.207672	0.050006	31.000000	target	4.000000	na
32.257678	0.049975	31.000000	target	5.000000	na
32.307653	0.049769	31.000000	target	6.000000	na
32.357422	0.050220	31.000000	target	7.000000	na
32.407642	0.050013	31.000000	target	8.000000	na
32.457656	0.049581	31.000000	target	9.000000	na
32.507237	0.050444	31.000000	target	10.000000	na
32.557681	0.049940	31.000000	target	11.000000	na
32.607621	0.049808	31.000000	target	12.000000	32.635901
32.657429	0.050008	31.000000	target	13.000000	na
32.707436	0.050114	31.000000	target	14.000000	na
32.757550	0.049996	31.000000	target	15.000000	na
32.807546	0.050007	31.000000	target	16.000000	na
32.857554	0.049334	32.000000	nontarget	1.000000	na
32.906887	0.050647	32.000000	nontarget	2.000000	na
32.957534	0.050233	32.000000	nontarget	3.000000	na
33.007768	0.049544	32.000000	nontarget	4.000000	na
33.057312	0.050425	32.000000	nontarget	5.000000	na
33.107737	0.049914	32.000000	nontarget	6.000000	na
33.157650	0.050009	32.000000	nontarget	7.000000	na
33.207659	0.049589	32.000000	nontarget	8.000000	na
33.257248	0.050297	32.000000	nontarget	9.000000	na
33.307545	0.050008	32.000000	nontarget	10.000000	na
33.357553	0.050100	32.000000	nontarget	11.000000	na
33.407653	0.049993	32.000000	nontarget	12.000000	na
33.457647	0.049896	32.000000	nontarget	13.000000	na
33.507543	0.050351	32.000000	nontarget	14.000000	na
33.557894	0.049684	32.000000	nontarget	15.000000	na
33.607578	0.050018	32.000000	nontarget	16.000000	na
33.657596	0.050119	33.000000	nontarget	1.000000	33.689388
33.707715	0.050019	33.000000	nontarget	2.000000	na
33.757734	0.049879	33.000000	nontarget	3.000000	na
33.807613	0.049661	33.000000	nontarget	4.000000	na
33.857274	0.050366	33.000000	nontarget	5.000000	na
33.907640	0.049985	33.000000	nontarget	6.000000	na
33.957625	0.050271	33.000000	nontarget	7.000000	na
34.007896	0.049984	33.000000	nontarget	8.000000	na
34.057881	0.049726	33.000000	nontarget	9.000000	na
34.107607	0.050044	33.000000	nontarget	10.000000	na
34.157651	0.049978	33.000000	nontarget	11.000000	na
34.207629	0.050020	33.000000	nontarget	12.000000	na
34.257649	0.049995	33.000000	nontarget	13.000000	na
34.307644	0.050006	33.000000	nontarget	14.000000	na
34.357650	0.049998	33.000000	nontarget	15.000000	na
34.407648	0.049995	33.000000	nontarget	16.000000	na
34.457643	0.049655	34.000000	nontarget	1.000000	na
34.507298	0.050383	34.000000	nontarget	2.000000	na
34.557681	0.049615	34.000000	nontarget	3.000000	34.573293
34.607295	0.050427	34.000000	nontarget	4.000000	na
34.657722	0.049963	34.000000	nontarget	5.000000	na
34.707685	0.049609	34.000000	nontarget	6.000000	na
34.757294	0.050290	34.000000	nontarget	7.000000	na
34.807584	0.049699	34.000000	nontarget	8.000000	na
34.857283	0.049796	34.000000	nontarget	9.000000	na
34.907079	0.050616	34.000000	nontarget	10.000000	na
34.957695	0.049594	34.000000	nontarget	11.000000	na
35.007290	0.049993	34.000000	nontarget	12.000000	na
35.057282	0.050140	34.000000	nontarget	13.000000	na
35.107423	0.050393	34.000000	nontarget	14.000000	na
35.157816	0.049789	34.000000	nontarget	15.000000	na
35.207605	0.049364	34.000000	nontarget	16.000000	na
35.256969	0.050845	35.000000	target	1.000000	na
35.307814	0.049850	35.000000	target	2.000000	na
35.357664	0.050023	35.000000	target	3.000000	na
35.407687	0.049782	35.000000	target	4.000000	na
35.457468	0.050220	35.000000	target	5.000000	na
35.507688	0.049584	35.000000	target	6.000000	na
35.557273	0.050008	35.000000	target	7.000000	na
35.607280	0.049694	35.000000	target	8.000000	na
35.656974	0.050866	35.000000	target	9.000000	na
35.707840	0.049928	35.000000	target	10.000000	na
35.757768	0.049937	35.000000	target	11.000000	na
35.807705	0.049569	35.000000	target	12.000000	na
35.857274	0.049736	35.000000	target	13.000000	na
35.907009	0.050364	35.000000	target	14.000000	na
35.957373	0.050392	35.000000	target	15.000000	na
36.007765	0.049740	35.000000	target	16.000000	na
36.057506	0.050194	36.000000	nontarget	1.000000	na
36.107700	0.049618	36.000000	nontarget	2.000000	36.119180
36.157318	0.050388	36.000000	nontarget	3.000000	na
36.207706	0.049868	36.000000	nontarget	4.000000	na
36.257575	0.050072	36.000000	nontarget	5.000000	na
36.307646	0.049628	36.000000	nontarget	6.000000	na
36.357274	0.050098	36.000000	nontarget	7.000000	na
36.407372	0.050190	36.000000	nontarget	8.000000	na
36.457563	0.049866	36.000000	nontarget	9.000000	na
36.507428	0.050216	36.000000	nontarget	10.000000	na
36.557644	0.050145	36.000000	nontarget	11.000000	na
36.607790	0.049912	36.000000	nontarget	12.000000	na
36.657702	0.049814	36.000000	nontarget	13.000000	na
36.707516	0.050178	36.000000	nontarget	14.000000	na
36.757693	0.049860	36.000000	nontarget	15.000000	na
36.807554	0.049479	36.000000	nontarget	16.000000	na
36.857033	0.050612	37.000000	nontarget	1.000000	na
36.907645	0.049995	37.000000	nontarget	2.000000	na
36.957640	0.050001	37.000000	nontarget	3.000000	na
37.007640	0.052865	37.000000	nontarget	4.000000	na
37.060505	0.046690	37.000000	nontarget	5.000000	37.065459
37.107194	0.050519	37.000000	nontarget	6.000000	na
37.157713	0.049433	37.000000	nontarget	7.000000	na
37.207146	0.050105	37.000000	nontarget	8.000000	na
37.257252	0.050433	37.000000	nontarget	9.000000	na
37.307685	0.049567	37.000000	nontarget	10.000000	na
37.357252	0.050452	37.000000	nontarget	11.000000	na
37.407704	0.049282	37.000000	nontarget	12.000000	na
37.456986	0.050271	37.000000	nontarget	13.000000	na
37.507258	0.050391	37.000000	nontarget	14.000000	na
37.557649	0.050004	37.000000	nontarget	15.000000	na
37.607652	0.049755	37.000000	nontarget	16.000000	na
37.657407	0.049649	38.000000	nontarget	1.000000	na
37.707056	0.050521	38.000000	nontarget	2.000000	na
37.757577	0.050107	38.000000	nontarget	3.000000	na
37.807684	0.050007	38.000000	nontarget	4.000000	37.823517
37.857691	0.050166	38.000000	nontarget	5.000000	na
37.907857	0.049696	38.000000	nontarget	6.000000	na
37.957553	0.049962	38.000000	nontarget	7.000000	na
38.007516	0.050491	38.000000	nontarget	8.000000	na
38.058006	0.049681	38.000000	nontarget	9.000000	na
38.107687	0.049700	38.000000	nontarget	10.000000	na
38.157387	0.050309	38.000000	nontarget	11.000000	na
38.207696	0.049732	38.000000	nontarget	12.000000	na
38.257428	0.050364	38.000000	nontarget	13.000000	na
38.307793	0.049773	38.000000	nontarget	14.000000	na
38.357565	0.050287	38.000000	nontarget	15.000000	na
38.407852	0.049745	38.000000	nontarget	16.000000	na
38.457597	0.050111	39.000000	nontarget	1.000000	na
38.507708	0.049689	39.000000	nontarget	2.000000	na
38.557397	0.050279	39.000000	nontarget	3.000000	na
38.607676	0.050016	39.000000	nontarget	4.000000	na
38.657693	0.050016	39.000000	nontarget	5.000000	na
38.707709	0.049884	39.000000	nontarget	6.000000	38.728256
38.757593	0.050077	39.000000	nontarget	7.000000	na
38.807669	0.049562	39.000000	nontarget	8.000000	na
38.857232	0.049968	39.000000	nontarget	9.000000	na
38.907199	0.050371	39.000000	nontarget	10.000000	na
38.957571	0.050098	39.000000	nontarget	11.000000	na
39.007669	0.049870	39.000000	nontarget	12.000000	na
39.057539	0.050157	39.000000	nontarget	13.000000	na
39.107696	0.049962	39.000000	nontarget	14.000000	na
39.157659	0.049570	39.000000	nontarget	15.000000	na
39.207228	0.050704	39.000000	nontarget	16.000000	na
39.257932	0.049625	40.000000	nontarget	1.000000	na
39.307557	0.049965	40.000000	nontarget	2.000000	na
39.357522	0.050219	40.000000	nontarget	3.000000	na
39.407741	0.049636	40.000000	nontarget	4.000000	na
39.457377	0.050287	40.000000	nontarget	5.000000	39.470799
39.507664	0.050068	40.000000	nontarget	6.000000	na
39.557732	0.049512	40.000000	nontarget	7.000000	na
39.607244	0.050632	40.000000	nontarget	8.000000	na
39.657876	0.049887	40.000000	nontarget	9.000000	na
39.707762	0.049918	40.000000	nontarget	10.000000	na
39.757680	0.049934	40.000000	nontarget	11.000000	na
39.807614	0.049565	40.000000	nontarget	12.000000	na
39.857179	0.049976	40.000000	nontarget	13.000000	na
39.907155	0.050192	40.000000	nontarget	14.000000	na
39.957347	0.050234	40.000000	nontarget	15.000000	na
40.007581	0.049555	40.000000	nontarget	16.000000	na
40.057136	0.050414	41.000000	nontarget	1.000000	na
40.107550	0.050423	41.000000	nontarget	2.000000	na
40.157973	0.049664	41.000000	nontarget	3.000000	na
40.207637	0.050983	41.000000	nontarget	4.000000	na
40.258620	0.049121	41.000000	nontarget	5.000000	40.264838
40.307741	0.050218	41.000000	nontarget	6.000000	na
40.357960	0.050070	41.000000	nontarget	7.000000	na
40.408030	0.049179	41.000000	nontarget	8.000000	na
40.457208	0.050445	41.000000	nontarget	9.000000	na
40.507653	0.050310	41.000000	nontarget	10.000000	na
40.557963	0.049630	41.000000	nontarget	11.000000	na
40.607593	0.049598	41.000000	nontarget	12.000000	na
40.657191	0.050310	41.000000	nontarget	13.000000	na
40.707501	0.050345	41.000000	nontarget	14.000000	na
40.757846	0.049893	41.000000	nontarget	15.000000	na
40.807739	0.049923	41.000000	nontarget	16.000000	na
40.857661	0.049856	42.000000	nontarget	1.000000	na
40.907518	0.050140	42.000000	nontarget	2.000000	na
40.957658	0.050099	42.000000	nontarget	3.000000	na
41.007756	0.049844	42.000000	nontarget	4.000000	41.023397
41.057600	0.050116	42.000000	nontarget	5.000000	na
41.107716	0.050107	42.000000	nontarget	6.000000	na
41.157822	0.050038	42.000000	nontarget	7.000000	na
41.207861	0.050013	42.000000	nontarget	8.000000	na
41.257874	0.049772	42.000000	nontarget	9.000000	na
41.307646	0.049551	42.000000	nontarget	10.000000	na
41.357196	0.049813	42.000000	nontarget	11.000000	na
41.407009	0.050190	42.000000	nontarget	12.000000	na
41.457199	0.050326	42.000000	nontarget	13.000000	na
41.507524	0.050390	42.000000	nontarget	14.000000	na
41.557914	0.049721	42.000000	nontarget	15.000000	na
41.607635	0.049554	42.000000	nontarget	16.000000	na
41.657189	0.050815	43.000000	nontarget	1.000000	na
41.708005	0.049990	43.000000	nontarget	2.000000	41.735443
41.757995	0.050050	43.000000	nontarget	3.000000	na
41.808045	0.049653	43.000000	nontarget	4.000000	na
41.857699	0.050339	43.000000	nontarget	5.000000	na
41.908038	0.049625	43.000000	nontarget	6.000000	na
41.957663	0.050005	43.000000	nontarget	7.000000	na
42.007668	0.049758	43.000000	nontarget	8.000000	na
42.057426	0.050270	43.000000	nontarget	9.000000	na
42.107697	0.050034	43.000000	nontarget	10.000000	na
42.157730	0.049867	43.000000	nontarget	11.000000	na
42.207598	0.050061	43.000000	nontarget	12.000000	na
42.257658	0.050000	43.000000	nontarget	13.000000	na
42.307659	0.049889	43.000000	nontarget	14.000000	na
42.357548	0.050415	43.000000	nontarget	15.000000	na
42.407963	0.049913	43.000000	nontarget	16.000000	na
42.457876	0.054499	44.000000	nontarget	1.000000	na
42.512375	0.045331	44.000000	nontarget	2.000000	42.517349
42.557706	0.050273	44.000000	nontarget	3.000000	na
42.607979	0.049201	44.000000	nontarget	4.000000	na
42.657180	0.050399	44.000000	nontarget	5.000000	na
42.707578	0.050084	44.000000	nontarget	6.000000	na
42.757662	0.050027	44.000000	nontarget	7.000000	na
42.807689	0.050020	44.000000	nontarget	8.000000	na
42.857709	0.049976	44.000000	nontarget	9.000000	na
42.907686	0.049996	44.000000	nontarget	10.000000	na
42.957682	0.049496	44.000000	nontarget	11.000000	na
43.007179	0.050636	44.000000	nontarget	12.000000	na
43.057815	0.049363	44.000000	nontarget	13.000000	na
43.107178	0.050508	44.000000	nontarget	14.000000	na
43.157686	0.049905	44.000000	nontarget	15.000000	na
43.207591	0.050262	44.000000	nontarget	16.000000	na
43.257853	0.049582	45.000000	nontarget	1.000000	43.285501
43.307435	0.050318	45.000000	nontarget	2.000000	na
43.357753	0.049988	45.000000	nontarget	3.000000	na
43.407741	0.049876	45.000000	nontarget	4.000000	na
43.457617	0.050193	45.000000	nontarget	5.000000	na
43.507810	0.049541	45.000000	nontarget	6.000000	na
43.557351	0.049817	45.000000	nontarget	7.000000	na
43.607168	0.050065	45.000000	nontarget	8.000000	na
43.657234	0.049853	45.000000	nontarget	9.000000	na
43.707087	0.050582	45.000000	nontarget	10.000000	na
43.757668	0.049564	45.000000	nontarget	11.000000	na
43.807232	0.050613	45.000000	nontarget	12.000000	na
43.857846	0.049853	45.000000	nontarget	13.000000	na
43.907698	0.049362	45.000000	nontarget	14.000000	na
43.957061	0.050401	45.000000	nontarget	15.000000	na
44.007461	0.050277	45.000000	nontarget	16.000000	na
44.057738	0.049395	46.000000	nontarget	1.000000	na
44.107133	0.050558	46.000000	nontarget	2.000000	na
44.157691	0.050072	46.000000	nontarget	3.000000	na
44.207763	0.049811	46.000000	nontarget	4.000000	44.214253
44.257574	0.050043	46.000000	nontarget	5.000000	na
44.307616	0.050076	46.000000	nontarget	6.000000	na
44.357692	0.049887	46.000000	nontarget	7.000000	na
44.407580	0.050087	46.000000	nontarget	8.000000	na
44.457667	0.050237	46.000000	nontarget	9.000000	na
44.507904	0.049398	46.000000	nontarget	10.000000	na
44.557302	0.050457	46.000000	nontarget	11.000000	na
44.607759	0.049657	46.000000	nontarget	12.000000	na
44.657416	0.050144	46.000000	nontarget	13.000000	na
44.707560	0.050265	46.000000	nontarget	14.000000	na
44.757825	0.049828	46.000000	nontarget	15.000000	na
44.807653	0.049898	46.000000	nontarget	16.000000	na
44.857552	0.049438	47.000000	nontarget	1.000000	na
44.906990	0.056816	47.000000	nontarget	2.000000	na
44.963805	0.043757	47.000000	nontarget	3.000000	44.968622
45.007562	0.049619	47.000000	nontarget	4.000000	na
45.057181	0.050515	47.000000	nontarget	5.000000	na
45.107696	0.049990	47.000000	nontarget	6.000000	na
45.157686	0.049459	47.000000	nontarget	7.000000	na
45.207145	0.050663	47.000000	nontarget	8.000000	na
45.257808	0.049866	47.000000	nontarget	9.000000	na
45.307673	0.049440	47.000000	nontarget	10.000000	na
45.357113	0.050794	47.000000	nontarget	11.000000	na
45.407907	0.049123	47.000000	nontarget	12.000000	na
45.457031	0.050671	47.000000	nontarget	13.000000	na
45.507702	0.050195	47.000000	nontarget	14.000000	na
45.557897	0.049251	47.000000	nontarget	15.000000	na
45.607148	0.050157	47.000000	nontarget	16.000000	na
45.657306	0.050047	48.000000	nontarget	1.000000	na
45.707353	0.050305	48.000000	nontarget	2.000000	na
45.757658	0.050141	48.000000	nontarget	3.000000	na
45.807798	0.049334	48.000000	nontarget	4.000000	na
45.857132	0.050542	48.000000	nontarget	5.000000	na
45.907674	0.049994	48.000000	nontarget	6.000000	na
45.957668	0.049521	48.000000	nontarget	7.000000	na
46.007189	0.050364	48.000000	nontarget	8.000000	46.015177
46.057553	0.050410	48.000000	nontarget	9.000000	na
46.107963	0.048949	48.000000	nontarget	10.000000	na
46.156913	0.051081	48.000000	nontarget	11.000000	na
46.207994	0.049686	48.000000	nontarget	12.000000	na
46.257680	0.050107	48.000000	nontarget	13.000000	na
46.307787	0.049831	48.000000	nontarget	14.000000	na
46.357617	0.049957	48.000000	nontarget	15.000000	na
46.407574	0.050101	48.000000	nontarget	16.000000	na
46.457676	0.049613	49.000000	nontarget	1.000000	na
46.507289	0.050417	49.000000	nontarget	2.000000	na
46.557707	0.049571	49.000000	nontarget	3.000000	na
46.607277	0.050428	49.000000	nontarget	4.000000	na
46.657705	0.049436	49.000000	nontarget	5.000000	na
46.707140	0.050536	49.000000	nontarget	6.000000	na
46.757676	0.049996	49.000000	nontarget	7.000000	na
46.807672	0.050216	49.000000	nontarget	8.000000	na
46.857887	0.049947	49.000000	nontarget	9.000000	na
46.907834	0.049729	49.000000	nontarget	10.000000	na
46.957563	0.049792	49.000000	nontarget	11.000000	na
47.007355	0.050134	49.000000	nontarget	12.000000	na
47.057489	0.050227	49.000000	nontarget	13.000000	na
47.107716	0.049947	49.000000	nontarget	14.000000	47.139496
47.157662	0.050074	49.000000	nontarget	15.000000	na
47.207737	0.049940	49.000000	nontarget	16.000000	na
47.257677	0.050154	50.000000	nontarget	1.000000	na
47.307831	0.049857	50.000000	nontarget	2.000000	na
47.357688	0.050102	50.000000	nontarget	3.000000	na
47.407790	0.049385	50.000000	nontarget	4.000000	na
47.457175	0.050508	50.000000	nontarget	5.000000	na
47.507683	0.050087	50.000000	nontarget	6.000000	na
47.557770	0.049868	50.000000	nontarget	7.000000	na
47.607638	0.050066	50.000000	nontarget	8.000000	na
47.657704	0.050132	50.000000	nontarget	9.000000	na
47.707836	0.049621	50.000000	nontarget	10.000000	na
47.757457	0.050238	50.000000	nontarget	11.000000	na
47.807694	0.049424	50.000000	nontarget	12.000000	na
47.857118	0.050556	50.000000	nontarget	13.000000	na
47.907674	0.049448	50.000000	nontarget	14.000000	na
47.957122	0.050652	50.000000	nontarget	15.000000	na
48.007774	0.049564	50.000000	nontarget	16.000000	48.031352
48.057338	0.049870	51.000000	nontarget	1.000000	48.063930
48.107209	0.050319	51.000000	nontarget	2.000000	na
48.157528	0.050271	51.000000	nontarget	3.000000	na
48.207799	0.049756	51.000000	nontarget	4.000000	na
48.257555	0.049886	51.000000	nontarget	5.000000	na
48.307440	0.050260	51.000000	nontarget	6.000000	na
48.357700	0.049975	51.000000	nontarget	7.000000	na
48.407675	0.049700	51.000000	nontarget	8.000000	na
48.457375	0.050476	51.000000	nontarget	9.000000	na
48.507851	0.049890	51.000000	nontarget	10.000000	na
48.557741	0.049838	51.000000	nontarget	11.000000	na
48.607579	0.050025	51.000000	nontarget	12.000000	na
48.657604	0.049400	51.000000	nontarget	13.000000	na
48.707005	0.050711	51.000000	nontarget	14.000000	na
48.757716	0.049381	51.000000	nontarget	15.000000	na
48.807097	0.050555	51.000000	nontarget	16.000000	na
48.857651	0.050024	52.000000	nontarget	1.000000	na
48.907675	0.050019	52.000000	nontarget	2.000000	na
48.957695	0.053711	52.000000	nontarget	3.000000	48.988925
49.011406	0.045561	52.000000	nontarget	4.000000	na
49.056967	0.050122	52.000000	nontarget	5.000000	na
49.107089	0.050721	52.000000	nontarget	6.000000	na
49.157810	0.050114	52.000000	nontarget	7.000000	na
49.207924	0.049555	52.000000	nontarget	8.000000	na
49.257479	0.050336	52.000000	nontarget	9.000000	na
49.307815	0.049907	52.000000	nontarget	10.000000	na
49.357722	0.049912	52.000000	nontarget	11.000000	na
49.407634	0.049713	52.000000	nontarget	12.000000	na
49.457346	0.050019	52.000000	nontarget	13.000000	na
49.507366	0.049727	52.000000	nontarget	14.000000	na
49.557092	0.050561	52.000000	nontarget	15.000000	na
49.607653	0.049461	52.000000	nontarget	16.000000	na
49.657115	0.050576	53.000000	nontarget	1.000000	na
49.707691	0.050009	53.000000	nontarget	2.000000	na
49.757700	0.049910	53.000000	nontarget	3.000000	na
49.807610	0.050183	53.000000	nontarget	4.000000	na
49.857794	0.049606	53.000000	nontarget	5.000000	na
49.907399	0.050286	53.000000	nontarget	6.000000	na
49.957685	0.049723	53.000000	nontarget	7.000000	na
50.007408	0.051937	53.000000	nontarget	8.000000	na
50.059345	0.048127	53.000000	nontarget	9.000000	50.065194
50.107472	0.050130	53.000000	nontarget	10.000000	na
50.157602	0.049764	53.000000	nontarget	11.000000	na
50.207366	0.050346	53.000000	nontarget	12.000000	na
50.257712	0.050187	53.000000	nontarget	13.000000	na
50.307899	0.049317	53.000000	nontarget	14.000000	na
50.357216	0.050283	53.000000	nontarget	15.000000	na
50.407499	0.049941	53.000000	nontarget	16.000000	na
50.457440	0.050024	54.000000	nontarget	1.000000	na
50.507464	0.050221	54.000000	nontarget	2.000000	na
50.557685	0.050153	54.000000	nontarget	3.000000	na
50.607837	0.049402	54.000000	nontarget	4.000000	na
50.657239	0.050633	54.000000	nontarget	5.000000	na
50.707872	0.049883	54.000000	nontarget	6.000000	na
50.757755	0.049967	54.000000	nontarget	7.000000	na
50.807721	0.050110	54.000000	nontarget	8.000000	na
50.857831	0.050014	54.000000	nontarget	9.000000	50.865068
50.907845	0.049921	54.000000	nontarget	10.000000	na
50.957767	0.049947	54.000000	nontarget	11.000000	na
51.007713	0.049634	54.000000	nontarget	12.000000	na
51.057347	0.050250	54.000000	nontarget	13.000000	na
51.107597	0.050081	54.000000	nontarget	14.000000	na
51.157678	0.050192	54.000000	nontarget	15.000000	na
51.207871	0.049804	54.000000	nontarget	16.000000	na
51.257675	0.049735	55.000000	nontarget	1.000000	na
51.307410	0.050276	55.000000	nontarget	2.000000	na
51.357686	0.049855	55.000000	nontarget	3.000000	na
51.407541	0.050138	55.000000	nontarget	4.000000	na
51.457679	0.049385	55.000000	nontarget	5.000000	na
51.507065	0.050401	55.000000	nontarget	6.000000	na
51.557465	0.050124	55.000000	nontarget	7.000000	na
51.607590	0.050091	55.000000	nontarget	8.000000	na
51.657681	0.049734	55.000000	nontarget	9.000000	na
51.707415	0.050194	55.000000	nontarget	10.000000	na
51.757609	0.055858	55.000000	nontarget	11.000000	na
51.813467	0.043215	55.000000	nontarget	12.000000	51.818077
51.856682	0.051053	55.000000	nontarget	13.000000	na
51.907735	0.049632	55.000000	nontarget	14.000000	na
51.957367	0.050314	55.000000	nontarget	15.000000	na
52.007681	0.050094	55.000000	nontarget	16.000000	na
52.057775	0.049942	56.000000	nontarget	1.000000	na
52.107717	0.049955	56.000000	nontarget	2.000000	na
52.157672	0.050003	56.000000	nontarget	3.000000	na
52.207675	0.050032	56.000000	nontarget	4.000000	na
52.257707	0.049975	56.000000	nontarget	5.000000	na
52.307682	0.049844	56.000000	nontarget	6.000000	na
52.357526	0.049723	56.000000	nontarget	7.000000	na
52.407248	0.050433	56.000000	nontarget	8.000000	na
52.457682	0.050029	56.000000	nontarget	9.000000	na
52.507711	0.049491	56.000000	nontarget	10.000000	na
52.557201	0.050505	56.000000	nontarget	11.000000	na
52.607706	0.049343	56.000000	nontarget	12.000000	na
52.657049	0.049990	56.000000	nontarget	13.000000	na
52.707039	0.050679	56.000000	nontarget	14.000000	na
52.757717	0.049875	56.000000	nontarget	15.000000	na
52.807592	0.049752	56.000000	nontarget	16.000000	na
52.857344	0.050722	57.000000	nontarget	1.000000	52.863995
52.908066	0.049873	57.000000	nontarget	2.000000	na
52.957939	0.049460	57.000000	nontarget	3.000000	na
53.007398	0.050063	57.000000	nontarget	4.000000	na
53.057461	0.050262	57.000000	nontarget	5.000000	na
53.107723	0.049581	57.000000	nontarget	6.000000	na
53.157303	0.050541	57.000000	nontarget	7.000000	na
53.207844	0.049637	57.000000	nontarget	8.000000	na
53.257481	0.050420	57.000000	nontarget	9.000000	na
53.307902	0.049300	57.000000	nontarget	10.000000	na
53.357202	0.050703	57.000000	nontarget	11.000000	na
53.407904	0.049776	57.000000	nontarget	12.000000	na
53.457681	0.050190	57.000000	nontarget	13.000000	na
53.507871	0.049403	57.000000	nontarget	14.000000	na
53.557274	0.050392	57.000000	nontarget	15.000000	na
53.607666	0.050379	57.000000	nontarget	16.000000	na
53.658045	0.049632	58.000000	nontarget	1.000000	na
53.707677	0.050009	58.000000	nontarget	2.000000	na
53.757687	0.049571	58.000000	nontarget	3.000000	na
53.807257	0.050684	58.000000	nontarget	4.000000	53.830514
53.857941	0.049319	58.000000	nontarget	5.000000	na
53.907260	0.050204	58.000000	nontarget	6.000000	na
53.957464	0.050076	58.000000	nontarget	7.000000	na
54.007540	0.050132	58.000000	nontarget	8.000000	na
54.057672	0.050517	58.000000	nontarget	9.000000	na
54.108189	0.049569	58.000000	nontarget	10.000000	na
54.157759	0.049853	58.000000	nontarget	11.000000	na
54.207611	0.049584	58.000000	nontarget	12.000000	na
54.257196	0.050351	58.000000	nontarget	13.000000	na
54.307547	0.050463	58.000000	nontarget	14.000000	na
54.358010	0.049680	58.000000	nontarget	15.000000	na
54.407690	0.050016	58.000000	nontarget	16.000000	na
54.457706	0.049982	59.000000	nontarget	1.000000	na
54.507688	0.049339	59.000000	nontarget	2.000000	na
54.557027	0.050131	59.000000	nontarget	3.000000	na
54.607158	0.052151	59.000000	nontarget	4.000000	na
54.659309	0.048062	59.000000	nontarget	5.000000	54.664960
54.707371	0.050243	59.000000	nontarget	6.000000	na
54.757614	0.049399	59.000000	nontarget	7.000000	na
54.807013	0.050011	59.000000	nontarget	8.000000	na
54.857025	0.050975	59.000000	nontarget	9.000000	na
54.908000	0.049722	59.000000	nontarget	10.000000	na
54.957722	0.050045	59.000000	nontarget	11.000000	na
55.007767	0.049852	59.000000	nontarget	12.000000	na
55.057619	0.050433	59.000000	nontarget	13.000000	na
55.108052	0.049660	59.000000	nontarget	14.000000	na
55.157712	0.049966	59.000000	nontarget	15.000000	na
55.207678	0.049898	59.000000	nontarget	16.000000	na
55.257576	0.050056	60.000000	nontarget	1.000000	na
55.307632	0.050050	60.000000	nontarget	2.000000	na
55.357682	0.049898	60.000000	nontarget	3.000000	na
55.407580	0.050254	60.000000	nontarget	4.000000	na
55.457834	0.050001	60.000000	nontarget	5.000000	na
55.507836	0.049853	60.000000	nontarget	6.000000	na
55.557689	0.050015	60.000000	nontarget	7.000000	na
55.607704	0.055661	60.000000	nontarget	8.000000	na
55.663365	0.044619	60.000000	nontarget	9.000000	55.668002
55.707984	0.049014	60.000000	nontarget	10.000000	na
55.756998	0.050447	60.000000	nontarget	11.000000	na
55.807445	0.050251	60.000000	nontarget	12.000000	na
55.857696	0.049712	60.000000	nontarget	13.000000	na
55.907408	0.050535	60.000000	nontarget	14.000000	na
55.957942	0.049746	60.000000	nontarget	15.000000	na
56.007688	0.050064	60.000000	nontarget	16.000000	na
56.057753	0.049970	61.000000	nontarget	1.000000	na
56.107723	0.050095	61.000000	nontarget	2.000000	na
56.157817	0.049948	61.000000	nontarget	3.000000	na
56.207766	0.049969	61.000000	nontarget	4.000000	na
56.257735	0.049625	61.000000	nontarget	5.000000	na
56.307360	0.050651	61.000000	nontarget	6.000000	na
56.358011	0.049711	61.000000	nontarget	7.000000	56.373532
56.407722	0.049850	61.000000	nontarget	8.000000	na
56.457572	0.050378	61.000000	nontarget	9.000000	na
56.507950	0.049926	61.000000	nontarget	10.000000	na
56.557876	0.049771	61.000000	nontarget	11.000000	na
56.607647	0.049363	61.000000	nontarget	12.000000	na
56.657010	0.050689	61.000000	nontarget	13.000000	na
56.707698	0.049753	61.000000	nontarget	14.000000	na
56.757451	0.050245	61.000000	nontarget	15.000000	na
56.807696	0.049647	61.000000	nontarget	16.000000	na
56.857343	0.050287	62.000000	target	1.000000	na
56.907630	0.050076	62.000000	target	2.000000	na
56.957706	0.050032	62.000000	target	3.000000	na
57.007738	0.049931	62.000000	target	4.000000	na
57.057669	0.049967	62.000000	target	5.000000	na
57.107636	0.050388	62.000000	target	6.000000	na
57.158024	0.049566	62.000000	target	7.000000	na
57.207590	0.050107	62.000000	target	8.000000	na
57.257697	0.049410	62.000000	target	9.000000	na
57.307107	0.050010	62.000000	target	10.000000	na
57.357117	0.050489	62.000000	target	11.000000	na
57.407606	0.050451	62.000000	target	12.000000	na
57.458057	0.049522	62.000000	target	13.000000	57.488919
57.507579	0.049791	62.000000	target	14.000000	na
57.557370	0.050793	62.000000	target	15.000000	na
57.608163	0.049606	62.000000	target	16.000000	na
57.657769	0.049808	63.000000	nontarget	1.000000	na
57.707578	0.049802	63.000000	nontarget	2.000000	na
57.757380	0.050679	63.000000	nontarget	3.000000	na
57.808059	0.049434	63.000000	nontarget	4.000000	na
57.857492	0.050205	63.000000	nontarget	5.000000	na
57.907697	0.049275	63.000000	nontarget	6.000000	na
57.956972	0.050300	63.000000	nontarget	7.000000	na
58.007272	0.050024	63.000000	nontarget	8.000000	na
58.057296	0.049837	63.000000	nontarget	9.000000	na
58.107133	0.050455	63.000000	nontarget	10.000000	na
58.157587	0.049678	63.000000	nontarget	11.000000	na
58.207266	0.050383	63.000000	nontarget	12.000000	58.240452
58.257649	0.050097	63.000000	nontarget	13.000000	na
58.307746	0.049832	63.000000	nontarget	14.000000	na
58.357578	0.049779	63.000000	nontarget	15.000000	na
58.407356	0.049768	63.000000	nontarget	16.000000	na
58.457124	0.050582	64.000000	nontarget	1.000000	na
58.507706	0.050006	64.000000	nontarget	2.000000	na
58.557712	0.049979	64.000000	nontarget	3.000000	na
58.607692	0.049979	64.000000	nontarget	4.000000	na
58.657671	0.050060	64.000000	nontarget	5.000000	na
58.707730	0.049232	64.000000	nontarget	6.000000	na
58.756962	0.050618	64.000000	nontarget	7.000000	na
58.807580	0.049987	64.000000	nontarget	8.000000	na
58.857567	0.050198	64.000000	nontarget	9.000000	na
58.907765	0.049420	64.000000	nontarget	10.000000	na
58.957185	0.050251	64.000000	nontarget	11.000000	na
59.007436	0.050118	64.000000	nontarget	12.000000	59.035399
59.057554	0.049823	64.000000	nontarget	13.000000	na
59.107377	0.050243	64.000000	nontarget	14.000000	na
59.157620	0.050294	64.000000	nontarget	15.000000	na
59.207913	0.049038	64.000000	nontarget	16.000000	na
59.256952	0.050750	65.000000	nontarget	1.000000	na
59.307701	0.049181	65.000000	nontarget	2.000000	na
59.356883	0.050890	65.000000	nontarget	3.000000	na
59.407772	0.049918	65.000000	nontarget	4.000000	na
59.457691	0.049807	65.000000	nontarget	5.000000	na
59.507498	0.050102	65.000000	nontarget	6.000000	na
59.557600	0.049745	65.000000	nontarget	7.000000	na
59.607345	0.050351	65.000000	nontarget	8.000000	na
59.657696	0.049978	65.000000	nontarget	9.000000	na
59.707674	0.050011	65.000000	nontarget	10.000000	na
59.757685	0.050036	65.000000	nontarget	11.000000	na
59.807721	0.049763	65.000000	nontarget	12.000000	na
59.857484	0.050210	65.000000	nontarget	13.000000	na
59.907694	0.050164	65.000000	nontarget	14.000000	na
59.957858	0.050638	65.000000	nontarget	15.000000	na
60.008496	0.049268	65.000000	nontarget	16.000000	60.022446
60.057764	0.049973	66.000000	nontarget	1.000000	60.064339
60.107737	0.049715	66.000000	nontarget	2.000000	na
60.157452	0.050441	66.000000	nontarget	3.000000	na
60.207893	0.049791	66.000000	nontarget	4.000000	na
60.257684	0.050236	66.000000	nontarget	5.000000	na
60.307920	0.049808	66.000000	nontarget	6.000000	na
60.357728	0.049947	66.000000	nontarget	7.000000	na
60.407675	0.049665	66.000000	nontarget	8.000000	na
60.457340	0.050498	66.000000	nontarget	9.000000	na
60.507838	0.049880	66.000000	nontarget	10.000000	na
60.557718	0.049968	66.000000	nontarget	11.000000	na
60.607685	0.049844	66.000000	nontarget	12.000000	na
60.657530	0.050135	66.000000	nontarget	13.000000	na
60.707665	0.049510	66.000000	nontarget	14.000000	na
60.757175	0.050298	66.000000	nontarget	15.000000	na
60.807473	0.049464	66.000000	nontarget	16.000000	na
60.856937	0.050818	67.000000	nontarget	1.000000	60.883700
60.907755	0.049942	67.000000	nontarget	2.000000	na
60.957696	0.049864	67.000000	nontarget	3.000000	na
61.007561	0.049861	67.000000	nontarget	4.000000	na
61.057422	0.050207	67.000000	nontarget	5.000000	na
61.107629	0.049658	67.000000	nontarget	6.000000	na
61.157286	0.050415	67.000000	nontarget	7.000000	na
61.207701	0.049994	67.000000	nontarget	8.000000	na
61.257695	0.049993	67.000000	nontarget	9.000000	na
61.307688	0.049243	67.000000	nontarget	10.000000	na
61.356930	0.050406	67.000000	nontarget	11.000000	na
61.407337	0.050358	67.000000	nontarget	12.000000	na
61.457695	0.049991	67.000000	nontarget	13.000000	na
61.507686	0.049909	67.000000	nontarget	14.000000	na
61.557595	0.050109	67.000000	nontarget	15.000000	na
61.607704	0.049983	67.000000	nontarget	16.000000	na
61.657687	0.049664	68.000000	nontarget	1.000000	na
61.707351	0.050213	68.000000	nontarget	2.000000	na
61.757564	0.050055	68.000000	nontarget	3.000000	na
61.807619	0.051034	68.000000	nontarget	4.000000	61.843744
61.858653	0.048548	68.000000	nontarget	5.000000	na
61.907201	0.050543	68.000000	nontarget	6.000000	na
61.957744	0.049197	68.000000	nontarget	7.000000	na
62.006942	0.050542	68.000000	nontarget	8.000000	na
62.057483	0.050254	68.000000	nontarget	9.000000	na
62.107737	0.049974	68.000000	nontarget	10.000000	na
62.157711	0.049993	68.000000	nontarget	11.000000	na
62.207704	0.049938	68.000000	nontarget	12.000000	na
62.257642	0.048772	68.000000	nontarget	13.000000	na
62.306414	0.050414	68.000000	nontarget	14.000000	na
62.356828	0.050900	68.000000	nontarget	15.000000	na
62.407729	0.050144	68.000000	nontarget	16.000000	na
62.457872	0.049437	69.000000	target	1.000000	na
62.507309	0.050399	69.000000	target	2.000000	na
62.557708	0.049334	69.000000	target	3.000000	na
62.607042	0.050483	69.000000	target	4.000000	na
62.657526	0.049500	69.000000	target	5.000000	na
62.707026	0.050676	69.000000	target	6.000000	na
62.757702	0.049344	69.000000	target	7.000000	na
62.807046	0.050137	69.000000	target	8.000000	na
62.857183	0.049721	69.000000	target	9.000000	na
62.906904	0.050796	69.000000	target	10.000000	na
62.957700	0.049338	69.000000	target	11.000000	na
63.007038	0.050947	69.000000	target	12.000000	63.013895
63.057984	0.049478	69.000000	target	13.000000	na
63.107462	0.050250	69.000000	target	14.000000	na
63.157712	0.050164	69.000000	target	15.000000	na
63.207876	0.049950	69.000000	target	16.000000	na
63.257826	0.049493	70.000000	nontarget	1.000000	na
63.307319	0.049904	70.000000	nontarget	2.000000	na
63.357223	0.050369	70.000000	nontarget	3.000000	na
63.407593	0.050350	70.000000	nontarget	4.000000	na
63.457942	0.049758	70.000000	nontarget	5.000000	na
63.507700	0.050276	70.000000	nontarget	6.000000	na
63.557976	0.049668	70.000000	nontarget	7.000000	na
63.607644	0.049984	70.000000	nontarget	8.000000	na
63.657629	0.049716	70.000000	nontarget	9.000000	na
63.707345	0.050394	70.000000	nontarget	10.000000	na
63.757738	0.049930	70.000000	nontarget	11.000000	na
63.807669	0.049256	70.000000	nontarget	12.000000	na
63.856925	0.050071	70.000000	nontarget	13.000000	na
63.906995	0.054216	70.000000	nontarget	14.000000	na
63.961212	0.046095	70.000000	nontarget	15.000000	63.966438
64.007306	0.050088	70.000000	nontarget	16.000000	na
64.057394	0.050338	71.000000	target	1.000000	64.064045
64.107732	0.049608	71.000000	target	2.000000	na
64.157341	0.050521	71.000000	target	3.000000	na
64.207862	0.049841	71.000000	target	4.000000	na
64.257702	0.049869	71.000000	target	5.000000	na
64.307571	0.050314	71.000000	target	6.000000	na
64.357885	0.049279	71.000000	target	7.000000	na
64.407164	0.050538	71.000000	target	8.000000	na
64.457702	0.050017	71.000000	target	9.000000	na
64.507719	0.049318	71.000000	target	10.000000	na
64.557037	0.049941	71.000000	target	11.000000	na
64.606978	0.050712	71.000000	target	12.000000	na
64.657690	0.049739	71.000000	target	13.000000	na
64.707429	0.050080	71.000000	target	14.000000	na
64.757509	0.050189	71.000000	target	15.000000	na
64.807698	0.049218	71.000000	target	16.000000	na
64.856916	0.050429	72.000000	nontarget	1.000000	na
64.907345	0.050505	72.000000	nontarget	2.000000	na
64.957850	0.048699	72.000000	nontarget	3.000000	64.982227
65.006549	0.051089	72.000000	nontarget	4.000000	na
65.057638	0.049254	72.000000	nontarget	5.000000	na
65.106891	0.050450	72.000000	nontarget	6.000000	na
65.157342	0.050358	72.000000	nontarget	7.000000	na
65.207699	0.049479	72.000000	nontarget	8.000000	na
65.257178	0.050540	72.000000	nontarget	9.000000	na
65.307718	0.049978	72.000000	nontarget	10.000000	na
65.357696	0.049272	72.000000	nontarget	11.000000	na
65.406967	0.050752	72.000000	nontarget	12.000000	na
65.457719	0.049969	72.000000	nontarget	13.000000	na
65.507688	0.049971	72.000000	nontarget	14.000000	na
65.557659	0.050018	72.000000	nontarget	15.000000	na
65.607676	0.050231	72.000000	nontarget	16.000000	na
65.657907	0.049617	73.000000	nontarget	1.000000	na
65.707524	0.050202	73.000000	nontarget	2.000000	na
65.757726	0.050148	73.000000	nontarget	3.000000	na
65.807874	0.049737	73.000000	nontarget	4.000000	na
65.857611	0.050101	73.000000	nontarget	5.000000	na
65.907711	0.049692	73.000000	nontarget	6.000000	na
65.957404	0.050672	73.000000	nontarget	7.000000	65.984619
66.008076	0.049682	73.000000	nontarget	8.000000	na
66.057758	0.050280	73.000000	nontarget	9.000000	na
66.108038	0.049509	73.000000	nontarget	10.000000	na
66.157547	0.050278	73.000000	nontarget	11.000000	na
66.207825	0.049920	73.000000	nontarget	12.000000	na
66.257745	0.049886	73.000000	nontarget	13.000000	na
66.307630	0.050377	73.000000	nontarget	14.000000	na
66.358007	0.049517	73.000000	nontarget	15.000000	na
66.407524	0.050330	73.000000	nontarget	16.000000	na
66.457855	0.049846	74.000000	nontarget	1.000000	na
66.507701	0.050316	74.000000	nontarget	2.000000	na
66.558016	0.049625	74.000000	nontarget	3.000000	na
66.607642	0.050217	74.000000	nontarget	4.000000	na
66.657858	0.049800	74.000000	nontarget	5.000000	na
66.707658	0.050390	74.000000	nontarget	6.000000	na
66.758048	0.049762	74.000000	nontarget	7.000000	na
66.807810	0.049873	74.000000	nontarget	8.000000	na
66.857683	0.049482	74.000000	nontarget	9.000000	na
66.907165	0.049877	74.000000	nontarget	10.000000	na
66.957042	0.050346	74.000000	nontarget	11.000000	66.976472
67.007389	0.049944	74.000000	nontarget	12.000000	na
67.057332	0.050562	74.000000	nontarget	13.000000	na
67.107894	0.049813	74.000000	nontarget	14.000000	na
67.157707	0.049991	74.000000	nontarget	15.000000	na
67.207698	0.049995	74.000000	nontarget	16.000000	na
67.257693	0.050166	75.000000	target	1.000000	na
67.307859	0.049587	75.000000	target	2.000000	na
67.357445	0.050264	75.000000	target	3.000000	na
67.407709	0.049670	75.000000	target	4.000000	na
67.457379	0.050078	75.000000	target	5.000000	na
67.507457	0.050195	75.000000	target	6.000000	na
67.557653	0.050133	75.000000	target	7.000000	na
67.607786	0.049269	75.000000	target	8.000000	na
67.657055	0.050650	75.000000	target	9.000000	na
67.707705	0.049380	75.000000	target	10.000000	na
67.757085	0.050602	75.000000	target	11.000000	na
67.807688	0.050119	75.000000	target	12.000000	na
67.857807	0.049320	75.000000	target	13.000000	na
67.907127	0.050972	75.000000	target	14.000000	na
67.958099	0.049941	75.000000	target	15.000000	na
68.008040	0.049759	75.000000	target	16.000000	na
68.057798	0.050218	76.000000	nontarget	1.000000	na
68.108016	0.052087	76.000000	nontarget	2.000000	na
68.160103	0.047643	76.000000	nontarget	3.000000	68.165156
68.207746	0.049930	76.000000	nontarget	4.000000	na
68.257676	0.050018	76.000000	nontarget	5.000000	na
68.307693	0.050003	76.000000	nontarget	6.000000	na
68.357697	0.050035	76.000000	nontarget	7.000000	na
68.407732	0.049453	76.000000	nontarget	8.000000	na
68.457184	0.050479	76.000000	nontarget	9.000000	na
68.507663	0.050031	76.000000	nontarget	10.000000	na
68.557694	0.049973	76.000000	nontarget	11.000000	na
68.607667	0.049831	76.000000	nontarget	12.000000	na
68.657498	0.050210	76.000000	nontarget	13.000000	na
68.707708	0.050364	76.000000	nontarget	14.000000	na
68.758073	0.049595	76.000000	nontarget	15.000000	na
68.807668	0.049446	76.000000	nontarget	16.000000	na
68.857114	0.050584	77.000000	nontarget	1.000000	na
68.907698	0.049678	77.000000	nontarget	2.000000	na
68.957376	0.050341	77.000000	nontarget	3.000000	na
69.007717	0.050095	77.000000	nontarget	4.000000	na
69.057812	0.052619	77.000000	nontarget	5.000000	na
69.110431	0.047621	77.000000	nontarget	6.000000	69.116575
69.158052	0.049691	77.000000	nontarget	7.000000	na
69.207743	0.049972	77.000000	nontarget	8.000000	na
69.257715	0.049694	77.000000	nontarget	9.000000	na
69.307409	0.050672	77.000000	nontarget	10.000000	na
69.358081	0.049341	77.000000	nontarget	11.000000	na
69.407422	0.050275	77.000000	nontarget	12.000000	na
69.457697	0.049509	77.000000	nontarget	13.000000	na
69.507205	0.049835	77.000000	nontarget	14.000000	na
69.557041	0.050069	77.000000	nontarget	15.000000	na
69.607109	0.050312	77.000000	nontarget	16.000000	na
69.657421	0.050657	78.000000	nontarget	1.000000	na
69.708078	0.049699	78.000000	nontarget	2.000000	na
69.757777	0.049857	78.000000	nontarget	3.000000	na
69.807634	0.050439	78.000000	nontarget	4.000000	na
69.858073	0.049924	78.000000	nontarget	5.000000	na
69.907997	0.050078	78.000000	nontarget	6.000000	na
69.958074	0.049588	78.000000	nontarget	7.000000	na
70.007663	0.049445	78.000000	nontarget	8.000000	70.018987
70.057108	0.050124	78.000000	nontarget	9.000000	na
70.107232	0.050559	78.000000	nontarget	10.000000	na
70.157791	0.050007	78.000000	nontarget	11.000000	na
70.207798	0.049984	78.000000	nontarget	12.000000	na
70.257782	0.049935	78.000000	nontarget	13.000000	na
70.307717	0.049980	78.000000	nontarget	14.000000	na
70.357697	0.049502	78.000000	nontarget	15.000000	na
70.407199	0.050105	78.000000	nontarget	16.000000	na
70.457305	0.050393	79.000000	nontarget	1.000000	na
70.507698	0.049934	79.000000	nontarget	2.000000	na
70.557632	0.050000	79.000000	nontarget	3.000000	na
70.607632	0.050426	79.000000	nontarget	4.000000	na
70.658058	0.049657	79.000000	nontarget	5.000000	na
70.707715	0.050327	79.000000	nontarget	6.000000	na
70.758042	0.049345	79.000000	nontarget	7.000000	na
70.807387	0.049739	79.000000	nontarget	8.000000	na
70.857126	0.050562	79.000000	nontarget	9.000000	na
70.907688	0.050056	79.000000	nontarget	10.000000	na
70.957744	0.050054	79.000000	nontarget	11.000000	na
71.007799	0.049704	79.000000	nontarget	12.000000	na
71.057503	0.050556	79.000000	nontarget	13.000000	71.077253
71.108058	0.049995	79.000000	nontarget	14.000000	na
71.158053	0.049528	79.000000	nontarget	15.000000	na
71.207582	0.050040	79.000000	nontarget	16.000000	na
71.257622	0.050112	80.000000	nontarget	1.000000	na
71.307734	0.049800	80.000000	nontarget	2.000000	na
71.357534	0.050151	80.000000	nontarget	3.000000	na
71.407684	0.050368	80.000000	nontarget	4.000000	na
71.458053	0.049575	80.000000	nontarget	5.000000	na
71.507627	0.050125	80.000000	nontarget	6.000000	na
71.557753	0.049421	80.000000	nontarget	7.000000	na
71.607174	0.050404	80.000000	nontarget	8.000000	na
71.657578	0.050170	80.000000	nontarget	9.000000	na
71.707747	0.049986	80.000000	nontarget	10.000000	na
71.757733	0.050321	80.000000	nontarget	11.000000	na
71.808055	0.049638	80.000000	nontarget	12.000000	na
71.857692	0.050272	80.000000	nontarget	13.000000	na
71.907965	0.049884	80.000000	nontarget	14.000000	na
71.957849	0.049796	80.000000	nontarget	15.000000	na
72.007644	0.050184	80.000000	nontarget	16.000000	na
72.057828	0.049515	81.000000	nontarget	1.000000	na
72.107343	0.050590	81.000000	nontarget	2.000000	72.138880
72.157933	0.049758	81.000000	nontarget	3.000000	na
72.207691	0.050070	81.000000	nontarget	4.000000	na
72.257761	0.050279	81.000000	nontarget	5.000000	na
72.308040	0.049725	81.000000	nontarget	6.000000	na
72.357765	0.049955	81.000000	nontarget	7.000000	na
72.407720	0.049975	81.000000	nontarget	8.000000	na
72.457695	0.050000	81.000000	nontarget	9.000000	na
72.507695	0.049622	81.000000	nontarget	10.000000	na
72.557317	0.050668	81.000000	nontarget	11.000000	na
72.607985	0.049676	81.000000	nontarget	12.000000	na
72.657660	0.050272	81.000000	nontarget	13.000000	na
72.707932	0.049803	81.000000	nontarget	14.000000	na
72.757735	0.049989	81.000000	nontarget	15.000000	na
72.807724	0.050274	81.000000	nontarget	16.000000	na
72.857998	0.049521	82.000000	nontarget	1.000000	na
72.907519	0.049801	82.000000	nontarget	2.000000	na
72.957320	0.049935	82.000000	nontarget	3.000000	72.976706
73.007254	0.050570	82.000000	nontarget	4.000000	na
73.057824	0.049706	82.000000	nontarget	5.000000	na
73.107530	0.050293	82.000000	nontarget	6.000000	na
73.157823	0.049815	82.000000	nontarget	7.000000	na
73.207638	0.049414	82.000000	nontarget	8.000000	na
73.257052	0.050677	82.000000	nontarget	9.000000	na
73.307729	0.050207	82.000000	nontarget	10.000000	na
73.357936	0.049938	82.000000	nontarget	11.000000	na
73.407874	0.049831	82.000000	nontarget	12.000000	na
73.457705	0.049167	82.000000	nontarget	13.000000	na
73.506873	0.050427	82.000000	nontarget	14.000000	na
73.557300	0.050247	82.000000	nontarget	15.000000	na
73.607547	0.050123	82.000000	nontarget	16.000000	na
73.657670	0.050094	83.000000	target	1.000000	na
73.707764	0.049614	83.000000	target	2.000000	na
73.757378	0.050339	83.000000	target	3.000000	na
73.807717	0.049875	83.000000	target	4.000000	na
73.857591	0.050322	83.000000	target	5.000000	na
73.907914	0.049311	83.000000	target	6.000000	na
73.957224	0.050224	83.000000	target	7.000000	na
74.007448	0.050572	83.000000	target	8.000000	na
74.058020	0.049126	83.000000	target	9.000000	na
74.107145	0.050598	83.000000	target	10.000000	na
74.157744	0.048984	83.000000	target	11.000000	na
74.206728	0.050231	83.000000	target	12.000000	74.225851
74.256959	0.050293	83.000000	target	13.000000	na
74.307252	0.050545	83.000000	target	14.000000	na
74.357797	0.049645	83.000000	target	15.000000	na
74.407442	0.050289	83.000000	target	16.000000	na
74.457731	0.049108	84.000000	nontarget	1.000000	na
74.506839	0.050887	84.000000	nontarget	2.000000	na
74.557726	0.049139	84.000000	nontarget	3.000000	na
74.606865	0.050098	84.000000	nontarget	4.000000	na
74.656964	0.050763	84.000000	nontarget	5.000000	na
74.707726	0.049956	84.000000	nontarget	6.000000	na
74.757682	0.050039	84.000000	nontarget	7.000000	na
74.807721	0.049606	84.000000	nontarget	8.000000	na
74.857326	0.050355	84.000000	nontarget	9.000000	na
74.907681	0.050325	84.000000	nontarget	10.000000	na
74.958006	0.049100	84.000000	nontarget	11.000000	na
75.007106	0.050306	84.000000	nontarget	12.000000	na
75.057412	0.050356	84.000000	nontarget	13.000000	na
75.107768	0.049934	84.000000	nontarget	14.000000	na
75.157702	0.050095	84.000000	nontarget	15.000000	75.173248
75.207797	0.050118	84.000000	nontarget	16.000000	na
75.257915	0.049637	85.000000	nontarget	1.000000	75.264478
75.307551	0.049863	85.000000	nontarget	2.000000	na
75.357414	0.050298	85.000000	nontarget	3.000000	na
75.407712	0.049565	85.000000	nontarget	4.000000	na
75.457278	0.050423	85.000000	nontarget	5.000000	na
75.507701	0.049997	85.000000	nontarget	6.000000	na
75.557698	0.049611	85.000000	nontarget	7.000000	na
75.607309	0.050168	85.000000	nontarget	8.000000	na
75.657477	0.050297	85.000000	nontarget	9.000000	na
75.707774	0.049685	85.000000	nontarget	10.000000	na
75.757459	0.050461	85.000000	nontarget	11.000000	na
75.807920	0.049787	85.000000	nontarget	12.000000	na
75.857707	0.050254	85.000000	nontarget	13.000000	na
75.907961	0.049381	85.000000	nontarget	14.000000	na
75.957342	0.049810	85.000000	nontarget	15.000000	na
76.007152	0.050098	85.000000	nontarget	16.000000	na
76.057251	0.049346	86.000000	nontarget	1.000000	na
76.106596	0.050609	86.000000	nontarget	2.000000	76.114285
76.157205	0.050510	86.000000	nontarget	3.000000	na
76.207714	0.050033	86.000000	nontarget	4.000000	na
76.257748	0.049748	86.000000	nontarget	5.000000	na
76.307495	0.050068	86.000000	nontarget	6.000000	na
76.357563	0.050012	86.000000	nontarget	7.000000	na
76.407575	0.050378	86.000000	nontarget	8.000000	na
76.457953	0.048983	86.000000	nontarget	9.000000	na
76.506936	0.050168	86.000000	nontarget	10.000000	na
76.557104	0.050608	86.000000	nontarget	11.000000	na
76.607712	0.049990	86.000000	nontarget	12.000000	na
76.657702	0.049299	86.000000	nontarget	13.000000	na
76.707001	0.049961	86.000000	nontarget	14.000000	na
76.756963	0.050172	86.000000	nontarget	15.000000	na
76.807134	0.050440	86.000000	nontarget	16.000000	na
76.857574	0.049565	87.000000	nontarget	1.000000	na
76.907139	0.050400	87.000000	nontarget	2.000000	na
76.957539	0.050905	87.000000	nontarget	3.000000	na
77.008444	0.048684	87.000000	nontarget	4.000000	77.022547
77.057128	0.050637	87.000000	nontarget	5.000000	na
77.107766	0.049742	87.000000	nontarget	6.000000	na
77.157507	0.050461	87.000000	nontarget	7.000000	na
77.207968	0.049059	87.000000	nontarget	8.000000	na
77.257027	0.050691	87.000000	nontarget	9.000000	na
77.307719	0.050017	87.000000	nontarget	10.000000	na
77.357736	0.049924	87.000000	nontarget	11.000000	na
77.407660	0.049483	87.000000	nontarget	12.000000	na
77.457143	0.050572	87.000000	nontarget	13.000000	na
77.507715	0.050012	87.000000	nontarget	14.000000	na
77.557727	0.049551	87.000000	nontarget	15.000000	na
77.607278	0.050577	87.000000	nontarget	16.000000	na
77.657856	0.049509	88.000000	nontarget	1.000000	na
77.707365	0.050599	88.000000	nontarget	2.000000	na
77.757964	0.049364	88.000000	nontarget	3.000000	na
77.807328	0.050298	88.000000	nontarget	4.000000	na
77.857626	0.050082	88.000000	nontarget	5.000000	na
77.907708	0.049974	88.000000	nontarget	6.000000	na
77.957682	0.049290	88.000000	nontarget	7.000000	77.968958
78.006972	0.050890	88.000000	nontarget	8.000000	na
78.057863	0.049934	88.000000	nontarget	9.000000	na
78.107797	0.049771	88.000000	nontarget	10.000000	na
78.157568	0.050159	88.000000	nontarget	11.000000	na
78.207728	0.049974	88.000000	nontarget	12.000000	na
78.257702	0.049596	88.000000	nontarget	13.000000	na
78.307297	0.050296	88.000000	nontarget	14.000000	na
78.357593	0.050073	88.000000	nontarget	15.000000	na
78.407666	0.050061	88.000000	nontarget	16.000000	na
78.457726	0.049755	89.000000	nontarget	1.000000	na
78.507481	0.050375	89.000000	nontarget	2.000000	na
78.557857	0.049852	89.000000	nontarget	3.000000	na
78.607708	0.050024	89.000000	nontarget	4.000000	na
78.657732	0.049970	89.000000	nontarget	5.000000	na
78.707703	0.050141	89.000000	nontarget	6.000000	na
78.757844	0.049165	89.000000	nontarget	7.000000	na
78.807008	0.050666	89.000000	nontarget	8.000000	na
78.857674	0.049822	89.000000	nontarget	9.000000	na
78.907496	0.049695	89.000000	nontarget	10.000000	na
78.957190	0.050010	89.000000	nontarget	11.000000	na
79.007200	0.049786	89.000000	nontarget	12.000000	na
79.056986	0.050965	89.000000	nontarget	13.000000	79.087969
79.107951	0.049916	89.000000	nontarget	14.000000	na
79.157868	0.049982	89.000000	nontarget	15.000000	na
79.207850	0.049853	89.000000	nontarget	16.000000	na
79.257703	0.049999	90.000000	nontarget	1.000000	na
79.307702	0.049731	90.000000	nontarget	2.000000	na
79.357433	0.050148	90.000000	nontarget	3.000000	na
79.407581	0.049993	90.000000	nontarget	4.000000	na
79.457574	0.050146	90.000000	nontarget	5.000000	na
79.507720	0.050193	90.000000	nontarget	6.000000	na
79.557913	0.049556	90.000000	nontarget	7.000000	na
79.607469	0.050260	90.000000	nontarget	8.000000	na
79.657730	0.049993	90.000000	nontarget	9.000000	na
79.707723	0.049736	90.000000	nontarget	10.000000	na
79.757459	0.050126	90.000000	nontarget	11.000000	na
79.807585	0.049940	90.000000	nontarget	12.000000	na
79.857524	0.050411	90.000000	nontarget	13.000000	na
79.907936	0.049999	90.000000	nontarget	14.000000	na
79.957935	0.049383	90.000000	nontarget	15.000000	79.969338
80.007317	0.050608	90.000000	nontarget	16.000000	na
80.057926	0.049874	91.000000	nontarget	1.000000	80.064572
80.107800	0.050136	91.000000	nontarget	2.000000	na
80.157935	0.049871	91.000000	nontarget	3.000000	na
80.207806	0.049996	91.000000	nontarget	4.000000	na
80.257802	0.049612	91.000000	nontarget	5.000000	na
80.307414	0.049690	91.000000	nontarget	6.000000	na
80.357104	0.050508	91.000000	nontarget	7.000000	na
80.407612	0.049305	91.000000	nontarget	8.000000	na
80.456916	0.050455	91.000000	nontarget	9.000000	na
80.507372	0.050469	91.000000	nontarget	10.000000	na
80.557841	0.049727	91.000000	nontarget	11.000000	na
80.607568	0.050785	91.000000	nontarget	12.000000	na
80.658353	0.049450	91.000000	nontarget	13.000000	na
80.707802	0.050020	91.000000	nontarget	14.000000	na
80.757823	0.049578	91.000000	nontarget	15.000000	na
80.807400	0.050308	91.000000	nontarget	16.000000	na
80.857708	0.049960	92.000000	nontarget	1.000000	80.882351
80.907669	0.049340	92.000000	nontarget	2.000000	na
80.957009	0.050560	92.000000	nontarget	3.000000	na
81.007569	0.050259	92.000000	nontarget	4.000000	na
81.057828	0.050001	92.000000	nontarget	5.000000	na
81.107829	0.049838	92.000000	nontarget	6.000000	na
81.157667	0.049880	92.000000	nontarget	7.000000	na
81.207547	0.050241	92.000000	nontarget	8.000000	na
81.257787	0.049807	92.000000	nontarget	9.000000	na
81.307594	0.050246	92.000000	nontarget	10.000000	na
81.357840	0.049592	92.000000	nontarget	11.000000	na
81.407432	0.050213	92.000000	nontarget	12.000000	na
81.457645	0.049772	92.000000	nontarget	13.000000	na
81.507416	0.049598	92.000000	nontarget	14.000000	na
81.557014	0.050633	92.000000	nontarget	15.000000	na
81.607648	0.050135	92.000000	nontarget	16.000000	na
81.657783	0.049243	93.000000	nontarget	1.000000	na
81.707026	0.050888	93.000000	nontarget	2.000000	na
81.757914	0.049880	93.000000	nontarget	3.000000	na
81.807794	0.049210	93.000000	nontarget	4.000000	na
81.857004	0.050129	93.000000	nontarget	5.000000	na
81.907133	0.050773	93.000000	nontarget	6.000000	na
81.957906	0.052058	93.000000	nontarget	7.000000	81.985057
82.009963	0.047890	93.000000	nontarget	8.000000	na
82.057854	0.049150	93.000000	nontarget	9.000000	na
82.107004	0.049997	93.000000	nontarget	10.000000	na
82.157001	0.050348	93.000000	nontarget	11.000000	na
82.207349	0.050195	93.000000	nontarget	12.000000	na
82.257544	0.050360	93.000000	nontarget	13.000000	na
82.307903	0.049597	93.000000	nontarget	14.000000	na
82.357500	0.049746	93.000000	nontarget	15.000000	na
82.407246	0.050562	93.000000	nontarget	16.000000	na
82.457808	0.049284	94.000000	nontarget	1.000000	na
82.507092	0.050686	94.000000	nontarget	2.000000	na
82.557778	0.049797	94.000000	nontarget	3.000000	na
82.607575	0.050300	94.000000	nontarget	4.000000	na
82.657875	0.050017	94.000000	nontarget	5.000000	na
82.707893	0.050007	94.000000	nontarget	6.000000	na
82.757899	0.049749	94.000000	nontarget	7.000000	na
82.807648	0.049423	94.000000	nontarget	8.000000	na
82.857071	0.050331	94.000000	nontarget	9.000000	na
82.907403	0.049710	94.000000	nontarget	10.000000	na
82.957113	0.056325	94.000000	nontarget	11.000000	82.992623
83.013439	0.044470	94.000000	nontarget	12.000000	na
83.057909	0.049217	94.000000	nontarget	13.000000	na
83.107125	0.050673	94.000000	nontarget	14.000000	na
83.157798	0.049625	94.000000	nontarget	15.000000	na
83.207423	0.050393	94.000000	nontarget	16.000000	na
83.257816	0.049966	95.000000	nontarget	1.000000	na
83.307782	0.049698	95.000000	nontarget	2.000000	na
83.357480	0.049628	95.000000	nontarget	3.000000	na
83.407107	0.050777	95.000000	nontarget	4.000000	na
83.457885	0.049955	95.000000	nontarget	5.000000	na
83.507839	0.050013	95.000000	nontarget	6.000000	na
83.557852	0.049738	95.000000	nontarget	7.000000	na
83.607590	0.050170	95.000000	nontarget	8.000000	na
83.657761	0.049435	95.000000	nontarget	9.000000	na
83.707196	0.050641	95.000000	nontarget	10.000000	na
83.757837	0.049974	95.000000	nontarget	11.000000	na
83.807811	0.049961	95.000000	nontarget	12.000000	na
83.857772	0.049828	95.000000	nontarget	13.000000	na
83.907601	0.050426	95.000000	nontarget	14.000000	na
83.958027	0.049576	95.000000	nontarget	15.000000	na
84.007603	0.051070	95.000000	nontarget	16.000000	84.042590
84.058672	0.049218	96.000000	nontarget	1.000000	84.064592
84.107890	0.049990	96.000000	nontarget	2.000000	na
84.157880	0.049164	96.000000	nontarget	3.000000	na
84.207044	0.050303	96.000000	nontarget	4.000000	na
84.257348	0.050387	96.000000	nontarget	5.000000	na
84.307735	0.049414	96.000000	nontarget	6.000000	na
84.357149	0.050743	96.000000	nontarget	7.000000	na
84.407892	0.049692	96.000000	nontarget	8.000000	na
84.457584	0.050274	96.000000	nontarget	9.000000	na
84.507858	0.049952	96.000000	nontarget	10.000000	na
84.557809	0.049467	96.000000	nontarget	11.000000	na
84.607276	0.050061	96.000000	nontarget	12.000000	na
84.657336	0.050152	96.000000	nontarget	13.000000	na
84.707489	0.050477	96.000000	nontarget	14.000000	na
84.757966	0.049638	96.000000	nontarget	15.000000	na
84.807604	0.050402	96.000000	nontarget	16.000000	na
84.858006	0.049811	97.000000	nontarget	1.000000	na
84.907817	0.050038	97.000000	nontarget	2.000000	na
84.957855	0.049335	97.000000	nontarget	3.000000	na
85.007189	0.050569	97.000000	nontarget	4.000000	85.014123
85.057758	0.050217	97.000000	nontarget	5.000000	na
85.107975	0.049453	97.000000	nontarget	6.000000	na
85.157428	0.050381	97.000000	nontarget	7.000000	na
85.207809	0.050206	97.000000	nontarget	8.000000	na
85.258015	0.049496	97.000000	nontarget	9.000000	na
85.307511	0.050377	97.000000	nontarget	10.000000	na
85.357888	0.049589	97.000000	nontarget	11.000000	na
85.407477	0.049651	97.000000	nontarget	12.000000	na
85.457127	0.050875	97.000000	nontarget	13.000000	na
85.508003	0.049088	97.000000	nontarget	14.000000	na
85.557091	0.049836	97.000000	nontarget	15.000000	na
85.606926	0.050529	97.000000	nontarget	16.000000	na
85.657456	0.050643	98.000000	nontarget	1.000000	na
85.708099	0.049310	98.000000	nontarget	2.000000	na
85.757408	0.050335	98.000000	nontarget	3.000000	na
85.807743	0.050080	98.000000	nontarget	4.000000	na
85.857824	0.049811	98.000000	nontarget	5.000000	na
85.907635	0.049793	98.000000	nontarget	6.000000	na
85.957428	0.053721	98.000000	nontarget	7.000000	85.988274
86.011149	0.046563	98.000000	nontarget	8.000000	na
86.057712	0.049393	98.000000	nontarget	9.000000	na
86.107105	0.050892	98.000000	nontarget	10.000000	na
86.157997	0.049579	98.000000	nontarget	11.000000	na
86.207576	0.050180	98.000000	nontarget	12.000000	na
86.257756	0.049934	98.000000	nontarget	13.000000	na
86.307690	0.049402	98.000000	nontarget	14.000000	na
86.357092	0.050071	98.000000	nontarget	15.000000	na
86.407163	0.050685	98.000000	nontarget	16.000000	na
86.457847	0.050001	99.000000	nontarget	1.000000	na
86.507849	0.049859	99.000000	nontarget	2.000000	na
86.557708	0.050047	99.000000	nontarget	3.000000	na
86.607755	0.050097	99.000000	nontarget	4.000000	na
86.657852	0.049952	99.000000	nontarget	5.000000	na
86.707804	0.050134	99.000000	nontarget	6.000000	na
86.757937	0.050016	99.000000	nontarget	7.000000	na
86.807953	0.050030	99.000000	nontarget	8.000000	86.835256
86.857983	0.049862	99.000000	nontarget	9.000000	na
86.907845	0.049270	99.000000	nontarget	10.000000	na
86.957116	0.050512	99.000000	nontarget	11.000000	na
87.007628	0.049842	99.000000	nontarget	12.000000	na
87.057470	0.050363	99.000000	nontarget	13.000000	na
87.107833	0.050012	99.000000	nontarget	14.000000	na
87.157845	0.049988	99.000000	nontarget	15.000000	na
87.207833	0.049986	99.000000	nontarget	16.000000	na
87.257819	0.049765	100.000000	nontarget	1.000000	na
87.307584	0.050149	100.000000	nontarget	2.000000	na
87.357733	0.049735	100.000000	nontarget	3.000000	na
87.407468	0.050325	100.000000	nontarget	4.000000	na
87.457793	0.050042	100.000000	nontarget	5.000000	na
87.507834	0.049659	100.000000	nontarget	6.000000	na
87.557493	0.050117	100.000000	nontarget	7.000000	na
87.607610	0.050084	100.000000	nontarget	8.000000	na
87.657694	0.050145	100.000000	nontarget	9.000000	87.664104
87.707839	0.049995	100.000000	nontarget	10.000000	na
87.757834	0.049995	100.000000	nontarget	11.000000	na
87.807829	0.049902	100.000000	nontarget	12.000000	na
87.857731	0.050097	100.000000	nontarget	13.000000	na
87.907828	0.049196	100.000000	nontarget	14.000000	na
87.957024	0.050750	100.000000	nontarget	15.000000	na
88.007774	0.049941	100.000000	nontarget	16.000000	na
88.057715	0.049477	101.000000	nontarget	1.000000	na
88.107192	0.050629	101.000000	nontarget	2.000000	na
88.157821	0.050008	101.000000	nontarget	3.000000	na
88.207829	0.049958	101.000000	nontarget	4.000000	na
88.257787	0.049993	101.000000	nontarget	5.000000	na
88.307780	0.050024	101.000000	nontarget	6.000000	na
88.357804	0.049753	101.000000	nontarget	7.000000	na
88.407557	0.049532	101.000000	nontarget	8.000000	na
88.457089	0.050727	101.000000	nontarget	9.000000	na
88.507816	0.050829	101.000000	nontarget	10.000000	na
88.558645	0.049167	101.000000	nontarget	11.000000	88.565214
88.607812	0.049953	101.000000	nontarget	12.000000	na
88.657765	0.049454	101.000000	nontarget	13.000000	na
88.707219	0.050287	101.000000	nontarget	14.000000	na
88.757506	0.050254	101.000000	nontarget	15.000000	na
88.807761	0.049808	101.000000	nontarget	16.000000	na
88.857569	0.050110	102.000000	nontarget	1.000000	na
88.907679	0.050107	102.000000	nontarget	2.000000	na
88.957785	0.050174	102.000000	nontarget	3.000000	na
89.007960	0.049828	102.000000	nontarget	4.000000	na
89.057788	0.049952	102.000000	nontarget	5.000000	na
89.107740	0.050069	102.000000	nontarget	6.000000	na
89.157809	0.050091	102.000000	nontarget	7.000000	na
89.207900	0.049816	102.000000	nontarget	8.000000	na
89.257716	0.049629	102.000000	nontarget	9.000000	na
89.307345	0.049634	102.000000	nontarget	10.000000	na
89.356979	0.050821	102.000000	nontarget	11.000000	na
89.407800	0.050032	102.000000	nontarget	12.000000	89.419231
89.457832	0.050230	102.000000	nontarget	13.000000	na
89.508061	0.049291	102.000000	nontarget	14.000000	na
89.557352	0.050429	102.000000	nontarget	15.000000	na
89.607781	0.049225	102.000000	nontarget	16.000000	na
89.657006	0.049995	103.000000	nontarget	1.000000	na
89.707000	0.050553	103.000000	nontarget	2.000000	na
89.757553	0.050257	103.000000	nontarget	3.000000	na
89.807810	0.049347	103.000000	nontarget	4.000000	na
89.857157	0.050616	103.000000	nontarget	5.000000	na
89.907772	0.049218	103.000000	nontarget	6.000000	na
89.956990	0.050805	103.000000	nontarget	7.000000	na
90.007795	0.049976	103.000000	nontarget	8.000000	na
90.057771	0.049999	103.000000	nontarget	9.000000	na
90.107770	0.050223	103.000000	nontarget	10.000000	90.131387
90.157993	0.049779	103.000000	nontarget	11.000000	na
90.207772	0.049286	103.000000	nontarget	12.000000	na
90.257058	0.050798	103.000000	nontarget	13.000000	na
90.307856	0.049912	103.000000	nontarget	14.000000	na
90.357767	0.049997	103.000000	nontarget	15.000000	na
90.407765	0.050006	103.000000	nontarget	16.000000	na
90.457771	0.049503	104.000000	nontarget	1.000000	na
90.507274	0.049700	104.000000	nontarget	2.000000	na
90.556974	0.050078	104.000000	nontarget	3.000000	na
90.607052	0.050839	104.000000	nontarget	4.000000	na
90.657891	0.049165	104.000000	nontarget	5.000000	na
90.707056	0.050330	104.000000	nontarget	6.000000	na
90.757386	0.050374	104.000000	nontarget	7.000000	na
90.807760	0.049996	104.000000	nontarget	8.000000	na
90.857756	0.049236	104.000000	nontarget	9.000000	na
90.906992	0.050765	104.000000	nontarget	10.000000	90.913846
90.957757	0.050031	104.000000	nontarget	11.000000	na
91.007787	0.049934	104.000000	nontarget	12.000000	na
91.057722	0.049500	104.000000	nontarget	13.000000	na
91.107221	0.050539	104.000000	nontarget	14.000000	na
91.157760	0.049946	104.000000	nontarget	15.000000	na
91.207706	0.049536	104.000000	nontarget	16.000000	na
91.257242	0.050516	105.000000	target	1.000000	na
91.307758	0.049542	105.000000	target	2.000000	na
91.357300	0.050452	105.000000	target	3.000000	na
91.407752	0.050000	105.000000	target	4.000000	na
91.457752	0.049380	105.000000	target	5.000000	na
91.507132	0.050215	105.000000	target	6.000000	na
91.557346	0.050408	105.000000	target	7.000000	na
91.607754	0.049991	105.000000	target	8.000000	na
91.657746	0.050002	105.000000	target	9.000000	na
91.707748	0.050000	105.000000	target	10.000000	na
91.757748	0.049735	105.000000	target	11.000000	na
91.807483	0.050170	105.000000	target	12.000000	na
91.857653	0.049657	105.000000	target	13.000000	na
91.907310	0.050432	105.000000	target	14.000000	na
91.957743	0.053674	105.000000	target	15.000000	91.988936
92.011417	0.046340	105.000000	target	16.000000	na
92.057757	0.049986	106.000000	nontarget	1.000000	92.064191
92.107743	0.049351	106.000000	nontarget	2.000000	na
92.157094	0.050659	106.000000	nontarget	3.000000	na
92.207752	0.050007	106.000000	nontarget	4.000000	na
92.257759	0.049909	106.000000	nontarget	5.000000	na
92.307668	0.050075	106.000000	nontarget	6.000000	na
92.357743	0.049996	106.000000	nontarget	7.000000	na
92.407739	0.049233	106.000000	nontarget	8.000000	na
92.456972	0.050910	106.000000	nontarget	9.000000	na
92.507881	0.049291	106.000000	nontarget	10.000000	na
92.557172	0.049902	106.000000	nontarget	11.000000	na
92.607075	0.050790	106.000000	nontarget	12.000000	na
92.657865	0.049912	106.000000	nontarget	13.000000	na
92.707777	0.049492	106.000000	nontarget	14.000000	na
92.757268	0.050466	106.000000	nontarget	15.000000	na
92.807734	0.050103	106.000000	nontarget	16.000000	na
92.857837	0.049899	107.000000	nontarget	1.000000	na
92.907737	0.049517	107.000000	nontarget	2.000000	na
92.957253	0.052387	107.000000	nontarget	3.000000	92.985529
93.009640	0.048117	107.000000	nontarget	4.000000	na
93.057756	0.049972	107.000000	nontarget	5.000000	na
93.107728	0.050003	107.000000	nontarget	6.000000	na
93.157732	0.050195	107.000000	nontarget	7.000000	na
93.207927	0.049802	107.000000	nontarget	8.000000	na
93.257729	0.049936	107.000000	nontarget	9.000000	na
93.307665	0.049542	107.000000	nontarget	10.000000	na
93.357207	0.050517	107.000000	nontarget	11.000000	na
93.407724	0.049999	107.000000	nontarget	12.000000	na
93.457722	0.049997	107.000000	nontarget	13.000000	na
93.507720	0.049593	107.000000	nontarget	14.000000	na
93.557312	0.050146	107.000000	nontarget	15.000000	na
93.607458	0.050363	107.000000	nontarget	16.000000	na
93.657821	0.049939	108.000000	nontarget	1.000000	na
93.707760	0.049705	108.000000	nontarget	2.000000	na
93.757465	0.050284	108.000000	nontarget	3.000000	na
93.807749	0.050090	108.000000	nontarget	4.000000	na
93.857839	0.049927	108.000000	nontarget	5.000000	na
93.907766	0.049952	108.000000	nontarget	6.000000	na
93.957718	0.050026	108.000000	nontarget	7.000000	na
94.007744	0.049983	108.000000	nontarget	8.000000	na
94.057728	0.050200	108.000000	nontarget	9.000000	94.064406
94.107927	0.049788	108.000000	nontarget	10.000000	na
94.157715	0.049804	108.000000	nontarget	11.000000	na
94.207519	0.049716	108.000000	nontarget	12.000000	na
94.257235	0.050615	108.000000	nontarget	13.000000	na
94.307849	0.049869	108.000000	nontarget	14.000000	na
94.357718	0.049935	108.000000	nontarget	15.000000	na
94.407653	0.049793	108.000000	nontarget	16.000000	na
94.457446	0.049904	109.000000	nontarget	1.000000	na
94.507351	0.050328	109.000000	nontarget	2.000000	na
94.557679	0.049472	109.000000	nontarget	3.000000	na
94.607150	0.050574	109.000000	nontarget	4.000000	na
94.657724	0.049730	109.000000	nontarget	5.000000	na
94.707455	0.049971	109.000000	nontarget	6.000000	na
94.757426	0.049693	109.000000	nontarget	7.000000	na
94.807119	0.050587	109.000000	nontarget	8.000000	na
94.857706	0.049960	109.000000	nontarget	9.000000	na
94.907666	0.052547	109.000000	nontarget	10.000000	na
94.960213	0.047037	109.000000	nontarget	11.000000	94.966689
95.007250	0.049846	109.000000	nontarget	12.000000	na
95.057097	0.050624	109.000000	nontarget	13.000000	na
95.107721	0.049914	109.000000	nontarget	14.000000	na
95.157635	0.049585	109.000000	nontarget	15.000000	na
95.207220	0.050266	109.000000	nontarget	16.000000	na
95.257486	0.050220	110.000000	nontarget	1.000000	na
95.307706	0.049718	110.000000	nontarget	2.000000	na
95.357424	0.050274	110.000000	nontarget	3.000000	na
95.407698	0.049980	110.000000	nontarget	4.000000	na
95.457678	0.049474	110.000000	nontarget	5.000000	na
95.507152	0.050248	110.000000	nontarget	6.000000	na
95.557399	0.050296	110.000000	nontarget	7.000000	na
95.607695	0.049655	110.000000	nontarget	8.000000	na
95.657350	0.050334	110.000000	nontarget	9.000000	na
95.707684	0.050018	110.000000	nontarget	10.000000	na
95.757702	0.049999	110.000000	nontarget	11.000000	na
95.807701	0.049453	110.000000	nontarget	12.000000	na
95.857154	0.050146	110.000000	nontarget	13.000000	na
95.907300	0.050582	110.000000	nontarget	14.000000	na
95.957883	0.049824	110.000000	nontarget	15.000000	na
96.007707	0.049938	110.000000	nontarget	16.000000	na
96.057645	0.050068	111.000000	nontarget	1.000000	na
96.107713	0.050089	111.000000	nontarget	2.000000	96.138723
96.157802	0.049546	111.000000	nontarget	3.000000	na
96.207349	0.049446	111.000000	nontarget	4.000000	na
96.256794	0.050891	111.000000	nontarget	5.000000	na
96.307685	0.050154	111.000000	nontarget	6.000000	na
96.357839	0.049842	111.000000	nontarget	7.000000	na
96.407682	0.049672	111.000000	nontarget	8.000000	na
96.457353	0.050540	111.000000	nontarget	9.000000	na
96.507893	0.049819	111.000000	nontarget	10.000000	na
96.557713	0.049968	111.000000	nontarget	11.000000	na
96.607681	0.049998	111.000000	nontarget	12.000000	na
96.657679	0.049990	111.000000	nontarget	13.000000	na
96.707669	0.049440	111.000000	nontarget	14.000000	na
96.757109	0.050568	111.000000	nontarget	15.000000	na
96.807677	0.049465	111.000000	nontarget	16.000000	na
96.857142	0.050349	112.000000	nontarget	1.000000	na
96.907490	0.050285	112.000000	nontarget	2.000000	96.931383
96.957776	0.051046	112.000000	nontarget	3.000000	na
97.008822	0.048410	112.000000	nontarget	4.000000	na
97.057232	0.050452	112.000000	nontarget	5.000000	na
97.107684	0.050006	112.000000	nontarget	6.000000	na
97.157690	0.050015	112.000000	nontarget	7.000000	na
97.207705	0.050182	112.000000	nontarget	8.000000	na
97.257886	0.049366	112.000000	nontarget	9.000000	na
97.307252	0.050428	112.000000	nontarget	10.000000	na
97.357680	0.049420	112.000000	nontarget	11.000000	na
97.407101	0.050506	112.000000	nontarget	12.000000	na
97.457606	0.050073	112.000000	nontarget	13.000000	na
97.507679	0.049545	112.000000	nontarget	14.000000	na
97.557224	0.050452	112.000000	nontarget	15.000000	na
97.607675	0.050248	112.000000	nontarget	16.000000	na
97.657924	0.049294	113.000000	nontarget	1.000000	na
97.707218	0.050641	113.000000	nontarget	2.000000	na
97.757858	0.049840	113.000000	nontarget	3.000000	na
97.807698	0.049895	113.000000	nontarget	4.000000	97.843505
97.857593	0.049499	113.000000	nontarget	5.000000	na
97.907092	0.050609	113.000000	nontarget	6.000000	na
97.957701	0.050308	113.000000	nontarget	7.000000	na
98.008009	0.049774	113.000000	nontarget	8.000000	na
98.057783	0.050283	113.000000	nontarget	9.000000	na
98.108066	0.049645	113.000000	nontarget	10.000000	na
98.157711	0.049546	113.000000	nontarget	11.000000	na
98.207257	0.050429	113.000000	nontarget	12.000000	na
98.257686	0.049502	113.000000	nontarget	13.000000	na
98.307188	0.050676	113.000000	nontarget	14.000000	na
98.357864	0.049796	113.000000	nontarget	15.000000	na
98.407660	0.050002	113.000000	nontarget	16.000000	na
98.457662	0.050095	114.000000	nontarget	1.000000	na
98.507758	0.049931	114.000000	nontarget	2.000000	na
98.557689	0.049970	114.000000	nontarget	3.000000	na
98.607659	0.049948	114.000000	nontarget	4.000000	na
98.657607	0.050187	114.000000	nontarget	5.000000	na
98.707794	0.049505	114.000000	nontarget	6.000000	na
98.757299	0.050359	114.000000	nontarget	7.000000	98.776463
98.807659	0.049563	114.000000	nontarget	8.000000	na
98.857222	0.050684	114.000000	nontarget	9.000000	na
98.907906	0.049298	114.000000	nontarget	10.000000	na
98.957204	0.050270	114.000000	nontarget	11.000000	na
99.007473	0.050292	114.000000	nontarget	12.000000	na
99.057766	0.049418	114.000000	nontarget	13.000000	na
99.107183	0.050894	114.000000	nontarget	14.000000	na
99.158077	0.049580	114.000000	nontarget	15.000000	na
99.207657	0.050021	114.000000	nontarget	16.000000	na
99.257678	0.049977	115.000000	nontarget	1.000000	na
99.307654	0.049971	115.000000	nontarget	2.000000	na
99.357625	0.050145	115.000000	nontarget	3.000000	na
99.407771	0.049973	115.000000	nontarget	4.000000	99.414356
99.457744	0.050020	115.000000	nontarget	5.000000	na
99.507764	0.049884	115.000000	nontarget	6.000000	na
99.557647	0.050275	115.000000	nontarget	7.000000	na
99.607922	0.049723	115.000000	nontarget	8.000000	na
99.657645	0.050046	115.000000	nontarget	9.000000	na
99.707691	0.050220	115.000000	nontarget	10.000000	na
99.757911	0.049737	115.000000	nontarget	11.000000	na
99.807648	0.050034	115.000000	nontarget	12.000000	na
99.857682	0.050150	115.000000	nontarget	13.000000	na
99.907832	0.049524	115.000000	nontarget	14.000000	na
99.957356	0.050302	115.000000	nontarget	15.000000	na
100.007658	0.049978	115.000000	nontarget	16.000000	na
100.057636	0.050129	116.000000	nontarget	1.000000	na
100.107766	0.049680	116.000000	nontarget	2.000000	na
100.157445	0.055698	116.000000	nontarget	3.000000	na
100.213144	0.045009	116.000000	nontarget	4.000000	100.218662
100.258153	0.049580	116.000000	nontarget	5.000000	na
100.307732	0.049395	116.000000	nontarget	6.000000	na
100.357127	0.050501	116.000000	nontarget	7.000000	na
100.407628	0.050000	116.000000	nontarget	8.000000	na
100.457628	0.049490	116.000000	nontarget	9.000000	na
100.507117	0.050775	116.000000	nontarget	10.000000	na
100.557892	0.049518	116.000000	nontarget	11.000000	na
100.607410	0.050072	116.000000	nontarget	12.000000	na
100.657482	0.050371	116.000000	nontarget	13.000000	na
100.707853	0.049913	116.000000	nontarget	14.000000	na
100.757767	0.050265	116.000000	nontarget	15.000000	na
100.808032	0.049532	116.000000	nontarget	16.000000	na
100.857564	0.050047	117.000000	nontarget	1.000000	na
100.907611	0.050142	117.000000	nontarget	2.000000	na
100.957753	0.050542	117.000000	nontarget	3.000000	na
101.008295	0.049587	117.000000	nontarget	4.000000	101.014770
101.057882	0.049960	117.000000	nontarget	5.000000	na
101.107842	0.049780	117.000000	nontarget	6.000000	na
101.157622	0.050186	117.000000	nontarget	7.000000	na
101.207808	0.049931	117.000000	nontarget	8.000000	na
101.257739	0.049838	117.000000	nontarget	9.000000	na
101.307577	0.050138	117.000000	nontarget	10.000000	na
101.357715	0.050026	117.000000	nontarget	11.000000	na
101.407741	0.050082	117.000000	nontarget	12.000000	na
101.457823	0.049975	117.000000	nontarget	13.000000	na
101.507798	0.050186	117.000000	nontarget	14.000000	na
101.557984	0.049230	117.000000	nontarget	15.000000	na
101.607214	0.050523	117.000000	nontarget	16.000000	na
101.657737	0.049520	118.000000	nontarget	1.000000	na
101.707257	0.050457	118.000000	nontarget	2.000000	na
101.757714	0.049993	118.000000	nontarget	3.000000	na
101.807707	0.050019	118.000000	nontarget	4.000000	na
101.857727	0.049996	118.000000	nontarget	5.000000	na
101.907722	0.050868	118.000000	nontarget	6.000000	na
101.958590	0.048568	118.000000	nontarget	7.000000	101.965248
102.007157	0.049896	118.000000	nontarget	8.000000	na
102.057054	0.050769	118.000000	nontarget	9.000000	na
102.107823	0.050300	118.000000	nontarget	10.000000	na
102.158122	0.049611	118.000000	nontarget	11.000000	na
102.207733	0.050340	118.000000	nontarget	12.000000	na
102.258073	0.049041	118.000000	nontarget	13.000000	na
102.307114	0.050491	118.000000	nontarget	14.000000	na
102.357605	0.049497	118.000000	nontarget	15.000000	na
102.407101	0.050498	118.000000	nontarget	16.000000	na
102.457599	0.050103	119.000000	nontarget	1.000000	na
102.507702	0.050330	119.000000	nontarget	2.000000	na
102.558033	0.049194	119.000000	nontarget	3.000000	na
102.607227	0.050480	119.000000	nontarget	4.000000	na
102.657707	0.050092	119.000000	nontarget	5.000000	na
102.707799	0.049900	119.000000	nontarget	6.000000	na
102.757699	0.049900	119.000000	nontarget	7.000000	na
102.807599	0.049861	119.000000	nontarget	8.000000	na
102.857460	0.050340	119.000000	nontarget	9.000000	102.865203
102.907799	0.050260	119.000000	nontarget	10.000000	na
102.958060	0.049359	119.000000	nontarget	11.000000	na
103.007419	0.049941	119.000000	nontarget	12.000000	na
103.057360	0.050471	119.000000	nontarget	13.000000	na
103.107831	0.049871	119.000000	nontarget	14.000000	na
103.157703	0.049251	119.000000	nontarget	15.000000	na
103.206954	0.050741	119.000000	nontarget	16.000000	na
103.257695	0.049993	120.000000	target	1.000000	na
103.307687	0.049983	120.000000	target	2.000000	na
103.357670	0.049400	120.000000	target	3.000000	na
103.407071	0.050751	120.000000	target	4.000000	na
103.457821	0.049887	120.000000	target	5.000000	na
103.507708	0.050256	120.000000	target	6.000000	na
103.557964	0.049208	120.000000	target	7.000000	na
103.607172	0.050514	120.000000	target	8.000000	na
103.657686	0.050008	120.000000	target	9.000000	na
103.707694	0.049938	120.000000	target	10.000000	na
103.757632	0.049672	120.000000	target	11.000000	na
103.807304	0.050589	120.000000	target	12.000000	na
103.857893	0.050050	120.000000	target	13.000000	na
103.907943	0.049436	120.000000	target	14.000000	103.914301
103.957379	0.050327	120.000000	target	15.000000	na
104.007706	0.050275	120.000000	target	16.000000	na
104.057981	0.049785	121.000000	nontarget	1.000000	104.064579
104.107766	0.050109	121.000000	nontarget	2.000000	na
104.157876	0.049953	121.000000	nontarget	3.000000	na
104.207829	0.049863	121.000000	nontarget	4.000000	na
104.257692	0.050003	121.000000	nontarget	5.000000	na
104.307695	0.049986	121.000000	nontarget	6.000000	na
104.357681	0.050251	121.000000	nontarget	7.000000	na
104.407931	0.049598	121.000000	nontarget	8.000000	na
104.457529	0.050216	121.000000	nontarget	9.000000	na
104.507745	0.049658	121.000000	nontarget	10.000000	na
104.557403	0.050179	121.000000	nontarget	11.000000	na
104.607582	0.050217	121.000000	nontarget	12.000000	na
