onset	duration	trial_number	stim_type	trial_type	accuracy	response_time
13.032691	1.000144	1.000000	scene	nontarget	correct	0.668093
14.032835	0.999733	1.000000	fixation	nontarget	na	na
15.032568	0.999342	2.000000	scene	nontarget	correct	0.468511
16.031910	1.000581	2.000000	fixation	nontarget	na	na
17.032491	1.000005	3.000000	scene	target	correct	 NaN
18.032496	1.000008	3.000000	fixation	target	na	na
19.032504	0.998860	4.000000	scene	target	correct	 NaN
20.031364	1.000037	4.000000	fixation	target	na	na
21.031401	0.999977	5.000000	scene	nontarget	correct	0.511270
22.031378	1.000100	5.000000	fixation	nontarget	na	na
23.031478	1.000185	6.000000	scene	nontarget	correct	0.597110
24.031662	1.000114	6.000000	fixation	nontarget	na	na
25.031776	1.000204	7.000000	scene	nontarget	correct	0.511309
26.031981	0.999208	7.000000	fixation	nontarget	na	na
27.031189	1.000208	8.000000	scene	nontarget	correct	0.681575
28.031397	1.000197	8.000000	fixation	nontarget	na	na
29.031594	1.000191	9.000000	scene	nontarget	correct	0.652316
30.031785	0.999163	9.000000	fixation	nontarget	na	na
31.030948	1.000163	10.000000	scene	nontarget	correct	0.591725
32.031111	1.000223	10.000000	fixation	nontarget	na	na
33.031334	1.000103	11.000000	scene	nontarget	correct	0.759425
34.031437	0.999224	11.000000	fixation	nontarget	na	na
35.030660	1.000338	12.000000	scene	nontarget	correct	0.522490
36.030998	1.000183	12.000000	fixation	nontarget	na	na
37.031181	0.999134	13.000000	scene	nontarget	correct	0.913795
38.030315	0.999975	13.000000	fixation	nontarget	na	na
39.030290	1.000690	14.000000	scene	nontarget	correct	0.670086
40.030980	1.000187	14.000000	fixation	nontarget	na	na
41.031167	0.999189	15.000000	scene	nontarget	correct	0.582718
42.030356	1.000007	15.000000	fixation	nontarget	na	na
43.030363	1.000406	16.000000	scene	nontarget	correct	0.635577
44.030769	0.999200	16.000000	fixation	nontarget	na	na
45.029969	1.000015	17.000000	scene	nontarget	correct	0.637678
46.029984	1.000016	17.000000	fixation	nontarget	na	na
47.030001	1.000503	18.000000	scene	nontarget	correct	0.681091
48.030504	0.999235	18.000000	fixation	nontarget	na	na
49.029739	1.000561	19.000000	scene	nontarget	correct	0.572163
50.030301	0.999451	19.000000	fixation	nontarget	na	na
51.029752	1.000076	20.000000	scene	nontarget	correct	0.525782
52.029828	1.000316	20.000000	fixation	nontarget	na	na
53.030145	0.999939	21.000000	scene	nontarget	correct	0.586446
54.030084	0.999984	21.000000	fixation	nontarget	na	na
55.030068	1.000023	22.000000	scene	nontarget	correct	0.741685
56.030091	0.999032	22.000000	fixation	nontarget	na	na
57.029123	0.987518	23.000000	scene	nontarget	correct	0.730245
58.016641	0.996162	23.000000	fixation	nontarget	na	na
59.012803	1.000154	24.000000	scene	nontarget	correct	0.778115
60.012956	1.000057	24.000000	fixation	nontarget	na	na
61.013014	1.000027	25.000000	scene	nontarget	correct	0.624648
62.013041	1.000014	25.000000	fixation	nontarget	na	na
63.013055	0.999037	26.000000	scene	nontarget	correct	0.671303
64.012091	0.987259	26.000000	fixation	nontarget	na	na
64.999350	0.995659	27.000000	scene	nontarget	correct	0.723326
65.995009	0.987335	27.000000	fixation	nontarget	na	na
66.982345	0.996127	28.000000	scene	nontarget	correct	0.647196
67.978472	0.987366	28.000000	fixation	nontarget	na	na
68.965838	0.996090	29.000000	scene	nontarget	correct	0.571596
69.961928	0.987339	29.000000	fixation	nontarget	na	na
70.949266	0.996210	30.000000	scene	nontarget	correct	0.565146
71.945476	0.987117	30.000000	fixation	nontarget	na	na
72.932593	0.996215	31.000000	scene	nontarget	correct	0.737094
73.928808	0.987366	31.000000	fixation	nontarget	na	na
74.916174	0.995198	32.000000	scene	nontarget	correct	0.636061
75.911372	0.987353	32.000000	fixation	nontarget	na	na
76.898725	0.996213	33.000000	scene	nontarget	correct	0.744474
77.894938	0.987352	33.000000	fixation	nontarget	na	na
78.882291	0.996170	34.000000	scene	nontarget	correct	0.813916
79.878460	0.987368	34.000000	fixation	nontarget	na	na
80.865828	0.995198	35.000000	scene	nontarget	correct	0.678226
81.861026	0.988622	35.000000	fixation	nontarget	na	na
82.849648	0.995264	36.000000	scene	nontarget	correct	1.047959
83.844912	0.987330	36.000000	fixation	nontarget	na	na
84.832242	0.995213	37.000000	scene	nontarget	correct	0.731743
85.827455	0.988638	37.000000	fixation	nontarget	na	na
86.816094	0.994820	38.000000	scene	target	correct	 NaN
87.810914	0.988520	38.000000	fixation	target	na	na
88.799433	0.995203	39.000000	scene	nontarget	correct	0.404911
89.794637	0.987354	39.000000	fixation	nontarget	na	na
90.781990	0.995106	40.000000	scene	nontarget	correct	0.775305
91.777096	0.988434	40.000000	fixation	nontarget	na	na
92.765530	0.995200	41.000000	scene	nontarget	correct	0.559970
93.760730	0.988465	41.000000	fixation	nontarget	na	na
94.749195	0.995192	42.000000	scene	nontarget	correct	0.566382
95.744387	0.988587	42.000000	fixation	nontarget	na	na
96.732974	0.994079	43.000000	scene	target	incorrect	0.740276
97.727053	0.988423	43.000000	fixation	target	na	na
98.715476	0.995225	44.000000	scene	nontarget	correct	0.721385
99.710701	0.988536	44.000000	fixation	nontarget	na	na
100.699237	0.994082	45.000000	scene	nontarget	correct	0.888863
101.693319	0.988458	45.000000	fixation	nontarget	na	na
102.681778	0.994711	46.000000	scene	nontarget	correct	0.579997
103.676488	0.989636	46.000000	fixation	nontarget	na	na
104.666125	0.994092	47.000000	scene	nontarget	correct	0.772363
105.660217	0.988470	47.000000	fixation	nontarget	na	na
106.648686	0.994047	48.000000	scene	nontarget	correct	0.819338
107.642734	0.989701	48.000000	fixation	nontarget	na	na
108.632435	0.993675	49.000000	scene	nontarget	correct	0.777317
109.626109	0.989709	49.000000	fixation	nontarget	na	na
110.615819	0.993415	50.000000	scene	nontarget	correct	0.871717
111.609234	0.989778	50.000000	fixation	nontarget	na	na
112.599011	0.994080	51.000000	scene	nontarget	correct	0.575678
113.593092	0.989561	51.000000	fixation	nontarget	na	na
114.582652	0.992945	52.000000	scene	nontarget	correct	0.502336
115.575598	0.989348	52.000000	fixation	nontarget	na	na
116.564946	0.994055	53.000000	scene	nontarget	correct	0.694956
117.559001	0.989493	53.000000	fixation	nontarget	na	na
118.548494	0.994071	54.000000	scene	nontarget	correct	0.708225
119.542565	0.989774	54.000000	fixation	nontarget	na	na
120.532339	0.992927	55.000000	scene	nontarget	correct	0.724767
121.525267	0.989603	55.000000	fixation	nontarget	na	na
122.514870	0.994114	56.000000	scene	nontarget	correct	0.593853
123.508983	0.989606	56.000000	fixation	nontarget	na	na
124.498589	0.993005	57.000000	scene	nontarget	correct	0.657242
125.491594	0.990913	57.000000	fixation	nontarget	na	na
126.482507	0.992959	58.000000	scene	nontarget	correct	0.914034
127.475465	0.989484	58.000000	fixation	nontarget	na	na
128.464950	0.993712	59.000000	scene	nontarget	correct	0.773338
129.458662	0.989571	59.000000	fixation	nontarget	na	na
130.448233	0.992951	60.000000	scene	nontarget	correct	0.799766
131.441184	0.990723	60.000000	fixation	nontarget	na	na
132.431907	0.992991	61.000000	scene	nontarget	correct	0.592679
133.424899	0.990878	61.000000	fixation	nontarget	na	na
134.415776	0.991838	62.000000	scene	nontarget	correct	0.646398
135.407614	0.990709	62.000000	fixation	nontarget	na	na
136.398323	0.992939	63.000000	scene	target	incorrect	0.868592
137.391262	0.990853	63.000000	fixation	target	na	na
138.382115	0.991846	64.000000	scene	nontarget	correct	0.844447
139.373961	0.990753	64.000000	fixation	nontarget	na	na
140.364714	0.992960	65.000000	scene	nontarget	correct	0.671805
141.357673	0.990751	65.000000	fixation	nontarget	na	na
142.348424	0.991826	66.000000	scene	nontarget	correct	0.813677
143.340251	0.992005	66.000000	fixation	nontarget	na	na
144.332255	0.991249	67.000000	scene	target	correct	 NaN
145.323505	0.992003	67.000000	fixation	target	na	na
146.315508	0.991841	68.000000	scene	nontarget	correct	0.533896
147.307348	0.990669	68.000000	fixation	nontarget	na	na
148.298017	0.992641	69.000000	scene	nontarget	correct	0.647389
149.290657	0.990725	69.000000	fixation	nontarget	na	na
150.281383	0.991844	70.000000	scene	nontarget	correct	0.787791
151.273226	0.991750	70.000000	fixation	nontarget	na	na
152.264976	0.991852	71.000000	scene	nontarget	correct	0.672640
153.256828	0.992006	71.000000	fixation	nontarget	na	na
154.248834	0.990699	72.000000	scene	target	correct	 NaN
155.239533	0.991861	72.000000	fixation	target	na	na
156.231394	0.991812	73.000000	scene	nontarget	correct	0.340360
157.223206	0.991765	73.000000	fixation	nontarget	na	na
158.214971	0.991782	74.000000	scene	nontarget	correct	0.643138
159.206752	0.992011	74.000000	fixation	nontarget	na	na
160.198764	0.990697	75.000000	scene	nontarget	correct	0.588301
161.189461	0.991856	75.000000	fixation	nontarget	na	na
162.181317	0.991242	76.000000	scene	target	correct	 NaN
163.172559	0.991860	76.000000	fixation	target	na	na
164.164419	0.991944	77.000000	scene	nontarget	correct	0.486524
165.156363	0.991833	77.000000	fixation	nontarget	na	na
166.148197	0.990695	78.000000	scene	nontarget	correct	0.576956
167.138892	0.991837	78.000000	fixation	nontarget	na	na
168.130729	0.991807	79.000000	scene	nontarget	correct	0.617598
169.122535	0.991864	79.000000	fixation	nontarget	na	na
170.114399	0.990707	80.000000	scene	nontarget	correct	0.734771
171.105107	0.992981	80.000000	fixation	nontarget	na	na
172.098088	0.990721	81.000000	scene	nontarget	correct	0.734528
173.088808	0.993102	81.000000	fixation	nontarget	na	na
174.081910	0.989576	82.000000	scene	nontarget	correct	0.662713
175.071486	0.992954	82.000000	fixation	nontarget	na	na
176.064441	0.990618	83.000000	scene	nontarget	correct	0.718397
177.055058	0.992982	83.000000	fixation	nontarget	na	na
178.048040	0.990845	84.000000	scene	target	correct	 NaN
179.038885	0.991861	84.000000	fixation	target	na	na
180.030746	0.990656	85.000000	scene	nontarget	correct	0.542081
181.021402	0.992916	85.000000	fixation	nontarget	na	na
182.014318	0.990881	86.000000	scene	nontarget	correct	0.800904
183.005199	0.992670	86.000000	fixation	nontarget	na	na
183.997869	0.990867	87.000000	scene	nontarget	correct	0.719936
184.988736	0.991786	87.000000	fixation	nontarget	na	na
185.980521	0.990705	88.000000	scene	nontarget	correct	0.610961
186.971226	0.993523	88.000000	fixation	nontarget	na	na
187.964750	0.989579	89.000000	scene	nontarget	correct	0.489018
188.954328	0.992994	89.000000	fixation	nontarget	na	na
189.947323	0.990762	90.000000	scene	nontarget	correct	0.652803
190.938084	5.982360	90.000000	fixation	nontarget	na	na
196.920444	0.994649	91.000000	face	nontarget	correct	0.593000
197.915093	0.988436	91.000000	fixation	nontarget	na	na
198.903529	0.994111	92.000000	face	nontarget	correct	0.540365
199.897640	0.989785	92.000000	fixation	nontarget	na	na
200.887425	0.992948	93.000000	face	nontarget	correct	0.546221
201.880373	0.989567	93.000000	fixation	nontarget	na	na
202.869940	0.994096	94.000000	face	nontarget	correct	0.607833
203.864036	0.989804	94.000000	fixation	nontarget	na	na
204.853840	0.994007	95.000000	face	target	correct	 NaN
205.847847	0.988488	95.000000	fixation	target	na	na
206.836335	0.994089	96.000000	face	nontarget	correct	0.456708
207.830423	0.989739	96.000000	fixation	nontarget	na	na
208.820162	0.994115	97.000000	face	nontarget	correct	0.706587
209.814278	0.988481	97.000000	fixation	nontarget	na	na
210.802759	0.993989	98.000000	face	nontarget	correct	0.848809
211.796748	0.989760	98.000000	fixation	nontarget	na	na
212.786508	0.993962	99.000000	face	nontarget	correct	0.729713
213.780470	0.989736	99.000000	fixation	nontarget	na	na
214.770206	0.994104	100.000000	face	nontarget	correct	0.608546
215.764310	0.988664	100.000000	fixation	nontarget	na	na
216.752974	0.994094	101.000000	face	target	correct	 NaN
217.747068	0.988444	101.000000	fixation	target	na	na
218.735513	0.995202	102.000000	face	nontarget	correct	0.536111
219.730714	0.988637	102.000000	fixation	nontarget	na	na
220.719352	0.994072	103.000000	face	nontarget	correct	0.559193
221.713423	0.988435	103.000000	fixation	nontarget	na	na
222.701858	0.995188	104.000000	face	nontarget	correct	0.646402
223.697046	0.988643	104.000000	fixation	nontarget	na	na
224.685689	0.995247	105.000000	face	nontarget	correct	0.789708
225.680936	0.987306	105.000000	fixation	nontarget	na	na
226.668242	0.995189	106.000000	face	nontarget	correct	0.520850
227.663431	0.988671	106.000000	fixation	nontarget	na	na
228.652102	0.995214	107.000000	face	nontarget	correct	0.796180
229.647315	0.987326	107.000000	fixation	nontarget	na	na
230.634641	0.996247	108.000000	face	nontarget	correct	0.734481
231.630888	0.987338	108.000000	fixation	nontarget	na	na
232.618225	0.995585	109.000000	face	nontarget	correct	0.710251
233.613810	0.987338	109.000000	fixation	nontarget	na	na
234.601148	0.995644	110.000000	face	target	correct	 NaN
235.596792	0.988518	110.000000	fixation	target	na	na
236.585310	0.995234	111.000000	face	nontarget	correct	0.564372
237.580544	0.987358	111.000000	fixation	nontarget	na	na
238.567902	0.996135	112.000000	face	nontarget	correct	0.648053
239.564037	0.987341	112.000000	fixation	nontarget	na	na
240.551378	0.995224	113.000000	face	nontarget	correct	0.643167
241.546602	0.987351	113.000000	fixation	nontarget	na	na
242.533953	0.996396	114.000000	face	nontarget	correct	1.035988
243.530349	0.987361	114.000000	fixation	nontarget	na	na
244.517711	0.996196	115.000000	face	nontarget	correct	0.690253
245.513907	1.000247	115.000000	fixation	nontarget	na	na
246.514154	0.999739	116.000000	face	nontarget	correct	0.707609
247.513892	1.000270	116.000000	fixation	nontarget	na	na
248.514162	0.999007	117.000000	face	nontarget	correct	0.796849
249.513169	0.987359	117.000000	fixation	nontarget	na	na
250.500528	0.996642	118.000000	face	nontarget	correct	0.598936
251.497170	0.999998	118.000000	fixation	nontarget	na	na
252.497167	1.000081	119.000000	face	nontarget	correct	0.665318
253.497249	1.000113	119.000000	fixation	nontarget	na	na
254.497361	0.999249	120.000000	face	nontarget	correct	0.602759
255.496611	1.000234	120.000000	fixation	nontarget	na	na
256.496845	1.000271	121.000000	face	nontarget	correct	0.635275
257.497117	1.000122	121.000000	fixation	nontarget	na	na
258.497238	0.999831	122.000000	face	target	correct	 NaN
259.497070	1.000184	122.000000	fixation	target	na	na
260.497253	0.998869	123.000000	face	nontarget	correct	0.834140
261.496122	0.987275	123.000000	fixation	nontarget	na	na
262.483397	0.996122	124.000000	face	nontarget	correct	0.794032
263.479519	1.000742	124.000000	fixation	nontarget	na	na
264.480261	1.000162	125.000000	face	nontarget	correct	0.613646
265.480423	0.999827	125.000000	fixation	nontarget	na	na
266.480250	1.000140	126.000000	face	nontarget	correct	0.719819
267.480391	0.999150	126.000000	fixation	nontarget	na	na
268.479541	1.000653	127.000000	face	nontarget	correct	0.655965
269.480193	1.000198	127.000000	fixation	nontarget	na	na
270.480391	0.999128	128.000000	face	nontarget	correct	0.645622
271.479519	1.000033	128.000000	fixation	nontarget	na	na
272.479552	1.000032	129.000000	face	nontarget	correct	0.571885
273.479584	1.000142	129.000000	fixation	nontarget	na	na
274.479726	1.000406	130.000000	face	nontarget	incorrect	 NaN
275.480132	1.000235	130.000000	fixation	nontarget	na	na
276.480367	0.999166	131.000000	face	nontarget	correct	0.405838
277.479534	1.000596	131.000000	fixation	nontarget	na	na
278.480130	0.999970	132.000000	face	nontarget	correct	0.634061
279.480100	1.000237	132.000000	fixation	nontarget	na	na
280.480337	0.999161	133.000000	face	nontarget	correct	0.646175
281.479498	1.000069	133.000000	fixation	nontarget	na	na
282.479567	1.000075	134.000000	face	nontarget	correct	0.592670
283.479642	1.000181	134.000000	fixation	nontarget	na	na
284.479823	1.000039	135.000000	face	nontarget	correct	0.650848
285.479862	1.000201	135.000000	fixation	nontarget	na	na
286.480063	0.999155	136.000000	face	nontarget	correct	0.622923
287.479219	1.000187	136.000000	fixation	nontarget	na	na
288.479406	1.000131	137.000000	face	nontarget	correct	0.569969
289.479537	1.000012	137.000000	fixation	nontarget	na	na
290.479549	1.000132	138.000000	face	nontarget	correct	0.493093
291.479681	1.000134	138.000000	fixation	nontarget	na	na
292.479814	1.000048	139.000000	face	nontarget	correct	0.633641
293.479863	1.000256	139.000000	fixation	nontarget	na	na
294.480118	0.999752	140.000000	face	nontarget	correct	0.649874
295.479871	1.000224	140.000000	fixation	nontarget	na	na
296.480094	0.999171	141.000000	face	nontarget	correct	0.580431
297.479265	1.000590	141.000000	fixation	nontarget	na	na
298.479855	1.000125	142.000000	face	nontarget	correct	0.622994
299.479980	0.999860	142.000000	fixation	nontarget	na	na
300.479841	0.999183	143.000000	face	nontarget	correct	0.776830
301.479024	1.000177	143.000000	fixation	nontarget	na	na
302.479201	1.000140	144.000000	face	nontarget	correct	0.711444
303.479342	1.000188	144.000000	fixation	nontarget	na	na
304.479530	0.999971	145.000000	face	nontarget	correct	0.791344
305.479501	1.000014	145.000000	fixation	nontarget	na	na
306.479515	1.000061	146.000000	face	nontarget	correct	0.587076
307.479577	1.000033	146.000000	fixation	nontarget	na	na
308.479609	0.999617	147.000000	face	nontarget	correct	0.786348
309.479227	0.999953	147.000000	fixation	nontarget	na	na
310.479179	1.000169	148.000000	face	nontarget	correct	0.834247
311.479349	1.000169	148.000000	fixation	nontarget	na	na
312.479518	0.999493	149.000000	face	nontarget	correct	0.691911
313.479011	1.000219	149.000000	fixation	nontarget	na	na
314.479230	1.000199	150.000000	face	nontarget	correct	0.726388
315.479429	1.000222	150.000000	fixation	nontarget	na	na
316.479651	0.999865	151.000000	face	nontarget	correct	0.671061
317.479516	1.000194	151.000000	fixation	nontarget	na	na
318.479709	0.999209	152.000000	face	nontarget	correct	0.773934
319.478918	1.000226	152.000000	fixation	nontarget	na	na
320.479144	1.000232	153.000000	face	nontarget	correct	0.878862
321.479376	1.000149	153.000000	fixation	nontarget	na	na
322.479525	1.000032	154.000000	face	nontarget	correct	0.729827
323.479556	1.000032	154.000000	fixation	nontarget	na	na
324.479588	1.000026	155.000000	face	target	incorrect	0.656813
325.479614	0.999823	155.000000	fixation	target	na	na
326.479437	1.000079	156.000000	face	nontarget	correct	0.801112
327.479516	0.999042	156.000000	fixation	nontarget	na	na
328.478558	1.000431	157.000000	face	nontarget	correct	0.620723
329.478989	1.000244	157.000000	fixation	nontarget	na	na
330.479233	1.000123	158.000000	face	nontarget	correct	0.802794
331.479356	0.999083	158.000000	fixation	nontarget	na	na
332.478439	1.000599	159.000000	face	nontarget	correct	0.728178
333.479038	0.999942	159.000000	fixation	nontarget	na	na
334.478980	0.999150	160.000000	face	nontarget	correct	0.554686
335.478130	1.000197	160.000000	fixation	nontarget	na	na
336.478327	1.000427	161.000000	face	nontarget	correct	0.568696
337.478754	0.999162	161.000000	fixation	nontarget	na	na
338.477916	1.000771	162.000000	face	target	incorrect	0.676071
339.478686	0.999235	162.000000	fixation	target	na	na
340.477921	1.000786	163.000000	face	target	correct	 NaN
341.478707	0.999702	163.000000	fixation	target	na	na
342.478409	0.999491	164.000000	face	target	incorrect	0.447918
343.477900	1.000421	164.000000	fixation	target	na	na
344.478322	0.999929	165.000000	face	nontarget	correct	0.778397
345.478250	0.999889	165.000000	fixation	nontarget	na	na
346.478139	0.999676	166.000000	face	nontarget	correct	0.678846
347.477815	1.000025	166.000000	fixation	nontarget	na	na
348.477840	0.999984	167.000000	face	nontarget	correct	0.731490
349.477824	0.999990	167.000000	fixation	nontarget	na	na
350.477814	0.999980	168.000000	face	nontarget	correct	0.726714
351.477793	0.999993	168.000000	fixation	nontarget	na	na
352.477787	0.999969	169.000000	face	nontarget	correct	0.584095
353.477755	0.999995	169.000000	fixation	nontarget	na	na
354.477751	0.999220	170.000000	face	nontarget	correct	0.703805
355.476970	1.000428	170.000000	fixation	nontarget	na	na
356.477399	0.999622	171.000000	face	nontarget	incorrect	 NaN
357.477021	1.000339	171.000000	fixation	nontarget	na	na
358.477360	1.000267	172.000000	face	nontarget	correct	0.504544
359.477627	0.999702	172.000000	fixation	nontarget	na	na
360.477329	1.000253	173.000000	face	nontarget	correct	0.699981
361.477582	0.999607	173.000000	fixation	nontarget	na	na
362.477189	0.999933	174.000000	face	target	correct	 NaN
363.477122	0.999954	174.000000	fixation	target	na	na
364.477076	0.999884	175.000000	face	nontarget	correct	0.415561
365.476960	0.999208	175.000000	fixation	nontarget	na	na
366.476168	1.000437	176.000000	face	nontarget	correct	0.705916
367.476605	0.999862	176.000000	fixation	nontarget	na	na
368.476467	1.000030	177.000000	face	nontarget	incorrect	 NaN
369.476497	1.000250	177.000000	fixation	nontarget	na	na
370.476747	0.999836	178.000000	face	nontarget	correct	0.467794
371.476583	0.999939	178.000000	fixation	nontarget	na	na
372.476522	0.999912	179.000000	face	nontarget	correct	0.540373
373.476434	0.999900	179.000000	fixation	nontarget	na	na
374.476334	1.000209	180.000000	face	nontarget	correct	0.536389
375.476543	0.969586	180.000000	fixation	nontarget	na	na
