onset	duration	event	trial_number	trial_type	requested_SOA	actual_SOA	accuracy	resp1	resp2	rt1	rt2
8.014566	0.502000	fixation	1.000000	na	na	na	na	na	na	na	na
8.516566	1.498000	stimulus	1.000000	signal	0.650000	0.650000	signal_respond	left	no_response	0.512000	0.000000
10.014566	0.501000	fixation	2.000000	na	na	na	na	na	na	na	na
10.515566	1.499000	stimulus	2.000000	signal	0.600000	0.600000	correct	no_response	no_response	0.000000	0.000000
12.014566	0.501000	fixation	3.000000	na	na	na	na	na	na	na	na
12.515566	1.499000	stimulus	3.000000	no_signal	0.000000	0.000000	correct	right	no_response	0.915000	0.000000
14.014566	0.501000	fixation	4.000000	na	na	na	na	na	na	na	na
14.515566	1.499000	stimulus	4.000000	no_signal	0.000000	0.000000	correct	right	no_response	0.911000	0.000000
16.014566	0.501000	fixation	5.000000	na	na	na	na	na	na	na	na
16.515566	1.498000	stimulus	5.000000	no_signal	0.000000	0.000000	correct	left	no_response	0.880000	0.000000
18.013566	0.502000	fixation	6.000000	na	na	na	na	na	na	na	na
18.515566	1.498000	stimulus	6.000000	no_signal	0.000000	0.000000	correct	left	no_response	0.950000	0.000000
20.013566	0.502000	fixation	7.000000	na	na	na	na	na	na	na	na
20.515566	1.498000	stimulus	7.000000	no_signal	0.000000	0.000000	correct	left	no_response	1.130000	0.000000
22.013566	0.502000	fixation	8.000000	na	na	na	na	na	na	na	na
22.515566	1.498000	stimulus	8.000000	no_signal	0.000000	0.000000	correct	left	no_response	1.035000	0.000000
24.013566	0.502000	fixation	9.000000	na	na	na	na	na	na	na	na
24.515566	1.498000	stimulus	9.000000	no_signal	0.000000	0.000000	correct	right	no_response	1.150000	0.000000
26.013566	0.502000	fixation	10.000000	na	na	na	na	na	na	na	na
26.515566	1.498000	stimulus	10.000000	no_signal	0.000000	0.000000	correct	left	no_response	1.277000	0.000000
28.013566	0.501000	fixation	11.000000	na	na	na	na	na	na	na	na
28.514566	1.499000	stimulus	11.000000	no_signal	0.000000	0.000000	correct	left	no_response	1.318000	0.000000
30.013566	0.501000	fixation	12.000000	na	na	na	na	na	na	na	na
30.514566	1.499000	stimulus	12.000000	signal	0.650000	0.650000	correct	no_response	no_response	0.000000	0.000000
32.013566	0.501000	fixation	13.000000	na	na	na	na	na	na	na	na
32.514566	1.499000	stimulus	13.000000	no_signal	0.000000	0.000000	correct	right	no_response	0.767000	0.000000
34.013566	0.501000	fixation	14.000000	na	na	na	na	na	na	na	na
34.514566	1.498000	stimulus	14.000000	signal	0.700000	0.700000	correct	no_response	no_response	0.000000	0.000000
36.012566	0.502000	fixation	15.000000	na	na	na	na	na	na	na	na
36.514566	1.498000	stimulus	15.000000	no_signal	0.000000	0.000000	correct	left	no_response	0.748000	0.000000
38.012566	0.502000	fixation	16.000000	na	na	na	na	na	na	na	na
38.514566	1.498000	stimulus	16.000000	no_signal	0.000000	0.000000	correct	left	no_response	0.839000	0.000000
40.012566	0.502000	fixation	17.000000	na	na	na	na	na	na	na	na
40.514566	1.498000	stimulus	17.000000	no_signal	0.000000	0.000000	correct	right	no_response	1.361000	0.000000
42.012566	0.502000	fixation	18.000000	na	na	na	na	na	na	na	na
42.514566	1.498000	stimulus	18.000000	no_signal	0.000000	0.000000	correct	left	no_response	0.511000	0.000000
44.012566	0.501000	fixation	19.000000	na	na	na	na	na	na	na	na
44.513566	1.499000	stimulus	19.000000	no_signal	0.000000	0.000000	correct	right	no_response	1.106000	0.000000
46.012566	0.501000	fixation	20.000000	na	na	na	na	na	na	na	na
46.513566	1.499000	stimulus	20.000000	no_signal	0.000000	0.000000	correct	left	no_response	1.051000	0.000000
48.012566	0.501000	fixation	21.000000	na	na	na	na	na	na	na	na
48.513566	1.499000	stimulus	21.000000	no_signal	0.000000	0.000000	correct	right	no_response	1.211000	0.000000
50.012566	0.501000	fixation	22.000000	na	na	na	na	na	na	na	na
50.513566	1.498000	stimulus	22.000000	no_signal	0.000000	0.000000	not_quick_enough	no_response	no_response	0.000000	0.000000
52.011566	0.502000	fixation	23.000000	na	na	na	na	na	na	na	na
52.513566	1.498000	stimulus	23.000000	no_signal	0.000000	0.000000	correct	left	no_response	0.446000	0.000000
54.011566	0.502000	fixation	24.000000	na	na	na	na	na	na	na	na
54.513566	1.498000	stimulus	24.000000	no_signal	0.000000	0.000000	correct	right	no_response	0.576000	0.000000
56.011566	0.502000	fixation	25.000000	na	na	na	na	na	na	na	na
56.513566	1.498000	stimulus	25.000000	signal	0.750000	0.750000	signal_respond	left	no_response	0.754000	0.000000
58.011566	0.502000	fixation	26.000000	na	na	na	na	na	na	na	na
58.513566	1.498000	stimulus	26.000000	no_signal	0.000000	0.000000	correct	left	no_response	1.042000	0.000000
60.011566	0.501000	fixation	27.000000	na	na	na	na	na	na	na	na
60.512566	1.499000	stimulus	27.000000	no_signal	0.000000	0.000000	correct	left	no_response	1.125000	0.000000
62.011566	0.501000	fixation	28.000000	na	na	na	na	na	na	na	na
62.512566	1.499000	stimulus	28.000000	no_signal	0.000000	0.000000	correct	left	no_response	1.127000	0.000000
64.011566	0.501000	fixation	29.000000	na	na	na	na	na	na	na	na
64.512566	1.499000	stimulus	29.000000	signal	0.700000	0.700000	signal_respond	right	no_response	1.012000	0.000000
66.011566	0.501000	fixation	30.000000	na	na	na	na	na	na	na	na
66.512566	1.498000	stimulus	30.000000	signal	0.650000	0.650000	signal_respond	right	no_response	0.675000	0.000000
68.010566	0.502000	fixation	31.000000	na	na	na	na	na	na	na	na
68.512566	1.498000	stimulus	31.000000	no_signal	0.000000	0.000000	correct	left	no_response	1.171000	0.000000
70.010566	0.502000	fixation	32.000000	na	na	na	na	na	na	na	na
70.512566	1.498000	stimulus	32.000000	no_signal	0.000000	0.000000	correct	left	no_response	1.251000	0.000000
72.010566	0.502000	fixation	33.000000	na	na	na	na	na	na	na	na
72.512566	1.498000	stimulus	33.000000	signal	0.600000	0.600000	correct	no_response	no_response	0.000000	0.000000
74.010566	0.502000	fixation	34.000000	na	na	na	na	na	na	na	na
74.512566	1.498000	stimulus	34.000000	signal	0.650000	0.650000	signal_respond	right	no_response	0.864000	0.000000
76.010566	0.501000	fixation	35.000000	na	na	na	na	na	na	na	na
76.511566	1.499000	stimulus	35.000000	no_signal	0.000000	0.000000	correct	right	no_response	1.131000	0.000000
78.010566	0.501000	fixation	36.000000	na	na	na	na	na	na	na	na
78.511566	1.499000	stimulus	36.000000	no_signal	0.000000	0.000000	correct	right	no_response	1.190000	0.000000
80.010566	0.501000	fixation	37.000000	na	na	na	na	na	na	na	na
80.511566	1.499000	stimulus	37.000000	signal	0.600000	0.600000	correct	no_response	no_response	0.000000	0.000000
82.010566	0.501000	fixation	38.000000	na	na	na	na	na	na	na	na
82.511566	1.498000	stimulus	38.000000	no_signal	0.000000	0.000000	correct	right	no_response	0.842000	0.000000
84.009566	0.502000	fixation	39.000000	na	na	na	na	na	na	na	na
84.511566	1.498000	stimulus	39.000000	no_signal	0.000000	0.000000	correct	left	no_response	1.196000	0.000000
86.009566	0.502000	fixation	40.000000	na	na	na	na	na	na	na	na
86.511566	1.498000	stimulus	40.000000	no_signal	0.000000	0.000000	correct	right	no_response	1.426000	0.000000
88.009566	0.502000	fixation	41.000000	na	na	na	na	na	na	na	na
88.511566	1.498000	stimulus	41.000000	no_signal	0.000000	0.000000	incorrect	right	no_response	0.927000	0.000000
90.009566	0.502000	fixation	42.000000	na	na	na	na	na	na	na	na
90.511566	1.498000	stimulus	42.000000	no_signal	0.000000	0.000000	correct	right	no_response	0.753000	0.000000
92.009566	0.501000	fixation	43.000000	na	na	na	na	na	na	na	na
92.510566	1.499000	stimulus	43.000000	signal	0.650000	0.650000	correct	no_response	no_response	0.000000	0.000000
94.009566	0.501000	fixation	44.000000	na	na	na	na	na	na	na	na
94.510566	1.499000	stimulus	44.000000	signal	0.700000	0.700000	signal_respond	left	no_response	0.954000	0.000000
96.009566	0.501000	fixation	45.000000	na	na	na	na	na	na	na	na
96.510566	1.499000	stimulus	45.000000	no_signal	0.000000	0.000000	correct	right	no_response	1.010000	0.000000
98.009566	0.501000	fixation	46.000000	na	na	na	na	na	na	na	na
98.510566	1.498000	stimulus	46.000000	no_signal	0.000000	0.000000	correct	right	no_response	1.452000	0.000000
100.008566	0.502000	fixation	47.000000	na	na	na	na	na	na	na	na
100.510566	1.498000	stimulus	47.000000	signal	0.650000	0.650000	correct	no_response	no_response	0.000000	0.000000
102.008566	0.502000	fixation	48.000000	na	na	na	na	na	na	na	na
102.510566	1.498000	stimulus	48.000000	signal	0.700000	0.700000	signal_respond	left	no_response	0.785000	0.000000
104.008566	0.502000	fixation	49.000000	na	na	na	na	na	na	na	na
104.510566	1.498000	stimulus	49.000000	no_signal	0.000000	0.000000	correct	left	no_response	1.031000	0.000000
106.008566	0.502000	fixation	50.000000	na	na	na	na	na	na	na	na
106.510566	1.498000	stimulus	50.000000	no_signal	0.000000	0.000000	not_quick_enough	no_response	no_response	0.000000	0.000000
108.008566	0.502000	fixation	51.000000	na	na	na	na	na	na	na	na
108.510566	1.498000	stimulus	51.000000	no_signal	0.000000	0.000000	correct	left	no_response	0.768000	0.000000
110.008566	0.501000	fixation	52.000000	na	na	na	na	na	na	na	na
110.509566	1.499000	stimulus	52.000000	no_signal	0.000000	0.000000	correct	right	no_response	0.885000	0.000000
112.008566	0.501000	fixation	53.000000	na	na	na	na	na	na	na	na
112.509566	1.499000	stimulus	53.000000	no_signal	0.000000	0.000000	correct	right	no_response	0.965000	0.000000
114.008566	0.501000	fixation	54.000000	na	na	na	na	na	na	na	na
114.509566	1.499000	stimulus	54.000000	signal	0.650000	0.650000	correct	no_response	no_response	0.000000	0.000000
116.008566	0.501000	fixation	55.000000	na	na	na	na	na	na	na	na
116.509566	1.498000	stimulus	55.000000	signal	0.700000	0.700000	signal_respond	left	no_response	0.654000	0.000000
118.007566	0.502000	fixation	56.000000	na	na	na	na	na	na	na	na
118.509566	1.498000	stimulus	56.000000	no_signal	0.000000	0.000000	incorrect	right	no_response	1.341000	0.000000
120.007566	0.502000	fixation	57.000000	na	na	na	na	na	na	na	na
120.509566	1.498000	stimulus	57.000000	no_signal	0.000000	0.000000	correct	right	no_response	0.700000	0.000000
122.007566	0.502000	fixation	58.000000	na	na	na	na	na	na	na	na
122.509566	1.498000	stimulus	58.000000	no_signal	0.000000	0.000000	correct	right	no_response	0.862000	0.000000
124.007566	0.501000	fixation	59.000000	na	na	na	na	na	na	na	na
124.508566	1.499000	stimulus	59.000000	no_signal	0.000000	0.000000	correct	right	no_response	1.018000	0.000000
126.007566	0.501000	fixation	60.000000	na	na	na	na	na	na	na	na
126.508566	1.499000	stimulus	60.000000	no_signal	0.000000	0.000000	correct	left	no_response	1.306000	0.000000
128.007566	0.501000	fixation	61.000000	na	na	na	na	na	na	na	na
128.508566	1.499000	stimulus	61.000000	no_signal	0.000000	0.000000	incorrect	left	right	0.519000	1.082000
130.007566	0.501000	fixation	62.000000	na	na	na	na	na	na	na	na
130.508566	1.499000	stimulus	62.000000	signal	0.650000	0.650000	signal_respond	left	no_response	0.653000	0.000000
132.007566	0.501000	fixation	63.000000	na	na	na	na	na	na	na	na
132.508566	1.498000	stimulus	63.000000	signal	0.600000	0.600000	correct	no_response	no_response	0.000000	0.000000
134.006566	0.502000	fixation	64.000000	na	na	na	na	na	na	na	na
134.508566	1.498000	stimulus	64.000000	no_signal	0.000000	0.000000	correct	left	no_response	0.943000	0.000000
136.006566	0.502000	fixation	65.000000	na	na	na	na	na	na	na	na
136.508566	1.498000	stimulus	65.000000	no_signal	0.000000	0.000000	not_quick_enough	no_response	no_response	0.000000	0.000000
138.006566	0.502000	fixation	66.000000	na	na	na	na	na	na	na	na
138.508566	1.498000	stimulus	66.000000	no_signal	0.000000	0.000000	correct	right	no_response	0.777000	0.000000
140.006566	0.502000	fixation	67.000000	na	na	na	na	na	na	na	na
140.508566	1.498000	stimulus	67.000000	no_signal	0.000000	0.000000	correct	left	no_response	0.753000	0.000000
142.006566	0.501000	fixation	68.000000	na	na	na	na	na	na	na	na
142.507566	1.499000	stimulus	68.000000	no_signal	0.000000	0.000000	correct	left	no_response	1.063000	0.000000
144.006566	0.501000	fixation	69.000000	na	na	na	na	na	na	na	na
144.507566	1.499000	stimulus	69.000000	no_signal	0.000000	0.000000	not_quick_enough	no_response	no_response	0.000000	0.000000
146.006566	0.501000	fixation	70.000000	na	na	na	na	na	na	na	na
146.507566	1.499000	stimulus	70.000000	no_signal	0.000000	0.000000	correct	right	no_response	0.728000	0.000000
148.006566	0.501000	fixation	71.000000	na	na	na	na	na	na	na	na
148.507566	1.498000	stimulus	71.000000	no_signal	0.000000	0.000000	correct	right	no_response	0.490000	0.000000
150.005566	0.502000	fixation	72.000000	na	na	na	na	na	na	na	na
150.507566	1.498000	stimulus	72.000000	no_signal	0.000000	0.000000	correct	left	no_response	1.009000	0.000000
152.005566	0.502000	fixation	73.000000	na	na	na	na	na	na	na	na
152.507566	1.498000	stimulus	73.000000	no_signal	0.000000	0.000000	correct	left	no_response	0.923000	0.000000
154.005566	0.502000	fixation	74.000000	na	na	na	na	na	na	na	na
154.507566	1.498000	stimulus	74.000000	no_signal	0.000000	0.000000	correct	right	no_response	1.271000	0.000000
156.005566	0.502000	fixation	75.000000	na	na	na	na	na	na	na	na
156.507566	1.498000	stimulus	75.000000	no_signal	0.000000	0.000000	correct	left	no_response	0.927000	0.000000
158.005566	0.501000	fixation	76.000000	na	na	na	na	na	na	na	na
158.506566	1.499000	stimulus	76.000000	no_signal	0.000000	0.000000	correct	right	no_response	0.750000	0.000000
160.005566	0.501000	fixation	77.000000	na	na	na	na	na	na	na	na
160.506566	1.499000	stimulus	77.000000	no_signal	0.000000	0.000000	correct	right	no_response	0.622000	0.000000
162.005566	0.501000	fixation	78.000000	na	na	na	na	na	na	na	na
162.506566	1.499000	stimulus	78.000000	no_signal	0.000000	0.000000	correct	right	no_response	0.668000	0.000000
164.005566	0.501000	fixation	79.000000	na	na	na	na	na	na	na	na
164.506566	1.498000	stimulus	79.000000	signal	0.650000	0.650000	correct	no_response	no_response	0.000000	0.000000
166.004566	0.502000	fixation	80.000000	na	na	na	na	na	na	na	na
166.506566	1.498000	stimulus	80.000000	no_signal	0.000000	0.000000	correct	left	no_response	0.668000	0.000000
168.004566	0.502000	fixation	81.000000	na	na	na	na	na	na	na	na
168.506566	1.498000	stimulus	81.000000	no_signal	0.000000	0.000000	correct	left	no_response	1.273000	0.000000
170.004566	0.502000	fixation	82.000000	na	na	na	na	na	na	na	na
170.506566	1.498000	stimulus	82.000000	signal	0.700000	0.700000	correct	no_response	no_response	0.000000	0.000000
172.004566	0.502000	fixation	83.000000	na	na	na	na	na	na	na	na
172.506566	1.498000	stimulus	83.000000	no_signal	0.000000	0.000000	correct	right	no_response	1.052000	0.000000
174.004566	0.502000	fixation	84.000000	na	na	na	na	na	na	na	na
174.506566	1.498000	stimulus	84.000000	no_signal	0.000000	0.000000	incorrect	left	no_response	1.243000	0.000000
176.004566	0.501000	fixation	85.000000	na	na	na	na	na	na	na	na
176.505566	1.499000	stimulus	85.000000	signal	0.750000	0.750000	correct	no_response	no_response	0.000000	0.000000
178.004566	0.501000	fixation	86.000000	na	na	na	na	na	na	na	na
178.505566	1.499000	stimulus	86.000000	no_signal	0.000000	0.000000	correct	right	no_response	0.728000	0.000000
180.004566	0.501000	fixation	87.000000	na	na	na	na	na	na	na	na
180.505566	1.498000	stimulus	87.000000	signal	0.800000	0.800000	correct	no_response	no_response	0.000000	0.000000
182.003566	0.502000	fixation	88.000000	na	na	na	na	na	na	na	na
182.505566	1.498000	stimulus	88.000000	no_signal	0.000000	0.000000	correct	right	no_response	1.107000	0.000000
184.003566	0.502000	fixation	89.000000	na	na	na	na	na	na	na	na
184.505566	1.498000	stimulus	89.000000	no_signal	0.000000	0.000000	correct	right	no_response	1.139000	0.000000
186.003566	0.502000	fixation	90.000000	na	na	na	na	na	na	na	na
186.505566	1.498000	stimulus	90.000000	no_signal	0.000000	0.000000	not_quick_enough	no_response	no_response	0.000000	0.000000
188.003566	0.502000	fixation	91.000000	na	na	na	na	na	na	na	na
188.505566	1.498000	stimulus	91.000000	no_signal	0.000000	0.000000	correct	left	no_response	0.065000	0.000000
190.003566	0.502000	fixation	92.000000	na	na	na	na	na	na	na	na
190.505566	1.498000	stimulus	92.000000	no_signal	0.000000	0.000000	correct	right	no_response	1.038000	0.000000
192.003566	0.501000	fixation	93.000000	na	na	na	na	na	na	na	na
192.504566	1.499000	stimulus	93.000000	signal	0.850000	0.850000	signal_respond	left	no_response	1.099000	0.000000
194.003566	0.501000	fixation	94.000000	na	na	na	na	na	na	na	na
194.504566	1.499000	stimulus	94.000000	no_signal	0.000000	0.000000	correct	left	no_response	0.905000	0.000000
196.003566	0.501000	fixation	95.000000	na	na	na	na	na	na	na	na
196.504566	1.499000	stimulus	95.000000	no_signal	0.000000	0.000000	incorrect	left	no_response	1.483000	0.000000
198.003566	0.501000	fixation	96.000000	na	na	na	na	na	na	na	na
198.504566	1.498000	stimulus	96.000000	signal	0.800000	0.800000	signal_respond	right	no_response	0.553000	0.000000
200.002566	0.502000	fixation	97.000000	na	na	na	na	na	na	na	na
200.504566	1.498000	stimulus	97.000000	no_signal	0.000000	0.000000	correct	left	no_response	1.033000	0.000000
202.002566	0.502000	fixation	98.000000	na	na	na	na	na	na	na	na
202.504566	1.498000	stimulus	98.000000	no_signal	0.000000	0.000000	correct	right	no_response	1.052000	0.000000
204.002566	0.502000	fixation	99.000000	na	na	na	na	na	na	na	na
204.504566	1.498000	stimulus	99.000000	no_signal	0.000000	0.000000	correct	right	no_response	1.297000	0.000000
206.002566	0.502000	fixation	100.000000	na	na	na	na	na	na	na	na
206.504566	1.498000	stimulus	100.000000	no_signal	0.000000	0.000000	not_quick_enough	no_response	no_response	0.000000	0.000000
208.002566	0.501000	fixation	101.000000	na	na	na	na	na	na	na	na
208.503566	1.499000	stimulus	101.000000	signal	0.750000	0.750000	signal_respond	left	no_response	1.133000	0.000000
210.002566	0.501000	fixation	102.000000	na	na	na	na	na	na	na	na
210.503566	1.499000	stimulus	102.000000	no_signal	0.000000	0.000000	incorrect	left	no_response	0.997000	0.000000
212.002566	0.501000	fixation	103.000000	na	na	na	na	na	na	na	na
212.503566	1.499000	stimulus	103.000000	no_signal	0.000000	0.000000	incorrect	right	left	0.000000	0.458000
214.002566	0.501000	fixation	104.000000	na	na	na	na	na	na	na	na
214.503566	1.498000	stimulus	104.000000	signal	0.700000	0.700000	signal_respond	left	no_response	0.437000	0.000000
216.001566	0.502000	fixation	105.000000	na	na	na	na	na	na	na	na
216.503566	1.498000	stimulus	105.000000	no_signal	0.000000	0.000000	correct	left	no_response	0.973000	0.000000
218.001566	0.502000	fixation	106.000000	na	na	na	na	na	na	na	na
218.503566	1.498000	stimulus	106.000000	no_signal	0.000000	0.000000	correct	right	no_response	0.946000	0.000000
220.001566	0.502000	fixation	107.000000	na	na	na	na	na	na	na	na
220.503566	1.498000	stimulus	107.000000	signal	0.650000	0.650000	correct	no_response	no_response	0.000000	0.000000
222.001566	0.502000	fixation	108.000000	na	na	na	na	na	na	na	na
222.503566	1.498000	stimulus	108.000000	no_signal	0.000000	0.000000	correct	right	no_response	0.559000	0.000000
224.001566	0.501000	fixation	109.000000	na	na	na	na	na	na	na	na
224.502566	1.499000	stimulus	109.000000	signal	0.700000	0.700000	signal_respond	right	no_response	0.837000	0.000000
226.001566	0.501000	fixation	110.000000	na	na	na	na	na	na	na	na
226.502566	1.499000	stimulus	110.000000	signal	0.650000	0.650000	signal_respond	right	no_response	0.689000	0.000000
228.001566	0.501000	fixation	111.000000	na	na	na	na	na	na	na	na
228.502566	1.499000	stimulus	111.000000	signal	0.600000	0.600000	correct	no_response	no_response	0.000000	0.000000
230.001566	0.501000	fixation	112.000000	na	na	na	na	na	na	na	na
230.502566	1.498000	stimulus	112.000000	no_signal	0.000000	0.000000	correct	left	no_response	1.057000	0.000000
232.000566	0.502000	fixation	113.000000	na	na	na	na	na	na	na	na
232.502566	1.498000	stimulus	113.000000	no_signal	0.000000	0.000000	correct	left	no_response	1.057000	0.000000
234.000566	0.502000	fixation	114.000000	na	na	na	na	na	na	na	na
234.502566	1.498000	stimulus	114.000000	no_signal	0.000000	0.000000	correct	right	no_response	1.186000	0.000000
236.000566	0.502000	fixation	115.000000	na	na	na	na	na	na	na	na
236.502566	1.498000	stimulus	115.000000	no_signal	0.000000	0.000000	correct	right	no_response	1.163000	0.000000
238.000566	0.502000	fixation	116.000000	na	na	na	na	na	na	na	na
238.502566	1.498000	stimulus	116.000000	signal	0.650000	0.650000	correct	no_response	no_response	0.000000	0.000000
240.000566	0.501000	fixation	117.000000	na	na	na	na	na	na	na	na
240.501566	1.499000	stimulus	117.000000	no_signal	0.000000	0.000000	correct	left	no_response	0.455000	0.000000
242.000566	0.501000	fixation	118.000000	na	na	na	na	na	na	na	na
242.501566	1.499000	stimulus	118.000000	signal	0.700000	0.700000	correct	no_response	no_response	0.000000	0.000000
244.000566	0.501000	fixation	119.000000	na	na	na	na	na	na	na	na
244.501566	1.499000	stimulus	119.000000	no_signal	0.000000	0.000000	correct	right	no_response	1.092000	0.000000
246.000566	0.501000	fixation	120.000000	na	na	na	na	na	na	na	na
246.501566	1.498000	stimulus	120.000000	no_signal	0.000000	0.000000	correct	right	no_response	1.299000	0.000000
247.999566	0.502000	fixation	121.000000	na	na	na	na	na	na	na	na
248.501566	1.498000	stimulus	121.000000	signal	0.750000	0.750000	correct	no_response	no_response	0.000000	0.000000
249.999566	0.502000	fixation	122.000000	na	na	na	na	na	na	na	na
250.501566	1.498000	stimulus	122.000000	no_signal	0.000000	0.000000	correct	right	no_response	1.222000	0.000000
251.999566	0.502000	fixation	123.000000	na	na	na	na	na	na	na	na
252.501566	1.498000	stimulus	123.000000	signal	0.800000	0.800000	signal_respond	left	no_response	0.640000	0.000000
253.999566	0.502000	fixation	124.000000	na	na	na	na	na	na	na	na
254.501566	1.498000	stimulus	124.000000	no_signal	0.000000	0.000000	correct	left	no_response	1.414000	0.000000
255.999566	0.501000	fixation	125.000000	na	na	na	na	na	na	na	na
256.500566	1.499000	stimulus	125.000000	no_signal	0.000000	0.000000	not_quick_enough	no_response	no_response	0.000000	0.000000
257.999566	0.501000	fixation	126.000000	na	na	na	na	na	na	na	na
258.500566	1.499000	stimulus	126.000000	no_signal	0.000000	0.000000	incorrect	right	left	0.022000	0.570000
259.999566	0.501000	fixation	127.000000	na	na	na	na	na	na	na	na
260.500566	1.499000	stimulus	127.000000	no_signal	0.000000	0.000000	correct	left	no_response	0.775000	0.000000
261.999566	0.501000	fixation	128.000000	na	na	na	na	na	na	na	na
262.500566	1.498000	stimulus	128.000000	no_signal	0.000000	0.000000	correct	left	no_response	1.408000	0.000000
263.998566	0.502000	fixation	129.000000	na	na	na	na	na	na	na	na
264.500566	1.498000	stimulus	129.000000	no_signal	0.000000	0.000000	not_quick_enough	no_response	no_response	0.000000	0.000000
265.998566	0.502000	fixation	130.000000	na	na	na	na	na	na	na	na
266.500566	1.498000	stimulus	130.000000	no_signal	0.000000	0.000000	correct	right	no_response	0.442000	0.000000
267.998566	0.502000	fixation	131.000000	na	na	na	na	na	na	na	na
268.500566	1.498000	stimulus	131.000000	signal	0.750000	0.750000	signal_respond	left	no_response	0.663000	0.000000
269.998566	0.502000	fixation	132.000000	na	na	na	na	na	na	na	na
270.500566	1.498000	stimulus	132.000000	no_signal	0.000000	0.000000	correct	left	no_response	0.882000	0.000000
271.998566	0.502000	fixation	133.000000	na	na	na	na	na	na	na	na
272.500566	1.498000	stimulus	133.000000	no_signal	0.000000	0.000000	correct	left	no_response	0.962000	0.000000
273.998566	0.501000	fixation	134.000000	na	na	na	na	na	na	na	na
274.499566	1.499000	stimulus	134.000000	no_signal	0.000000	0.000000	correct	right	no_response	1.185000	0.000000
275.998566	0.501000	fixation	135.000000	na	na	na	na	na	na	na	na
276.499566	1.499000	stimulus	135.000000	no_signal	0.000000	0.000000	correct	left	no_response	1.149000	0.000000
277.998566	0.501000	fixation	136.000000	na	na	na	na	na	na	na	na
278.499566	1.499000	stimulus	136.000000	no_signal	0.000000	0.000000	correct	left	no_response	0.934000	0.000000
279.998566	0.501000	fixation	137.000000	na	na	na	na	na	na	na	na
280.499566	1.498000	stimulus	137.000000	no_signal	0.000000	0.000000	correct	left	no_response	1.036000	0.000000
281.997566	0.502000	fixation	138.000000	na	na	na	na	na	na	na	na
282.499566	1.498000	stimulus	138.000000	no_signal	0.000000	0.000000	not_quick_enough	no_response	no_response	0.000000	0.000000
283.997566	0.502000	fixation	139.000000	na	na	na	na	na	na	na	na
284.499566	1.498000	stimulus	139.000000	no_signal	0.000000	0.000000	correct	right	no_response	0.953000	0.000000
285.997566	0.502000	fixation	140.000000	na	na	na	na	na	na	na	na
286.499566	1.498000	stimulus	140.000000	signal	0.700000	0.700000	signal_respond	right	no_response	0.891000	0.000000
287.997566	0.502000	fixation	141.000000	na	na	na	na	na	na	na	na
288.499566	1.498000	stimulus	141.000000	signal	0.650000	0.650000	correct	no_response	no_response	0.000000	0.000000
289.997566	0.501000	fixation	142.000000	na	na	na	na	na	na	na	na
290.498566	1.499000	stimulus	142.000000	no_signal	0.000000	0.000000	correct	right	no_response	0.000000	0.000000
291.997566	0.501000	fixation	143.000000	na	na	na	na	na	na	na	na
292.498566	1.499000	stimulus	143.000000	no_signal	0.000000	0.000000	not_quick_enough	no_response	no_response	0.000000	0.000000
293.997566	0.501000	fixation	144.000000	na	na	na	na	na	na	na	na
294.498566	1.499000	stimulus	144.000000	signal	0.700000	0.700000	signal_respond	right	no_response	0.713000	0.000000
295.997566	0.501000	fixation	145.000000	na	na	na	na	na	na	na	na
296.498566	1.498000	stimulus	145.000000	no_signal	0.000000	0.000000	correct	right	no_response	0.678000	0.000000
297.996566	0.502000	fixation	146.000000	na	na	na	na	na	na	na	na
298.498566	1.498000	stimulus	146.000000	no_signal	0.000000	0.000000	correct	right	no_response	0.600000	0.000000
299.996566	0.502000	fixation	147.000000	na	na	na	na	na	na	na	na
300.498566	1.498000	stimulus	147.000000	no_signal	0.000000	0.000000	correct	left	no_response	0.706000	0.000000
301.996566	0.502000	fixation	148.000000	na	na	na	na	na	na	na	na
302.498566	1.498000	stimulus	148.000000	no_signal	0.000000	0.000000	correct	right	no_response	1.048000	0.000000
303.996566	0.502000	fixation	149.000000	na	na	na	na	na	na	na	na
304.498566	1.498000	stimulus	149.000000	signal	0.650000	0.650000	correct	no_response	no_response	0.000000	0.000000
305.996566	0.501000	fixation	150.000000	na	na	na	na	na	na	na	na
306.497566	1.499000	stimulus	150.000000	no_signal	0.000000	0.000000	correct	left	no_response	0.611000	0.000000
307.996566	0.501000	fixation	151.000000	na	na	na	na	na	na	na	na
308.497566	1.499000	stimulus	151.000000	no_signal	0.000000	0.000000	correct	right	no_response	1.077000	0.000000
309.996566	0.501000	fixation	152.000000	na	na	na	na	na	na	na	na
310.497566	1.499000	stimulus	152.000000	no_signal	0.000000	0.000000	not_quick_enough	no_response	no_response	0.000000	0.000000
311.996566	0.501000	fixation	153.000000	na	na	na	na	na	na	na	na
312.497566	1.498000	stimulus	153.000000	no_signal	0.000000	0.000000	correct	right	no_response	0.462000	0.000000
313.995566	0.502000	fixation	154.000000	na	na	na	na	na	na	na	na
314.497566	1.498000	stimulus	154.000000	no_signal	0.000000	0.000000	correct	right	no_response	0.686000	0.000000
315.995566	0.502000	fixation	155.000000	na	na	na	na	na	na	na	na
316.497566	1.498000	stimulus	155.000000	no_signal	0.000000	0.000000	correct	left	no_response	0.687000	0.000000
317.995566	0.502000	fixation	156.000000	na	na	na	na	na	na	na	na
318.497566	1.498000	stimulus	156.000000	signal	0.700000	0.700000	signal_respond	right	no_response	0.936000	0.000000
319.995566	0.501000	fixation	157.000000	na	na	na	na	na	na	na	na
320.496566	1.499000	stimulus	157.000000	no_signal	0.000000	0.000000	correct	left	no_response	0.912000	0.000000
321.995566	0.501000	fixation	158.000000	na	na	na	na	na	na	na	na
322.496566	1.499000	stimulus	158.000000	no_signal	0.000000	0.000000	correct	left	no_response	1.246000	0.000000
323.995566	0.501000	fixation	159.000000	na	na	na	na	na	na	na	na
324.496566	1.499000	stimulus	159.000000	no_signal	0.000000	0.000000	incorrect	left	no_response	1.340000	0.000000
325.995566	0.501000	fixation	160.000000	na	na	na	na	na	na	na	na
326.496566	1.499000	stimulus	160.000000	no_signal	0.000000	0.000000	correct	right	no_response	0.617000	0.000000
327.995566	0.501000	fixation	161.000000	na	na	na	na	na	na	na	na
328.496566	1.498000	stimulus	161.000000	no_signal	0.000000	0.000000	correct	right	no_response	0.747000	0.000000
329.994566	0.502000	fixation	162.000000	na	na	na	na	na	na	na	na
330.496566	1.498000	stimulus	162.000000	signal	0.650000	0.650000	signal_respond	right	no_response	0.965000	0.000000
331.994566	0.502000	fixation	163.000000	na	na	na	na	na	na	na	na
332.496566	1.498000	stimulus	163.000000	no_signal	0.000000	0.000000	correct	left	no_response	1.164000	0.000000
333.994566	0.502000	fixation	164.000000	na	na	na	na	na	na	na	na
334.496566	1.498000	stimulus	164.000000	signal	0.600000	0.600000	correct	no_response	no_response	0.000000	0.000000
335.994566	0.502000	fixation	165.000000	na	na	na	na	na	na	na	na
336.496566	1.498000	stimulus	165.000000	no_signal	0.000000	0.000000	correct	left	no_response	0.594000	0.000000
337.994566	0.501000	fixation	166.000000	na	na	na	na	na	na	na	na
338.495566	1.499000	stimulus	166.000000	no_signal	0.000000	0.000000	not_quick_enough	no_response	no_response	0.000000	0.000000
339.994566	0.501000	fixation	167.000000	na	na	na	na	na	na	na	na
340.495566	1.499000	stimulus	167.000000	no_signal	0.000000	0.000000	correct	left	no_response	0.686000	0.000000
341.994566	0.501000	fixation	168.000000	na	na	na	na	na	na	na	na
342.495566	1.499000	stimulus	168.000000	no_signal	0.000000	0.000000	correct	right	no_response	0.519000	0.000000
343.994566	0.501000	fixation	169.000000	na	na	na	na	na	na	na	na
344.495566	1.498000	stimulus	169.000000	signal	0.650000	0.650000	signal_respond	left	no_response	0.854000	0.000000
345.993566	0.502000	fixation	170.000000	na	na	na	na	na	na	na	na
346.495566	1.498000	stimulus	170.000000	no_signal	0.000000	0.000000	correct	left	no_response	0.727000	0.000000
347.993566	0.502000	fixation	171.000000	na	na	na	na	na	na	na	na
348.495566	1.498000	stimulus	171.000000	no_signal	0.000000	0.000000	correct	left	no_response	0.622000	0.000000
349.993566	0.502000	fixation	172.000000	na	na	na	na	na	na	na	na
350.495566	1.498000	stimulus	172.000000	no_signal	0.000000	0.000000	correct	left	no_response	0.640000	0.000000
351.993566	0.502000	fixation	173.000000	na	na	na	na	na	na	na	na
352.495566	1.498000	stimulus	173.000000	no_signal	0.000000	0.000000	correct	left	no_response	1.047000	0.000000
353.993566	0.501000	fixation	174.000000	na	na	na	na	na	na	na	na
354.494566	1.499000	stimulus	174.000000	no_signal	0.000000	0.000000	not_quick_enough	no_response	no_response	0.000000	0.000000
355.993566	0.501000	fixation	175.000000	na	na	na	na	na	na	na	na
356.494566	1.499000	stimulus	175.000000	no_signal	0.000000	0.000000	correct	right	no_response	0.419000	0.000000
357.993566	0.501000	fixation	176.000000	na	na	na	na	na	na	na	na
358.494566	1.485349	stimulus	176.000000	signal	0.600000	0.600000	correct	no_response	no_response	0.000000	0.000000
