onset	duration	trial_number	trial_type	frame_number	time_of_response
8.053143	0.042670	1.000000	target	1.000000	na
8.095814	0.040547	1.000000	target	2.000000	na
8.136361	0.043774	1.000000	target	3.000000	na
8.180135	0.050289	1.000000	target	4.000000	na
8.230425	0.049676	1.000000	target	5.000000	na
8.280100	0.039691	1.000000	target	6.000000	na
8.319792	0.043000	1.000000	target	7.000000	na
8.362792	0.050480	1.000000	target	8.000000	na
8.413272	0.049953	1.000000	target	9.000000	na
8.463224	0.050034	1.000000	target	10.000000	na
8.513258	0.049985	1.000000	target	11.000000	na
8.563243	0.050260	1.000000	target	12.000000	na
8.613503	0.049797	1.000000	target	13.000000	na
8.663300	0.039853	1.000000	target	14.000000	na
8.703153	0.043278	1.000000	target	15.000000	na
8.746430	0.040091	1.000000	target	16.000000	na
8.786522	0.043246	2.000000	nontarget	1.000000	na
8.829767	0.050341	2.000000	nontarget	2.000000	na
8.880108	0.050076	2.000000	nontarget	3.000000	8.907265
8.930184	0.049720	2.000000	nontarget	4.000000	na
8.979904	0.049984	2.000000	nontarget	5.000000	na
9.029888	0.050248	2.000000	nontarget	6.000000	na
9.080136	0.050040	2.000000	nontarget	7.000000	na
9.130176	0.050012	2.000000	nontarget	8.000000	na
9.180188	0.049714	2.000000	nontarget	9.000000	na
9.229902	0.049987	2.000000	nontarget	10.000000	na
9.279889	0.050021	2.000000	nontarget	11.000000	na
9.329910	0.050187	2.000000	nontarget	12.000000	na
9.380096	0.049826	2.000000	nontarget	13.000000	na
9.429922	0.050001	2.000000	nontarget	14.000000	9.453670
9.479923	0.050032	2.000000	nontarget	15.000000	na
9.529955	0.049918	2.000000	nontarget	16.000000	na
9.579873	0.040024	3.000000	nontarget	1.000000	9.586547
9.619898	0.043315	3.000000	nontarget	2.000000	na
9.663212	0.039884	3.000000	nontarget	3.000000	na
9.703097	0.043399	3.000000	nontarget	4.000000	na
9.746496	0.040671	3.000000	nontarget	5.000000	na
9.787167	0.042159	3.000000	nontarget	6.000000	na
9.829325	0.040281	3.000000	nontarget	7.000000	na
9.869606	0.043666	3.000000	nontarget	8.000000	na
9.913272	0.039523	3.000000	nontarget	9.000000	na
9.952795	0.051426	3.000000	nontarget	10.000000	na
10.004221	0.042012	3.000000	nontarget	11.000000	10.022955
10.046234	0.050436	3.000000	nontarget	12.000000	na
10.096670	0.050274	3.000000	nontarget	13.000000	na
10.146944	0.049904	3.000000	nontarget	14.000000	na
10.196848	0.049060	3.000000	nontarget	15.000000	na
10.245908	0.039980	3.000000	nontarget	16.000000	na
10.285888	0.043370	4.000000	nontarget	1.000000	na
10.329258	0.050159	4.000000	nontarget	2.000000	na
10.379417	0.040364	4.000000	nontarget	3.000000	na
10.419782	0.043355	4.000000	nontarget	4.000000	na
10.463137	0.040770	4.000000	nontarget	5.000000	na
10.503907	0.041723	4.000000	nontarget	6.000000	na
10.545630	0.040581	4.000000	nontarget	7.000000	na
10.586211	0.042922	4.000000	nontarget	8.000000	na
10.629132	0.050141	4.000000	nontarget	9.000000	na
10.679274	0.040280	4.000000	nontarget	10.000000	10.694555
10.719553	0.042843	4.000000	nontarget	11.000000	na
10.762397	0.050051	4.000000	nontarget	12.000000	na
10.812447	0.040891	4.000000	nontarget	13.000000	na
10.853338	0.043391	4.000000	nontarget	14.000000	na
10.896729	0.049720	4.000000	nontarget	15.000000	na
10.946449	0.052768	4.000000	nontarget	16.000000	na
10.999217	0.047155	5.000000	nontarget	1.000000	na
11.046372	0.040312	5.000000	nontarget	2.000000	na
11.086684	0.042864	5.000000	nontarget	3.000000	na
11.129548	0.040517	5.000000	nontarget	4.000000	na
11.170065	0.042028	5.000000	nontarget	5.000000	na
11.212093	0.040762	5.000000	nontarget	6.000000	na
11.252856	0.043868	5.000000	nontarget	7.000000	na
11.296723	0.049865	5.000000	nontarget	8.000000	na
11.346588	0.049766	5.000000	nontarget	9.000000	na
11.396354	0.039705	5.000000	nontarget	10.000000	na
11.436059	0.043015	5.000000	nontarget	11.000000	na
11.479074	0.050177	5.000000	nontarget	12.000000	11.498082
11.529251	0.050671	5.000000	nontarget	13.000000	na
11.579922	0.049272	5.000000	nontarget	14.000000	na
11.629194	0.040468	5.000000	nontarget	15.000000	na
11.669662	0.043394	5.000000	nontarget	16.000000	na
11.713055	0.050025	6.000000	nontarget	1.000000	na
11.763080	0.050117	6.000000	nontarget	2.000000	na
11.813197	0.049151	6.000000	nontarget	3.000000	na
11.862348	0.041310	6.000000	nontarget	4.000000	na
11.903658	0.041849	6.000000	nontarget	5.000000	na
11.945507	0.040818	6.000000	nontarget	6.000000	na
11.986325	0.043525	6.000000	nontarget	7.000000	na
12.029851	0.039980	6.000000	nontarget	8.000000	na
12.069830	0.043641	6.000000	nontarget	9.000000	na
12.113471	0.039363	6.000000	nontarget	10.000000	na
12.152835	0.043187	6.000000	nontarget	11.000000	na
12.196021	0.041033	6.000000	nontarget	12.000000	12.207053
12.237054	0.042893	6.000000	nontarget	13.000000	na
12.279947	0.050185	6.000000	nontarget	14.000000	na
12.330132	0.049740	6.000000	nontarget	15.000000	na
12.379873	0.049430	6.000000	nontarget	16.000000	na
12.429303	0.050123	7.000000	nontarget	1.000000	na
12.479426	0.039960	7.000000	nontarget	2.000000	na
12.519386	0.043351	7.000000	nontarget	3.000000	na
12.562738	0.050215	7.000000	nontarget	4.000000	na
12.612953	0.039770	7.000000	nontarget	5.000000	na
12.652723	0.043128	7.000000	nontarget	6.000000	na
12.695850	0.050681	7.000000	nontarget	7.000000	na
12.746531	0.039869	7.000000	nontarget	8.000000	na
12.786400	0.042856	7.000000	nontarget	9.000000	na
12.829256	0.040024	7.000000	nontarget	10.000000	na
12.869280	0.047218	7.000000	nontarget	11.000000	12.902079
12.916499	0.046598	7.000000	nontarget	12.000000	na
12.963096	0.050401	7.000000	nontarget	13.000000	na
13.013498	0.039712	7.000000	nontarget	14.000000	na
13.053210	0.042668	7.000000	nontarget	15.000000	na
13.095878	0.040062	7.000000	nontarget	16.000000	na
13.135940	0.043190	8.000000	nontarget	1.000000	na
13.179130	0.050951	8.000000	nontarget	2.000000	na
13.230081	0.050028	8.000000	nontarget	3.000000	na
13.280109	0.049909	8.000000	nontarget	4.000000	na
13.330018	0.049516	8.000000	nontarget	5.000000	na
13.379534	0.039894	8.000000	nontarget	6.000000	na
13.419428	0.043063	8.000000	nontarget	7.000000	na
13.462491	0.050781	8.000000	nontarget	8.000000	na
13.513271	0.039783	8.000000	nontarget	9.000000	na
13.553055	0.043203	8.000000	nontarget	10.000000	na
13.596258	0.049545	8.000000	nontarget	11.000000	na
13.645802	0.040220	8.000000	nontarget	12.000000	na
13.686022	0.042971	8.000000	nontarget	13.000000	na
13.728993	0.050805	8.000000	nontarget	14.000000	na
13.779799	0.040235	8.000000	nontarget	15.000000	13.791194
13.820034	0.042349	8.000000	nontarget	16.000000	na
13.862383	0.040906	9.000000	nontarget	1.000000	13.868044
13.903289	0.043021	9.000000	nontarget	2.000000	na
13.946310	0.053040	9.000000	nontarget	3.000000	na
13.999350	0.046850	9.000000	nontarget	4.000000	na
14.046199	0.040890	9.000000	nontarget	5.000000	na
14.087089	0.041802	9.000000	nontarget	6.000000	na
14.128891	0.040772	9.000000	nontarget	7.000000	na
14.169663	0.042746	9.000000	nontarget	8.000000	na
14.212409	0.050904	9.000000	nontarget	9.000000	na
14.263313	0.049170	9.000000	nontarget	10.000000	na
14.312483	0.041095	9.000000	nontarget	11.000000	na
14.353578	0.042808	9.000000	nontarget	12.000000	na
14.396386	0.039641	9.000000	nontarget	13.000000	na
14.436028	0.043641	9.000000	nontarget	14.000000	na
14.479668	0.039440	9.000000	nontarget	15.000000	na
14.519108	0.043966	9.000000	nontarget	16.000000	na
14.563074	0.039668	10.000000	target	1.000000	na
14.602742	0.043749	10.000000	target	2.000000	na
14.646491	0.039491	10.000000	target	3.000000	na
14.685982	0.042751	10.000000	target	4.000000	na
14.728733	0.050978	10.000000	target	5.000000	na
14.779711	0.050170	10.000000	target	6.000000	na
14.829881	0.049489	10.000000	target	7.000000	na
14.879370	0.050457	10.000000	target	8.000000	na
14.929827	0.049316	10.000000	target	9.000000	na
14.979143	0.050559	10.000000	target	10.000000	na
15.029702	0.049490	10.000000	target	11.000000	na
15.079192	0.050720	10.000000	target	12.000000	15.094592
15.129912	0.050196	10.000000	target	13.000000	na
15.180108	0.049759	10.000000	target	14.000000	na
15.229868	0.049998	10.000000	target	15.000000	na
15.279866	0.049903	10.000000	target	16.000000	na
15.329769	0.050052	11.000000	nontarget	1.000000	na
15.379821	0.050059	11.000000	nontarget	2.000000	na
15.429881	0.050004	11.000000	nontarget	3.000000	na
15.479884	0.050137	11.000000	nontarget	4.000000	na
15.530021	0.049383	11.000000	nontarget	5.000000	na
15.579404	0.050616	11.000000	nontarget	6.000000	na
15.630020	0.049811	11.000000	nontarget	7.000000	na
15.679831	0.050012	11.000000	nontarget	8.000000	na
15.729843	0.050060	11.000000	nontarget	9.000000	na
15.779903	0.049975	11.000000	nontarget	10.000000	na
15.829878	0.049922	11.000000	nontarget	11.000000	na
15.879800	0.039975	11.000000	nontarget	12.000000	na
15.919775	0.043287	11.000000	nontarget	13.000000	na
15.963062	0.050137	11.000000	nontarget	14.000000	na
16.013198	0.040229	11.000000	nontarget	15.000000	16.024629
16.053428	0.042332	11.000000	nontarget	16.000000	na
16.095760	0.040804	12.000000	nontarget	1.000000	16.101421
16.136564	0.042863	12.000000	nontarget	2.000000	na
16.179427	0.039908	12.000000	nontarget	3.000000	na
16.219335	0.043880	12.000000	nontarget	4.000000	na
16.263215	0.039618	12.000000	nontarget	5.000000	na
16.302833	0.042764	12.000000	nontarget	6.000000	na
16.345597	0.050908	12.000000	nontarget	7.000000	na
16.396505	0.049952	12.000000	nontarget	8.000000	na
16.446457	0.050013	12.000000	nontarget	9.000000	na
16.496470	0.050020	12.000000	nontarget	10.000000	na
16.546490	0.049610	12.000000	nontarget	11.000000	na
16.596100	0.049853	12.000000	nontarget	12.000000	na
16.645953	0.045509	12.000000	nontarget	13.000000	16.677322
16.691463	0.044539	12.000000	nontarget	14.000000	na
16.736001	0.042857	12.000000	nontarget	15.000000	na
16.778858	0.041372	12.000000	nontarget	16.000000	na
16.820230	0.042055	13.000000	nontarget	1.000000	na
16.862286	0.040737	13.000000	nontarget	2.000000	na
16.903023	0.042430	13.000000	nontarget	3.000000	na
16.945453	0.053961	13.000000	nontarget	4.000000	na
16.999414	0.046952	13.000000	nontarget	5.000000	na
17.046365	0.039901	13.000000	nontarget	6.000000	na
17.086267	0.042785	13.000000	nontarget	7.000000	na
17.129052	0.040437	13.000000	nontarget	8.000000	na
17.169489	0.042954	13.000000	nontarget	9.000000	na
17.212443	0.050821	13.000000	nontarget	10.000000	na
17.263264	0.049525	13.000000	nontarget	11.000000	na
17.312789	0.039823	13.000000	nontarget	12.000000	na
17.352612	0.043198	13.000000	nontarget	13.000000	na
17.395811	0.050699	13.000000	nontarget	14.000000	na
17.446509	0.049803	13.000000	nontarget	15.000000	na
17.496313	0.041904	13.000000	nontarget	16.000000	17.523129
17.538217	0.041270	14.000000	nontarget	1.000000	17.543401
17.579487	0.039821	14.000000	nontarget	2.000000	na
17.619308	0.043199	14.000000	nontarget	3.000000	na
17.662507	0.050792	14.000000	nontarget	4.000000	na
17.713300	0.049814	14.000000	nontarget	5.000000	na
17.763113	0.049894	14.000000	nontarget	6.000000	na
17.813007	0.049936	14.000000	nontarget	7.000000	na
17.862944	0.050310	14.000000	nontarget	8.000000	na
17.913253	0.049877	14.000000	nontarget	9.000000	na
17.963130	0.050344	14.000000	nontarget	10.000000	na
18.013474	0.048976	14.000000	nontarget	11.000000	na
18.062450	0.041266	14.000000	nontarget	12.000000	na
18.103716	0.042261	14.000000	nontarget	13.000000	na
18.145977	0.050494	14.000000	nontarget	14.000000	na
18.196471	0.049665	14.000000	nontarget	15.000000	na
18.246136	0.039666	14.000000	nontarget	16.000000	na
18.285803	0.043650	15.000000	nontarget	1.000000	na
18.329453	0.039975	15.000000	nontarget	2.000000	18.336266
18.369428	0.043852	15.000000	nontarget	3.000000	na
18.413279	0.039934	15.000000	nontarget	4.000000	na
18.453214	0.043326	15.000000	nontarget	5.000000	na
18.496540	0.049885	15.000000	nontarget	6.000000	na
18.546425	0.049552	15.000000	nontarget	7.000000	na
18.595977	0.049835	15.000000	nontarget	8.000000	na
18.645812	0.050190	15.000000	nontarget	9.000000	na
18.696002	0.040178	15.000000	nontarget	10.000000	na
18.736180	0.043503	15.000000	nontarget	11.000000	na
18.779683	0.039455	15.000000	nontarget	12.000000	na
18.819138	0.043328	15.000000	nontarget	13.000000	na
18.862466	0.050571	15.000000	nontarget	14.000000	na
18.913037	0.039524	15.000000	nontarget	15.000000	na
18.952561	0.051066	15.000000	nontarget	16.000000	na
19.003627	0.042503	16.000000	nontarget	1.000000	na
19.046130	0.050409	16.000000	nontarget	2.000000	na
19.096539	0.039711	16.000000	nontarget	3.000000	na
19.136250	0.043272	16.000000	nontarget	4.000000	19.149553
19.179522	0.040255	16.000000	nontarget	5.000000	na
19.219777	0.042420	16.000000	nontarget	6.000000	na
19.262198	0.050890	16.000000	nontarget	7.000000	na
19.313088	0.040054	16.000000	nontarget	8.000000	na
19.353142	0.043222	16.000000	nontarget	9.000000	na
19.396364	0.039535	16.000000	nontarget	10.000000	na
19.435900	0.042923	16.000000	nontarget	11.000000	na
19.478823	0.050832	16.000000	nontarget	12.000000	na
19.529655	0.050154	16.000000	nontarget	13.000000	na
19.579810	0.049154	16.000000	nontarget	14.000000	na
19.628963	0.050100	16.000000	nontarget	15.000000	na
19.679063	0.040276	16.000000	nontarget	16.000000	na
19.719340	0.043458	17.000000	nontarget	1.000000	na
19.762798	0.040537	17.000000	nontarget	2.000000	na
19.803335	0.042425	17.000000	nontarget	3.000000	na
19.845760	0.040448	17.000000	nontarget	4.000000	19.859536
19.886208	0.042716	17.000000	nontarget	5.000000	na
19.928924	0.050687	17.000000	nontarget	6.000000	na
19.979611	0.050215	17.000000	nontarget	7.000000	na
20.029826	0.050139	17.000000	nontarget	8.000000	na
20.079965	0.049903	17.000000	nontarget	9.000000	na
20.129868	0.049711	17.000000	nontarget	10.000000	na
20.179579	0.050299	17.000000	nontarget	11.000000	na
20.229879	0.050091	17.000000	nontarget	12.000000	na
20.279970	0.049190	17.000000	nontarget	13.000000	na
20.329159	0.040425	17.000000	nontarget	14.000000	na
20.369584	0.043347	17.000000	nontarget	15.000000	na
20.412931	0.040418	17.000000	nontarget	16.000000	na
20.453349	0.042018	18.000000	nontarget	1.000000	na
20.495367	0.040843	18.000000	nontarget	2.000000	na
20.536209	0.043266	18.000000	nontarget	3.000000	20.556746
20.579476	0.050371	18.000000	nontarget	4.000000	na
20.629846	0.039947	18.000000	nontarget	5.000000	na
20.669793	0.042594	18.000000	nontarget	6.000000	na
20.712387	0.050088	18.000000	nontarget	7.000000	na
20.762475	0.041254	18.000000	nontarget	8.000000	na
20.803728	0.041941	18.000000	nontarget	9.000000	na
20.845669	0.040619	18.000000	nontarget	10.000000	na
20.886288	0.043623	18.000000	nontarget	11.000000	na
20.929911	0.039422	18.000000	nontarget	12.000000	na
20.969334	0.043346	18.000000	nontarget	13.000000	na
21.012679	0.040440	18.000000	nontarget	14.000000	na
21.053119	0.043539	18.000000	nontarget	15.000000	na
21.096658	0.039548	18.000000	nontarget	16.000000	na
21.136207	0.043480	19.000000	nontarget	1.000000	na
21.179687	0.039741	19.000000	nontarget	2.000000	na
21.219428	0.044175	19.000000	nontarget	3.000000	21.247105
21.263603	0.040119	19.000000	nontarget	4.000000	na
21.303722	0.042360	19.000000	nontarget	5.000000	na
21.346082	0.039702	19.000000	nontarget	6.000000	na
21.385784	0.043122	19.000000	nontarget	7.000000	na
21.428906	0.050739	19.000000	nontarget	8.000000	na
21.479645	0.039840	19.000000	nontarget	9.000000	na
21.519485	0.043063	19.000000	nontarget	10.000000	na
21.562548	0.040751	19.000000	nontarget	11.000000	na
21.603299	0.041920	19.000000	nontarget	12.000000	na
21.645219	0.041144	19.000000	nontarget	13.000000	na
21.686363	0.042538	19.000000	nontarget	14.000000	na
21.728901	0.050872	19.000000	nontarget	15.000000	na
21.779773	0.040092	19.000000	nontarget	16.000000	na
21.819865	0.042101	20.000000	nontarget	1.000000	na
21.861966	0.050997	20.000000	nontarget	2.000000	na
21.912963	0.050131	20.000000	nontarget	3.000000	na
21.963094	0.050041	20.000000	nontarget	4.000000	na
22.013136	0.049182	20.000000	nontarget	5.000000	na
22.062317	0.041439	20.000000	nontarget	6.000000	22.071162
22.103757	0.049304	20.000000	nontarget	7.000000	na
22.153060	0.042745	20.000000	nontarget	8.000000	na
22.195805	0.050267	20.000000	nontarget	9.000000	na
22.246072	0.049824	20.000000	nontarget	10.000000	na
22.295896	0.050444	20.000000	nontarget	11.000000	na
22.346340	0.050058	20.000000	nontarget	12.000000	na
22.396398	0.039987	20.000000	nontarget	13.000000	na
22.436385	0.042784	20.000000	nontarget	14.000000	na
22.479169	0.040865	20.000000	nontarget	15.000000	na
22.520035	0.043100	20.000000	nontarget	16.000000	na
22.563135	0.050058	21.000000	nontarget	1.000000	na
22.613193	0.049961	21.000000	nontarget	2.000000	na
22.663154	0.039640	21.000000	nontarget	3.000000	22.679128
22.702794	0.042628	21.000000	nontarget	4.000000	na
22.745422	0.041544	21.000000	nontarget	5.000000	na
22.786966	0.042700	21.000000	nontarget	6.000000	na
22.829666	0.039941	21.000000	nontarget	7.000000	na
22.869606	0.043334	21.000000	nontarget	8.000000	na
22.912940	0.049422	21.000000	nontarget	9.000000	na
22.962362	0.041264	21.000000	nontarget	10.000000	na
23.003626	0.042587	21.000000	nontarget	11.000000	na
23.046213	0.050366	21.000000	nontarget	12.000000	na
23.096578	0.039864	21.000000	nontarget	13.000000	na
23.136443	0.043345	21.000000	nontarget	14.000000	na
23.179788	0.040496	21.000000	nontarget	15.000000	na
23.220283	0.042380	21.000000	nontarget	16.000000	na
23.262664	0.039783	22.000000	nontarget	1.000000	na
23.302446	0.048171	22.000000	nontarget	2.000000	23.333988
23.350618	0.045235	22.000000	nontarget	3.000000	na
23.395853	0.041156	22.000000	nontarget	4.000000	na
23.437009	0.041651	22.000000	nontarget	5.000000	na
23.478659	0.040493	22.000000	nontarget	6.000000	na
23.519152	0.043071	22.000000	nontarget	7.000000	na
23.562223	0.050119	22.000000	nontarget	8.000000	na
23.612343	0.040655	22.000000	nontarget	9.000000	na
23.652997	0.043397	22.000000	nontarget	10.000000	na
23.696394	0.039794	22.000000	nontarget	11.000000	na
23.736189	0.043603	22.000000	nontarget	12.000000	na
23.779792	0.040229	22.000000	nontarget	13.000000	na
23.820021	0.043013	22.000000	nontarget	14.000000	na
23.863034	0.049688	22.000000	nontarget	15.000000	na
23.912722	0.050256	22.000000	nontarget	16.000000	na
23.962978	0.039593	23.000000	nontarget	1.000000	23.978790
24.002571	0.043313	23.000000	nontarget	2.000000	na
24.045884	0.041164	23.000000	nontarget	3.000000	na
24.087048	0.049328	23.000000	nontarget	4.000000	na
24.136376	0.043225	23.000000	nontarget	5.000000	na
24.179601	0.049862	23.000000	nontarget	6.000000	na
24.229463	0.049716	23.000000	nontarget	7.000000	na
24.279179	0.050563	23.000000	nontarget	8.000000	na
24.329741	0.049389	23.000000	nontarget	9.000000	na
24.379130	0.040461	23.000000	nontarget	10.000000	na
24.419592	0.043284	23.000000	nontarget	11.000000	na
24.462876	0.040276	23.000000	nontarget	12.000000	na
24.503152	0.042685	23.000000	nontarget	13.000000	na
24.545836	0.040865	23.000000	nontarget	14.000000	na
24.586702	0.042296	23.000000	nontarget	15.000000	na
24.628997	0.040817	23.000000	nontarget	16.000000	na
24.669814	0.045916	24.000000	nontarget	1.000000	24.702020
24.715730	0.046774	24.000000	nontarget	2.000000	na
24.762504	0.040655	24.000000	nontarget	3.000000	na
24.803159	0.043090	24.000000	nontarget	4.000000	na
24.846249	0.050136	24.000000	nontarget	5.000000	na
24.896386	0.039836	24.000000	nontarget	6.000000	na
24.936222	0.042651	24.000000	nontarget	7.000000	na
24.978873	0.040557	24.000000	nontarget	8.000000	na
25.019430	0.043664	24.000000	nontarget	9.000000	na
25.063094	0.049103	24.000000	nontarget	10.000000	na
25.112197	0.041073	24.000000	nontarget	11.000000	na
25.153270	0.042569	24.000000	nontarget	12.000000	na
25.195839	0.040151	24.000000	nontarget	13.000000	na
25.235990	0.043419	24.000000	nontarget	14.000000	na
25.279410	0.040607	24.000000	nontarget	15.000000	na
25.320017	0.042048	24.000000	nontarget	16.000000	na
25.362064	0.050993	25.000000	nontarget	1.000000	na
25.413058	0.049955	25.000000	nontarget	2.000000	na
25.463013	0.039993	25.000000	nontarget	3.000000	na
25.503006	0.042258	25.000000	nontarget	4.000000	25.512069
25.545264	0.050933	25.000000	nontarget	5.000000	na
25.596197	0.039901	25.000000	nontarget	6.000000	na
25.636098	0.043339	25.000000	nontarget	7.000000	na
25.679437	0.050294	25.000000	nontarget	8.000000	na
25.729730	0.039609	25.000000	nontarget	9.000000	na
25.769339	0.043333	25.000000	nontarget	10.000000	na
25.812672	0.050467	25.000000	nontarget	11.000000	na
25.863140	0.049427	25.000000	nontarget	12.000000	na
25.912567	0.040159	25.000000	nontarget	13.000000	na
25.952726	0.048263	25.000000	nontarget	14.000000	na
26.000989	0.045418	25.000000	nontarget	15.000000	na
26.046407	0.039387	25.000000	nontarget	16.000000	na
26.085794	0.043145	26.000000	nontarget	1.000000	na
26.128939	0.040517	26.000000	nontarget	2.000000	26.138795
26.169457	0.043217	26.000000	nontarget	3.000000	na
26.212673	0.050369	26.000000	nontarget	4.000000	na
26.263043	0.049443	26.000000	nontarget	5.000000	na
26.312486	0.039883	26.000000	nontarget	6.000000	na
26.352369	0.043868	26.000000	nontarget	7.000000	na
26.396237	0.040785	26.000000	nontarget	8.000000	na
26.437022	0.041942	26.000000	nontarget	9.000000	na
26.478964	0.040579	26.000000	nontarget	10.000000	na
26.519542	0.042801	26.000000	nontarget	11.000000	na
26.562344	0.049893	26.000000	nontarget	12.000000	na
26.612237	0.041130	26.000000	nontarget	13.000000	na
26.653367	0.042069	26.000000	nontarget	14.000000	na
26.695436	0.040634	26.000000	nontarget	15.000000	na
26.736070	0.043438	26.000000	nontarget	16.000000	na
26.779507	0.049701	27.000000	nontarget	1.000000	26.789896
26.829208	0.040423	27.000000	nontarget	2.000000	na
26.869631	0.043288	27.000000	nontarget	3.000000	na
26.912919	0.040510	27.000000	nontarget	4.000000	na
26.953429	0.047210	27.000000	nontarget	5.000000	na
27.000640	0.045395	27.000000	nontarget	6.000000	na
27.046034	0.040939	27.000000	nontarget	7.000000	na
27.086973	0.042063	27.000000	nontarget	8.000000	na
27.129036	0.040516	27.000000	nontarget	9.000000	na
27.169552	0.043189	27.000000	nontarget	10.000000	na
27.212741	0.050494	27.000000	nontarget	11.000000	na
27.263234	0.049427	27.000000	nontarget	12.000000	na
27.312661	0.040209	27.000000	nontarget	13.000000	na
27.352870	0.043644	27.000000	nontarget	14.000000	na
27.396514	0.039747	27.000000	nontarget	15.000000	na
27.436262	0.043226	27.000000	nontarget	16.000000	na
27.479487	0.039761	28.000000	nontarget	1.000000	na
27.519248	0.043599	28.000000	nontarget	2.000000	na
27.562848	0.040499	28.000000	nontarget	3.000000	na
27.603347	0.042210	28.000000	nontarget	4.000000	na
27.645557	0.050821	28.000000	nontarget	5.000000	27.665995
27.696378	0.050017	28.000000	nontarget	6.000000	na
27.746395	0.049253	28.000000	nontarget	7.000000	na
27.795648	0.040693	28.000000	nontarget	8.000000	na
27.836341	0.043084	28.000000	nontarget	9.000000	na
27.879425	0.039693	28.000000	nontarget	10.000000	na
27.919118	0.043308	28.000000	nontarget	11.000000	na
27.962425	0.040280	28.000000	nontarget	12.000000	na
28.002706	0.043488	28.000000	nontarget	13.000000	na
28.046194	0.039614	28.000000	nontarget	14.000000	na
28.085808	0.043192	28.000000	nontarget	15.000000	na
28.129000	0.050108	28.000000	nontarget	16.000000	na
28.179108	0.040151	29.000000	nontarget	1.000000	na
28.219258	0.043638	29.000000	nontarget	2.000000	na
28.262896	0.040802	29.000000	nontarget	3.000000	na
28.303698	0.042141	29.000000	nontarget	4.000000	na
28.345839	0.040777	29.000000	nontarget	5.000000	na
28.386616	0.043185	29.000000	nontarget	6.000000	na
28.429801	0.048979	29.000000	nontarget	7.000000	na
28.478780	0.050340	29.000000	nontarget	8.000000	28.494316
28.529120	0.040664	29.000000	nontarget	9.000000	na
28.569785	0.043092	29.000000	nontarget	10.000000	na
28.612876	0.040287	29.000000	nontarget	11.000000	na
28.653163	0.043156	29.000000	nontarget	12.000000	na
28.696319	0.050007	29.000000	nontarget	13.000000	na
28.746326	0.049977	29.000000	nontarget	14.000000	na
28.796303	0.040103	29.000000	nontarget	15.000000	na
28.836407	0.042782	29.000000	nontarget	16.000000	na
28.879188	0.050474	30.000000	nontarget	1.000000	na
28.929663	0.049646	30.000000	nontarget	2.000000	na
28.979309	0.050090	30.000000	nontarget	3.000000	na
29.029399	0.040291	30.000000	nontarget	4.000000	na
29.069690	0.043234	30.000000	nontarget	5.000000	na
29.112924	0.049273	30.000000	nontarget	6.000000	na
29.162197	0.040644	30.000000	nontarget	7.000000	29.177942
29.202841	0.043618	30.000000	nontarget	8.000000	na
29.246460	0.049898	30.000000	nontarget	9.000000	na
29.296357	0.049887	30.000000	nontarget	10.000000	na
29.346244	0.049274	30.000000	nontarget	11.000000	na
29.395518	0.040843	30.000000	nontarget	12.000000	na
29.436361	0.042116	30.000000	nontarget	13.000000	na
29.478478	0.051311	30.000000	nontarget	14.000000	na
29.529788	0.040064	30.000000	nontarget	15.000000	na
29.569852	0.042066	30.000000	nontarget	16.000000	na
29.611918	0.051065	31.000000	nontarget	1.000000	na
29.662983	0.049527	31.000000	nontarget	2.000000	na
29.712510	0.040309	31.000000	nontarget	3.000000	na
29.752819	0.050739	31.000000	nontarget	4.000000	na
29.803558	0.041989	31.000000	nontarget	5.000000	na
29.845547	0.050954	31.000000	nontarget	6.000000	na
29.896501	0.049908	31.000000	nontarget	7.000000	29.911687
29.946409	0.052792	31.000000	nontarget	8.000000	na
29.999201	0.046935	31.000000	nontarget	9.000000	na
30.046136	0.039942	31.000000	nontarget	10.000000	na
30.086078	0.043502	31.000000	nontarget	11.000000	na
30.129579	0.040665	31.000000	nontarget	12.000000	na
30.170245	0.042469	31.000000	nontarget	13.000000	na
30.212714	0.039639	31.000000	nontarget	14.000000	na
30.252353	0.043809	31.000000	nontarget	15.000000	na
30.296162	0.040788	31.000000	nontarget	16.000000	na
30.336950	0.042195	32.000000	nontarget	1.000000	na
30.379145	0.040273	32.000000	nontarget	2.000000	na
30.419418	0.043062	32.000000	nontarget	3.000000	na
30.462479	0.049922	32.000000	nontarget	4.000000	na
30.512401	0.040964	32.000000	nontarget	5.000000	na
30.553365	0.042133	32.000000	nontarget	6.000000	na
30.595498	0.040856	32.000000	nontarget	7.000000	na
30.636354	0.043168	32.000000	nontarget	8.000000	na
30.679522	0.040869	32.000000	nontarget	9.000000	na
30.720392	0.042084	32.000000	nontarget	10.000000	na
30.762476	0.040437	32.000000	nontarget	11.000000	na
30.802913	0.043548	32.000000	nontarget	12.000000	30.819536
30.846461	0.040293	32.000000	nontarget	13.000000	na
30.886754	0.042462	32.000000	nontarget	14.000000	na
30.929216	0.050425	32.000000	nontarget	15.000000	na
30.979640	0.040292	32.000000	nontarget	16.000000	na
31.019933	0.042957	33.000000	nontarget	1.000000	na
31.062890	0.040155	33.000000	nontarget	2.000000	na
31.103045	0.042286	33.000000	nontarget	3.000000	na
31.145331	0.050637	33.000000	nontarget	4.000000	na
31.195968	0.040044	33.000000	nontarget	5.000000	na
31.236012	0.043511	33.000000	nontarget	6.000000	na
31.279523	0.039693	33.000000	nontarget	7.000000	na
31.319216	0.043518	33.000000	nontarget	8.000000	na
31.362735	0.040943	33.000000	nontarget	9.000000	na
31.403678	0.042323	33.000000	nontarget	10.000000	na
31.446001	0.039817	33.000000	nontarget	11.000000	na
31.485819	0.043595	33.000000	nontarget	12.000000	na
31.529414	0.039802	33.000000	nontarget	13.000000	na
31.569216	0.043626	33.000000	nontarget	14.000000	na
31.612842	0.039590	33.000000	nontarget	15.000000	na
31.652432	0.043323	33.000000	nontarget	16.000000	na
31.695755	0.040613	34.000000	nontarget	1.000000	31.722464
31.736368	0.042949	34.000000	nontarget	2.000000	na
31.779317	0.050130	34.000000	nontarget	3.000000	na
31.829447	0.050405	34.000000	nontarget	4.000000	na
31.879852	0.049739	34.000000	nontarget	5.000000	na
31.929591	0.050028	34.000000	nontarget	6.000000	na
31.979618	0.040390	34.000000	nontarget	7.000000	na
32.020009	0.042939	34.000000	nontarget	8.000000	na
32.062948	0.039599	34.000000	nontarget	9.000000	na
32.102547	0.043496	34.000000	nontarget	10.000000	na
32.146043	0.040721	34.000000	nontarget	11.000000	na
32.186764	0.042116	34.000000	nontarget	12.000000	na
32.228880	0.040745	34.000000	nontarget	13.000000	na
32.269625	0.043050	34.000000	nontarget	14.000000	na
32.312675	0.050289	34.000000	nontarget	15.000000	na
32.362964	0.050164	34.000000	nontarget	16.000000	na
32.413128	0.050075	35.000000	target	1.000000	na
32.463203	0.049429	35.000000	target	2.000000	na
32.512632	0.040120	35.000000	target	3.000000	na
32.552752	0.042716	35.000000	target	4.000000	na
32.595468	0.041426	35.000000	target	5.000000	na
32.636895	0.041910	35.000000	target	6.000000	na
32.678805	0.050938	35.000000	target	7.000000	na
32.729743	0.039781	35.000000	target	8.000000	na
32.769524	0.042468	35.000000	target	9.000000	na
32.811992	0.050911	35.000000	target	10.000000	na
32.862903	0.050183	35.000000	target	11.000000	na
32.913085	0.049823	35.000000	target	12.000000	na
32.962908	0.049563	35.000000	target	13.000000	na
33.012471	0.050521	35.000000	target	14.000000	na
33.062992	0.049987	35.000000	target	15.000000	na
33.112978	0.040194	35.000000	target	16.000000	33.125192
33.153173	0.042661	36.000000	nontarget	1.000000	33.158346
33.195833	0.040881	36.000000	nontarget	2.000000	na
33.236714	0.050212	36.000000	nontarget	3.000000	na
33.286926	0.042615	36.000000	nontarget	4.000000	na
33.329541	0.040644	36.000000	nontarget	5.000000	na
33.370185	0.042506	36.000000	nontarget	6.000000	na
33.412691	0.050548	36.000000	nontarget	7.000000	na
33.463240	0.049657	36.000000	nontarget	8.000000	na
33.512897	0.049603	36.000000	nontarget	9.000000	na
33.562500	0.050575	36.000000	nontarget	10.000000	na
33.613076	0.050170	36.000000	nontarget	11.000000	na
33.663246	0.049539	36.000000	nontarget	12.000000	na
33.712784	0.039749	36.000000	nontarget	13.000000	na
33.752533	0.043510	36.000000	nontarget	14.000000	na
33.796044	0.040822	36.000000	nontarget	15.000000	na
33.836865	0.041990	36.000000	nontarget	16.000000	na
33.878856	0.040552	37.000000	nontarget	1.000000	na
33.919408	0.042592	37.000000	nontarget	2.000000	na
33.962000	0.041056	37.000000	nontarget	3.000000	na
34.003056	0.043077	37.000000	nontarget	4.000000	na
34.046133	0.050118	37.000000	nontarget	5.000000	34.053841
34.096251	0.050008	37.000000	nontarget	6.000000	na
34.146259	0.049617	37.000000	nontarget	7.000000	na
34.195876	0.050249	37.000000	nontarget	8.000000	na
34.246125	0.050082	37.000000	nontarget	9.000000	na
34.296207	0.049620	37.000000	nontarget	10.000000	na
34.345827	0.040221	37.000000	nontarget	11.000000	na
34.386048	0.042710	37.000000	nontarget	12.000000	na
34.428758	0.050588	37.000000	nontarget	13.000000	na
34.479345	0.040812	37.000000	nontarget	14.000000	na
34.520157	0.042137	37.000000	nontarget	15.000000	na
34.562294	0.050352	37.000000	nontarget	16.000000	na
34.612646	0.039927	38.000000	nontarget	1.000000	na
34.652573	0.042800	38.000000	nontarget	2.000000	na
34.695373	0.050830	38.000000	nontarget	3.000000	na
34.746203	0.049901	38.000000	nontarget	4.000000	na
34.796104	0.056366	38.000000	nontarget	5.000000	na
34.852470	0.043630	38.000000	nontarget	6.000000	34.857161
34.896100	0.050125	38.000000	nontarget	7.000000	na
34.946226	0.053125	38.000000	nontarget	8.000000	na
34.999350	0.046669	38.000000	nontarget	9.000000	na
35.046019	0.039933	38.000000	nontarget	10.000000	na
35.085952	0.043381	38.000000	nontarget	11.000000	na
35.129334	0.041024	38.000000	nontarget	12.000000	na
35.170358	0.042795	38.000000	nontarget	13.000000	na
35.213153	0.049046	38.000000	nontarget	14.000000	na
35.262199	0.040374	38.000000	nontarget	15.000000	na
35.302573	0.043294	38.000000	nontarget	16.000000	na
35.345867	0.040230	39.000000	nontarget	1.000000	na
35.386096	0.043224	39.000000	nontarget	2.000000	na
35.429320	0.050099	39.000000	nontarget	3.000000	na
35.479419	0.039800	39.000000	nontarget	4.000000	na
35.519219	0.043603	39.000000	nontarget	5.000000	na
35.562822	0.040907	39.000000	nontarget	6.000000	na
35.603729	0.049880	39.000000	nontarget	7.000000	na
35.653610	0.041758	39.000000	nontarget	8.000000	na
35.695368	0.051002	39.000000	nontarget	9.000000	na
35.746369	0.040009	39.000000	nontarget	10.000000	na
35.786378	0.043200	39.000000	nontarget	11.000000	na
35.829578	0.039559	39.000000	nontarget	12.000000	na
35.869138	0.043603	39.000000	nontarget	13.000000	na
35.912741	0.053552	39.000000	nontarget	14.000000	35.947112
35.966292	0.045766	39.000000	nontarget	15.000000	na
36.012058	0.050741	39.000000	nontarget	16.000000	na
36.062799	0.040616	40.000000	nontarget	1.000000	36.069519
36.103414	0.042800	40.000000	nontarget	2.000000	na
36.146215	0.040933	40.000000	nontarget	3.000000	na
36.187148	0.042295	40.000000	nontarget	4.000000	na
36.229443	0.049866	40.000000	nontarget	5.000000	na
36.279309	0.041072	40.000000	nontarget	6.000000	na
36.320381	0.041418	40.000000	nontarget	7.000000	na
36.361799	0.040994	40.000000	nontarget	8.000000	na
36.402793	0.042661	40.000000	nontarget	9.000000	na
36.445454	0.050745	40.000000	nontarget	10.000000	na
36.496200	0.040189	40.000000	nontarget	11.000000	na
36.536388	0.041991	40.000000	nontarget	12.000000	na
36.578379	0.050847	40.000000	nontarget	13.000000	na
36.629226	0.040339	40.000000	nontarget	14.000000	na
36.669565	0.043321	40.000000	nontarget	15.000000	na
36.712886	0.039783	40.000000	nontarget	16.000000	36.718629
36.752668	0.043551	41.000000	nontarget	1.000000	36.757851
36.796220	0.050187	41.000000	nontarget	2.000000	na
36.846407	0.049851	41.000000	nontarget	3.000000	na
36.896258	0.039949	41.000000	nontarget	4.000000	na
36.936208	0.042573	41.000000	nontarget	5.000000	na
36.978781	0.050995	41.000000	nontarget	6.000000	na
37.029775	0.039955	41.000000	nontarget	7.000000	na
37.069730	0.043337	41.000000	nontarget	8.000000	na
37.113067	0.039535	41.000000	nontarget	9.000000	na
37.152602	0.042865	41.000000	nontarget	10.000000	na
37.195467	0.040936	41.000000	nontarget	11.000000	na
37.236404	0.042792	41.000000	nontarget	12.000000	na
37.279195	0.040631	41.000000	nontarget	13.000000	na
37.319826	0.041832	41.000000	nontarget	14.000000	na
37.361658	0.041157	41.000000	nontarget	15.000000	na
37.402816	0.042713	41.000000	nontarget	16.000000	na
37.445528	0.050528	42.000000	nontarget	1.000000	na
37.496056	0.049992	42.000000	nontarget	2.000000	na
37.546048	0.049322	42.000000	nontarget	3.000000	na
37.595370	0.041120	42.000000	nontarget	4.000000	na
37.636490	0.042996	42.000000	nontarget	5.000000	na
37.679486	0.050083	42.000000	nontarget	6.000000	37.688533
37.729570	0.039882	42.000000	nontarget	7.000000	na
37.769451	0.043141	42.000000	nontarget	8.000000	na
37.812592	0.049369	42.000000	nontarget	9.000000	na
37.861960	0.040601	42.000000	nontarget	10.000000	na
37.902561	0.043307	42.000000	nontarget	11.000000	na
37.945869	0.053886	42.000000	nontarget	12.000000	na
37.999754	0.046004	42.000000	nontarget	13.000000	na
38.045758	0.050436	42.000000	nontarget	14.000000	na
38.096195	0.049972	42.000000	nontarget	15.000000	na
38.146166	0.049682	42.000000	nontarget	16.000000	na
38.195848	0.040631	43.000000	nontarget	1.000000	na
38.236480	0.042102	43.000000	nontarget	2.000000	na
38.278581	0.050825	43.000000	nontarget	3.000000	na
38.329407	0.039815	43.000000	nontarget	4.000000	na
38.369221	0.043497	43.000000	nontarget	5.000000	na
38.412718	0.049714	43.000000	nontarget	6.000000	na
38.462433	0.050067	43.000000	nontarget	7.000000	na
38.512500	0.040227	43.000000	nontarget	8.000000	na
38.552727	0.042425	43.000000	nontarget	9.000000	38.562295
38.595152	0.051050	43.000000	nontarget	10.000000	na
38.646201	0.049547	43.000000	nontarget	11.000000	na
38.695748	0.041361	43.000000	nontarget	12.000000	na
38.737109	0.041819	43.000000	nontarget	13.000000	na
38.778928	0.040280	43.000000	nontarget	14.000000	na
38.819209	0.042776	43.000000	nontarget	15.000000	na
38.861985	0.050896	43.000000	nontarget	16.000000	na
38.912880	0.049604	44.000000	nontarget	1.000000	na
38.962484	0.040404	44.000000	nontarget	2.000000	na
39.002888	0.042382	44.000000	nontarget	3.000000	na
39.045270	0.050926	44.000000	nontarget	4.000000	na
39.096196	0.049914	44.000000	nontarget	5.000000	na
39.146111	0.050084	44.000000	nontarget	6.000000	na
39.196195	0.049779	44.000000	nontarget	7.000000	na
39.245974	0.039858	44.000000	nontarget	8.000000	na
39.285832	0.042509	44.000000	nontarget	9.000000	na
39.328341	0.041250	44.000000	nontarget	10.000000	39.353666
39.369591	0.042845	44.000000	nontarget	11.000000	na
39.412436	0.041208	44.000000	nontarget	12.000000	na
39.453644	0.042156	44.000000	nontarget	13.000000	na
39.495800	0.050354	44.000000	nontarget	14.000000	na
39.546154	0.039739	44.000000	nontarget	15.000000	na
39.585893	0.043502	44.000000	nontarget	16.000000	na
39.629396	0.040878	45.000000	nontarget	1.000000	na
39.670273	0.041984	45.000000	nontarget	2.000000	na
39.712257	0.050571	45.000000	nontarget	3.000000	na
39.762828	0.040292	45.000000	nontarget	4.000000	na
39.803120	0.042806	45.000000	nontarget	5.000000	na
39.845927	0.049550	45.000000	nontarget	6.000000	na
39.895476	0.040310	45.000000	nontarget	7.000000	na
39.935786	0.042576	45.000000	nontarget	8.000000	na
39.978362	0.041491	45.000000	nontarget	9.000000	na
40.019853	0.043181	45.000000	nontarget	10.000000	na
40.063033	0.049846	45.000000	nontarget	11.000000	na
40.112880	0.049854	45.000000	nontarget	12.000000	na
40.162734	0.039865	45.000000	nontarget	13.000000	na
40.202599	0.043078	45.000000	nontarget	14.000000	40.226956
40.245676	0.041425	45.000000	nontarget	15.000000	na
40.287101	0.049867	45.000000	nontarget	16.000000	na
40.336968	0.042279	46.000000	nontarget	1.000000	40.343535
40.379247	0.040062	46.000000	nontarget	2.000000	na
40.419309	0.042659	46.000000	nontarget	3.000000	na
40.461968	0.050824	46.000000	nontarget	4.000000	na
40.512792	0.050084	46.000000	nontarget	5.000000	na
40.562876	0.049663	46.000000	nontarget	6.000000	na
40.612539	0.040091	46.000000	nontarget	7.000000	na
40.652630	0.043404	46.000000	nontarget	8.000000	na
40.696034	0.050091	46.000000	nontarget	9.000000	na
40.746125	0.040345	46.000000	nontarget	10.000000	na
40.786470	0.041793	46.000000	nontarget	11.000000	na
40.828263	0.050808	46.000000	nontarget	12.000000	na
40.879070	0.050412	46.000000	nontarget	13.000000	na
40.929482	0.050181	46.000000	nontarget	14.000000	na
40.979663	0.049704	46.000000	nontarget	15.000000	na
41.029367	0.040549	46.000000	nontarget	16.000000	na
41.069916	0.042679	47.000000	nontarget	1.000000	na
41.112595	0.050013	47.000000	nontarget	2.000000	na
41.162608	0.050374	47.000000	nontarget	3.000000	41.181830
41.212981	0.049048	47.000000	nontarget	4.000000	na
41.262030	0.041351	47.000000	nontarget	5.000000	na
41.303380	0.041816	47.000000	nontarget	6.000000	na
41.345197	0.041935	47.000000	nontarget	7.000000	na
41.387131	0.041733	47.000000	nontarget	8.000000	na
41.428864	0.050654	47.000000	nontarget	9.000000	na
41.479518	0.049949	47.000000	nontarget	10.000000	na
41.529467	0.049997	47.000000	nontarget	11.000000	na
41.579464	0.050031	47.000000	nontarget	12.000000	na
41.629495	0.049834	47.000000	nontarget	13.000000	na
41.679329	0.039982	47.000000	nontarget	14.000000	na
41.719312	0.043653	47.000000	nontarget	15.000000	na
41.762965	0.040578	47.000000	nontarget	16.000000	na
41.803543	0.042360	48.000000	nontarget	1.000000	na
41.845903	0.049666	48.000000	nontarget	2.000000	na
41.895569	0.042526	48.000000	nontarget	3.000000	41.919844
41.938095	0.047829	48.000000	nontarget	4.000000	na
41.985924	0.043658	48.000000	nontarget	5.000000	na
42.029581	0.049937	48.000000	nontarget	6.000000	na
42.079518	0.049842	48.000000	nontarget	7.000000	na
42.129360	0.039848	48.000000	nontarget	8.000000	na
42.169207	0.043139	48.000000	nontarget	9.000000	na
42.212346	0.040871	48.000000	nontarget	10.000000	na
42.253218	0.042035	48.000000	nontarget	11.000000	na
42.295253	0.050862	48.000000	nontarget	12.000000	na
42.346114	0.050010	48.000000	nontarget	13.000000	na
42.396124	0.048966	48.000000	nontarget	14.000000	na
42.445091	0.040766	48.000000	nontarget	15.000000	na
42.485857	0.043744	48.000000	nontarget	16.000000	na
42.529600	0.040359	49.000000	nontarget	1.000000	na
42.569960	0.042521	49.000000	nontarget	2.000000	na
42.612480	0.050168	49.000000	nontarget	3.000000	na
42.662648	0.039927	49.000000	nontarget	4.000000	na
42.702576	0.042994	49.000000	nontarget	5.000000	na
42.745570	0.040537	49.000000	nontarget	6.000000	na
42.786107	0.042792	49.000000	nontarget	7.000000	na
42.828898	0.050743	49.000000	nontarget	8.000000	42.862339
42.879642	0.050017	49.000000	nontarget	9.000000	na
42.929658	0.049852	49.000000	nontarget	10.000000	na
42.979510	0.040777	49.000000	nontarget	11.000000	na
43.020287	0.041923	49.000000	nontarget	12.000000	na
43.062210	0.041404	49.000000	nontarget	13.000000	na
43.103614	0.041913	49.000000	nontarget	14.000000	na
43.145527	0.050579	49.000000	nontarget	15.000000	na
43.196107	0.040013	49.000000	nontarget	16.000000	na
43.236119	0.042564	50.000000	nontarget	1.000000	na
43.278684	0.050741	50.000000	nontarget	2.000000	na
43.329425	0.039728	50.000000	nontarget	3.000000	na
43.369152	0.043099	50.000000	nontarget	4.000000	na
43.412252	0.050588	50.000000	nontarget	5.000000	na
43.462839	0.049173	50.000000	nontarget	6.000000	na
43.512013	0.041562	50.000000	nontarget	7.000000	na
43.553574	0.050054	50.000000	nontarget	8.000000	na
43.603628	0.042180	50.000000	nontarget	9.000000	na
43.645808	0.049629	50.000000	nontarget	10.000000	na
43.695437	0.041103	50.000000	nontarget	11.000000	na
43.736540	0.042969	50.000000	nontarget	12.000000	43.745872
43.779509	0.039928	50.000000	nontarget	13.000000	na
43.819437	0.043201	50.000000	nontarget	14.000000	na
43.862638	0.040195	50.000000	nontarget	15.000000	na
43.902833	0.043132	50.000000	nontarget	16.000000	na
43.945964	0.040438	51.000000	nontarget	1.000000	na
43.986402	0.042597	51.000000	nontarget	2.000000	na
44.028999	0.050347	51.000000	nontarget	3.000000	na
44.079347	0.040120	51.000000	nontarget	4.000000	na
44.119467	0.042364	51.000000	nontarget	5.000000	na
44.161832	0.050631	51.000000	nontarget	6.000000	na
44.212463	0.040718	51.000000	nontarget	7.000000	na
44.253181	0.042078	51.000000	nontarget	8.000000	na
44.295259	0.041009	51.000000	nontarget	9.000000	na
44.336268	0.043023	51.000000	nontarget	10.000000	na
44.379290	0.049610	51.000000	nontarget	11.000000	na
44.428900	0.050522	51.000000	nontarget	12.000000	na
44.479422	0.049957	51.000000	nontarget	13.000000	na
44.529379	0.040057	51.000000	nontarget	14.000000	na
44.569435	0.042737	51.000000	nontarget	15.000000	na
44.612172	0.050632	51.000000	nontarget	16.000000	na
44.662804	0.050329	52.000000	nontarget	1.000000	44.690168
44.713132	0.049210	52.000000	nontarget	2.000000	na
44.762342	0.040672	52.000000	nontarget	3.000000	na
44.803014	0.043175	52.000000	nontarget	4.000000	na
44.846189	0.049961	52.000000	nontarget	5.000000	na
44.896150	0.040214	52.000000	nontarget	6.000000	na
44.936365	0.042563	52.000000	nontarget	7.000000	na
44.978928	0.049951	52.000000	nontarget	8.000000	na
45.028879	0.041555	52.000000	nontarget	9.000000	na
45.070433	0.049200	52.000000	nontarget	10.000000	na
45.119633	0.041923	52.000000	nontarget	11.000000	na
45.161556	0.041914	52.000000	nontarget	12.000000	na
45.203470	0.041931	52.000000	nontarget	13.000000	na
45.245401	0.050835	52.000000	nontarget	14.000000	na
45.296236	0.049484	52.000000	nontarget	15.000000	na
45.345720	0.040023	52.000000	nontarget	16.000000	na
45.385743	0.043914	53.000000	nontarget	1.000000	na
45.429657	0.040731	53.000000	nontarget	2.000000	na
45.470388	0.041634	53.000000	nontarget	3.000000	na
45.512022	0.040597	53.000000	nontarget	4.000000	na
45.552619	0.042743	53.000000	nontarget	5.000000	45.558000
45.595361	0.050698	53.000000	nontarget	6.000000	na
45.646059	0.041050	53.000000	nontarget	7.000000	na
45.687109	0.041186	53.000000	nontarget	8.000000	na
45.728295	0.050930	53.000000	nontarget	9.000000	na
45.779225	0.050196	53.000000	nontarget	10.000000	na
45.829421	0.049994	53.000000	nontarget	11.000000	na
45.879415	0.050258	53.000000	nontarget	12.000000	na
45.929673	0.049685	53.000000	nontarget	13.000000	na
45.979358	0.049885	53.000000	nontarget	14.000000	na
46.029244	0.050385	53.000000	nontarget	15.000000	na
46.079629	0.049443	53.000000	nontarget	16.000000	na
46.129071	0.040689	54.000000	nontarget	1.000000	na
46.169760	0.042809	54.000000	nontarget	2.000000	na
46.212570	0.050201	54.000000	nontarget	3.000000	na
46.262771	0.049669	54.000000	nontarget	4.000000	na
46.312439	0.040269	54.000000	nontarget	5.000000	na
46.352708	0.042328	54.000000	nontarget	6.000000	na
46.395037	0.051029	54.000000	nontarget	7.000000	na
46.446065	0.040419	54.000000	nontarget	8.000000	na
46.486485	0.041866	54.000000	nontarget	9.000000	46.511146
46.528351	0.041463	54.000000	nontarget	10.000000	na
46.569814	0.042878	54.000000	nontarget	11.000000	na
46.612692	0.040754	54.000000	nontarget	12.000000	na
46.653446	0.042652	54.000000	nontarget	13.000000	na
46.696098	0.049922	54.000000	nontarget	14.000000	na
46.746019	0.040298	54.000000	nontarget	15.000000	na
46.786318	0.042871	54.000000	nontarget	16.000000	na
46.829189	0.050216	55.000000	nontarget	1.000000	na
46.879404	0.040023	55.000000	nontarget	2.000000	na
46.919427	0.042834	55.000000	nontarget	3.000000	na
46.962261	0.050236	55.000000	nontarget	4.000000	na
47.012498	0.050306	55.000000	nontarget	5.000000	na
47.062804	0.040227	55.000000	nontarget	6.000000	na
47.103031	0.042631	55.000000	nontarget	7.000000	na
47.145662	0.050406	55.000000	nontarget	8.000000	na
47.196068	0.049982	55.000000	nontarget	9.000000	na
47.246050	0.040164	55.000000	nontarget	10.000000	na
47.286214	0.042746	55.000000	nontarget	11.000000	na
47.328960	0.050551	55.000000	nontarget	12.000000	na
47.379511	0.047015	55.000000	nontarget	13.000000	47.410413
47.426526	0.042735	55.000000	nontarget	14.000000	na
47.469261	0.042640	55.000000	nontarget	15.000000	na
47.511901	0.040812	55.000000	nontarget	16.000000	na
47.552714	0.042483	56.000000	nontarget	1.000000	na
47.595196	0.041480	56.000000	nontarget	2.000000	na
47.636676	0.042157	56.000000	nontarget	3.000000	na
47.678833	0.040748	56.000000	nontarget	4.000000	na
47.719581	0.043071	56.000000	nontarget	5.000000	na
47.762652	0.039949	56.000000	nontarget	6.000000	na
47.802601	0.043271	56.000000	nontarget	7.000000	na
47.845872	0.041108	56.000000	nontarget	8.000000	na
47.886980	0.042471	56.000000	nontarget	9.000000	na
47.929451	0.049592	56.000000	nontarget	10.000000	na
47.979043	0.050405	56.000000	nontarget	11.000000	na
48.029448	0.049978	56.000000	nontarget	12.000000	na
48.079426	0.050032	56.000000	nontarget	13.000000	na
48.129458	0.040363	56.000000	nontarget	14.000000	na
48.169820	0.042648	56.000000	nontarget	15.000000	na
48.212468	0.050025	56.000000	nontarget	16.000000	na
48.262493	0.040360	57.000000	nontarget	1.000000	na
48.302853	0.043362	57.000000	nontarget	2.000000	48.320596
48.346215	0.049146	57.000000	nontarget	3.000000	na
48.395361	0.041087	57.000000	nontarget	4.000000	na
48.436449	0.042065	57.000000	nontarget	5.000000	na
48.478514	0.050981	57.000000	nontarget	6.000000	na
48.529494	0.039844	57.000000	nontarget	7.000000	na
48.569338	0.043105	57.000000	nontarget	8.000000	na
48.612443	0.041291	57.000000	nontarget	9.000000	na
48.653734	0.042171	57.000000	nontarget	10.000000	na
48.695905	0.040938	57.000000	nontarget	11.000000	na
48.736844	0.042096	57.000000	nontarget	12.000000	na
48.778940	0.040910	57.000000	nontarget	13.000000	na
48.819850	0.041744	57.000000	nontarget	14.000000	na
48.861594	0.051123	57.000000	nontarget	15.000000	na
48.912717	0.040191	57.000000	nontarget	16.000000	na
48.952908	0.050064	58.000000	target	1.000000	na
49.002972	0.043158	58.000000	target	2.000000	na
49.046130	0.050063	58.000000	target	3.000000	na
49.096193	0.039838	58.000000	target	4.000000	na
49.136031	0.042229	58.000000	target	5.000000	na
49.178260	0.050940	58.000000	target	6.000000	na
49.229200	0.050057	58.000000	target	7.000000	na
49.279256	0.041027	58.000000	target	8.000000	na
49.320283	0.042376	58.000000	target	9.000000	na
49.362660	0.040050	58.000000	target	10.000000	na
49.402709	0.042257	58.000000	target	11.000000	na
49.444966	0.050913	58.000000	target	12.000000	na
49.495879	0.050130	58.000000	target	13.000000	na
49.546008	0.050005	58.000000	target	14.000000	49.573315
49.596014	0.040415	58.000000	target	15.000000	na
49.636428	0.043000	58.000000	target	16.000000	na
49.679429	0.050027	59.000000	nontarget	1.000000	49.685945
49.729455	0.049233	59.000000	nontarget	2.000000	na
49.778688	0.041108	59.000000	nontarget	3.000000	na
49.819797	0.043007	59.000000	nontarget	4.000000	na
49.862804	0.049704	59.000000	nontarget	5.000000	na
49.912508	0.041191	59.000000	nontarget	6.000000	na
49.953699	0.047076	59.000000	nontarget	7.000000	na
50.000775	0.045257	59.000000	nontarget	8.000000	na
50.046032	0.049366	59.000000	nontarget	9.000000	na
50.095397	0.041321	59.000000	nontarget	10.000000	na
50.136719	0.050377	59.000000	nontarget	11.000000	na
50.187096	0.041939	59.000000	nontarget	12.000000	na
50.229035	0.050185	59.000000	nontarget	13.000000	na
50.279220	0.041146	59.000000	nontarget	14.000000	na
50.320366	0.049098	59.000000	nontarget	15.000000	na
50.369464	0.043166	59.000000	nontarget	16.000000	na
50.412630	0.041063	60.000000	nontarget	1.000000	na
50.453693	0.050103	60.000000	nontarget	2.000000	na
50.503796	0.053626	60.000000	nontarget	3.000000	50.537803
50.557422	0.046100	60.000000	nontarget	4.000000	na
50.603522	0.042221	60.000000	nontarget	5.000000	na
50.645743	0.041182	60.000000	nontarget	6.000000	na
50.686925	0.050217	60.000000	nontarget	7.000000	na
50.737143	0.041033	60.000000	nontarget	8.000000	na
50.778176	0.042055	60.000000	nontarget	9.000000	na
50.820231	0.042202	60.000000	nontarget	10.000000	na
50.862434	0.041167	60.000000	nontarget	11.000000	na
50.903601	0.050014	60.000000	nontarget	12.000000	na
50.953614	0.049893	60.000000	nontarget	13.000000	na
51.003508	0.041518	60.000000	nontarget	14.000000	na
51.045026	0.041125	60.000000	nontarget	15.000000	na
51.086151	0.043348	60.000000	nontarget	16.000000	na
51.129499	0.049841	61.000000	target	1.000000	na
51.179340	0.039816	61.000000	target	2.000000	na
51.219156	0.043384	61.000000	target	3.000000	na
51.262541	0.041169	61.000000	target	4.000000	na
51.303710	0.041817	61.000000	target	5.000000	na
51.345527	0.050476	61.000000	target	6.000000	na
51.396003	0.040875	61.000000	target	7.000000	na
51.436879	0.050067	61.000000	target	8.000000	na
51.486946	0.041328	61.000000	target	9.000000	na
51.528273	0.050262	61.000000	target	10.000000	na
51.578535	0.040639	61.000000	target	11.000000	na
51.619173	0.043529	61.000000	target	12.000000	na
51.662702	0.050110	61.000000	target	13.000000	na
51.712812	0.039883	61.000000	target	14.000000	na
51.752695	0.042192	61.000000	target	15.000000	na
51.794888	0.050940	61.000000	target	16.000000	na
51.845827	0.049982	62.000000	nontarget	1.000000	na
51.895810	0.050176	62.000000	nontarget	2.000000	na
51.945986	0.039648	62.000000	nontarget	3.000000	na
51.985634	0.047850	62.000000	nontarget	4.000000	52.020921
52.033484	0.045241	62.000000	nontarget	5.000000	na
52.078725	0.041395	62.000000	nontarget	6.000000	na
52.120120	0.042460	62.000000	nontarget	7.000000	na
52.162580	0.040739	62.000000	nontarget	8.000000	na
52.203319	0.042518	62.000000	nontarget	9.000000	na
52.245838	0.050099	62.000000	nontarget	10.000000	na
52.295937	0.041142	62.000000	nontarget	11.000000	na
52.337079	0.042137	62.000000	nontarget	12.000000	na
52.379216	0.039938	62.000000	nontarget	13.000000	na
52.419154	0.043514	62.000000	nontarget	14.000000	na
52.462668	0.040347	62.000000	nontarget	15.000000	na
52.503014	0.041898	62.000000	nontarget	16.000000	na
52.544913	0.040902	63.000000	nontarget	1.000000	na
52.585815	0.043199	63.000000	nontarget	2.000000	na
52.629014	0.040496	63.000000	nontarget	3.000000	na
52.669510	0.042885	63.000000	nontarget	4.000000	na
52.712395	0.050038	63.000000	nontarget	5.000000	na
52.762433	0.040027	63.000000	nontarget	6.000000	na
52.802460	0.043420	63.000000	nontarget	7.000000	na
52.845880	0.040825	63.000000	nontarget	8.000000	na
52.886705	0.042759	63.000000	nontarget	9.000000	na
52.929464	0.040226	63.000000	nontarget	10.000000	na
52.969690	0.041894	63.000000	nontarget	11.000000	52.987072
53.011584	0.041081	63.000000	nontarget	12.000000	na
53.052665	0.042566	63.000000	nontarget	13.000000	na
53.095231	0.040759	63.000000	nontarget	14.000000	na
53.135989	0.043076	63.000000	nontarget	15.000000	na
53.179066	0.040670	63.000000	nontarget	16.000000	na
53.219736	0.042114	64.000000	nontarget	1.000000	na
53.261850	0.041097	64.000000	nontarget	2.000000	na
53.302947	0.041893	64.000000	nontarget	3.000000	na
53.344840	0.042142	64.000000	nontarget	4.000000	na
53.386982	0.042203	64.000000	nontarget	5.000000	na
53.429184	0.041127	64.000000	nontarget	6.000000	na
53.470312	0.041829	64.000000	nontarget	7.000000	na
53.512141	0.040975	64.000000	nontarget	8.000000	na
53.553116	0.042463	64.000000	nontarget	9.000000	na
53.595579	0.049607	64.000000	nontarget	10.000000	na
53.645186	0.040928	64.000000	nontarget	11.000000	na
53.686114	0.043104	64.000000	nontarget	12.000000	na
53.729218	0.040101	64.000000	nontarget	13.000000	na
53.769319	0.042113	64.000000	nontarget	14.000000	na
53.811432	0.041780	64.000000	nontarget	15.000000	53.828382
53.853212	0.042103	64.000000	nontarget	16.000000	na
53.895315	0.050661	65.000000	nontarget	1.000000	53.900469
53.945977	0.053423	65.000000	nontarget	2.000000	na
53.999400	0.045828	65.000000	nontarget	3.000000	na
54.045227	0.041519	65.000000	nontarget	4.000000	na
54.086746	0.042462	65.000000	nontarget	5.000000	na
54.129208	0.040812	65.000000	nontarget	6.000000	na
54.170020	0.041365	65.000000	nontarget	7.000000	na
54.211385	0.041975	65.000000	nontarget	8.000000	na
54.253360	0.041839	65.000000	nontarget	9.000000	na
54.295199	0.041233	65.000000	nontarget	10.000000	na
54.336432	0.041680	65.000000	nontarget	11.000000	na
54.378112	0.041367	65.000000	nontarget	12.000000	na
54.419479	0.043101	65.000000	nontarget	13.000000	na
54.462580	0.039899	65.000000	nontarget	14.000000	na
54.502478	0.042571	65.000000	nontarget	15.000000	na
54.545049	0.050843	65.000000	nontarget	16.000000	na
54.595892	0.049766	66.000000	nontarget	1.000000	na
54.645658	0.041052	66.000000	nontarget	2.000000	na
54.686710	0.042459	66.000000	nontarget	3.000000	na
54.729169	0.049439	66.000000	nontarget	4.000000	54.740389
54.778609	0.041754	66.000000	nontarget	5.000000	na
54.820363	0.049751	66.000000	nontarget	6.000000	na
54.870114	0.042416	66.000000	nontarget	7.000000	na
54.912531	0.041097	66.000000	nontarget	8.000000	na
54.953628	0.046950	66.000000	nontarget	9.000000	na
55.000578	0.045598	66.000000	nontarget	10.000000	na
55.046175	0.040925	66.000000	nontarget	11.000000	na
55.087100	0.050023	66.000000	nontarget	12.000000	na
55.137123	0.041035	66.000000	nontarget	13.000000	na
55.178158	0.041269	66.000000	nontarget	14.000000	na
55.219427	0.042373	66.000000	nontarget	15.000000	na
55.261800	0.050649	66.000000	nontarget	16.000000	na
55.312448	0.041118	67.000000	nontarget	1.000000	na
55.353567	0.050238	67.000000	nontarget	2.000000	na
55.403804	0.041067	67.000000	nontarget	3.000000	na
55.444871	0.041076	67.000000	nontarget	4.000000	na
55.485947	0.043487	67.000000	nontarget	5.000000	na
55.529434	0.049225	67.000000	nontarget	6.000000	na
55.578659	0.041243	67.000000	nontarget	7.000000	na
55.619902	0.041848	67.000000	nontarget	8.000000	na
55.661750	0.040724	67.000000	nontarget	9.000000	na
55.702475	0.042681	67.000000	nontarget	10.000000	na
55.745156	0.050568	67.000000	nontarget	11.000000	55.763030
55.795723	0.041175	67.000000	nontarget	12.000000	na
55.836898	0.049291	67.000000	nontarget	13.000000	na
55.886189	0.043028	67.000000	nontarget	14.000000	na
55.929216	0.040099	67.000000	nontarget	15.000000	na
55.969315	0.042564	67.000000	nontarget	16.000000	na
56.011879	0.050131	68.000000	nontarget	1.000000	na
56.062011	0.040854	68.000000	nontarget	2.000000	na
56.102865	0.043392	68.000000	nontarget	3.000000	na
56.146257	0.049150	68.000000	nontarget	4.000000	na
56.195407	0.040504	68.000000	nontarget	5.000000	na
56.235911	0.042443	68.000000	nontarget	6.000000	na
56.278354	0.050542	68.000000	nontarget	7.000000	na
56.328896	0.040540	68.000000	nontarget	8.000000	na
56.369435	0.042513	68.000000	nontarget	9.000000	na
56.411949	0.050997	68.000000	nontarget	10.000000	na
56.462946	0.049346	68.000000	nontarget	11.000000	na
56.512292	0.050313	68.000000	nontarget	12.000000	na
56.562605	0.049250	68.000000	nontarget	13.000000	na
56.611855	0.041517	68.000000	nontarget	14.000000	na
56.653372	0.042599	68.000000	nontarget	15.000000	56.667499
56.695972	0.039862	68.000000	nontarget	16.000000	na
56.735834	0.043586	69.000000	nontarget	1.000000	56.741011
56.779420	0.039828	69.000000	nontarget	2.000000	na
56.819248	0.042487	69.000000	nontarget	3.000000	na
56.861735	0.050702	69.000000	nontarget	4.000000	na
56.912438	0.041350	69.000000	nontarget	5.000000	na
56.953787	0.047595	69.000000	nontarget	6.000000	na
57.001382	0.043722	69.000000	nontarget	7.000000	na
57.045104	0.050848	69.000000	nontarget	8.000000	na
57.095951	0.040233	69.000000	nontarget	9.000000	na
57.136184	0.043331	69.000000	nontarget	10.000000	na
57.179515	0.049309	69.000000	nontarget	11.000000	na
57.228824	0.040324	69.000000	nontarget	12.000000	na
57.269148	0.043626	69.000000	nontarget	13.000000	na
57.312774	0.050147	69.000000	nontarget	14.000000	na
57.362921	0.049759	69.000000	nontarget	15.000000	na
57.412680	0.040125	69.000000	nontarget	16.000000	na
57.452805	0.043366	70.000000	nontarget	1.000000	na
57.496171	0.040000	70.000000	nontarget	2.000000	na
57.536171	0.043324	70.000000	nontarget	3.000000	na
57.579495	0.040809	70.000000	nontarget	4.000000	57.590243
57.620304	0.042217	70.000000	nontarget	5.000000	na
57.662522	0.041195	70.000000	nontarget	6.000000	na
57.703717	0.048939	70.000000	nontarget	7.000000	na
57.752656	0.042576	70.000000	nontarget	8.000000	na
57.795232	0.050707	70.000000	nontarget	9.000000	na
57.845939	0.049940	70.000000	nontarget	10.000000	na
57.895879	0.040526	70.000000	nontarget	11.000000	na
57.936405	0.042027	70.000000	nontarget	12.000000	na
57.978432	0.041395	70.000000	nontarget	13.000000	na
58.019827	0.041853	70.000000	nontarget	14.000000	na
58.061680	0.040763	70.000000	nontarget	15.000000	na
58.102443	0.043029	70.000000	nontarget	16.000000	na
58.145472	0.049826	71.000000	nontarget	1.000000	na
58.195298	0.045265	71.000000	nontarget	2.000000	58.226587
58.240563	0.046689	71.000000	nontarget	3.000000	na
58.287252	0.041502	71.000000	nontarget	4.000000	na
58.328753	0.050275	71.000000	nontarget	5.000000	na
58.379029	0.040744	71.000000	nontarget	6.000000	na
58.419772	0.042617	71.000000	nontarget	7.000000	na
58.462390	0.041438	71.000000	nontarget	8.000000	na
58.503827	0.041918	71.000000	nontarget	9.000000	na
58.545745	0.040871	71.000000	nontarget	10.000000	na
58.586616	0.042116	71.000000	nontarget	11.000000	na
58.628732	0.050119	71.000000	nontarget	12.000000	na
58.678851	0.050377	71.000000	nontarget	13.000000	na
58.729229	0.040322	71.000000	nontarget	14.000000	na
58.769550	0.042733	71.000000	nontarget	15.000000	na
58.812283	0.041084	71.000000	nontarget	16.000000	na
58.853367	0.042154	72.000000	nontarget	1.000000	na
58.895522	0.040458	72.000000	nontarget	2.000000	na
58.935980	0.043211	72.000000	nontarget	3.000000	58.952905
58.979191	0.040616	72.000000	nontarget	4.000000	na
59.019807	0.042689	72.000000	nontarget	5.000000	na
59.062496	0.040732	72.000000	nontarget	6.000000	na
59.103228	0.042938	72.000000	nontarget	7.000000	na
59.146166	0.049208	72.000000	nontarget	8.000000	na
59.195374	0.041201	72.000000	nontarget	9.000000	na
59.236575	0.041868	72.000000	nontarget	10.000000	na
59.278443	0.040716	72.000000	nontarget	11.000000	na
59.319158	0.043280	72.000000	nontarget	12.000000	na
59.362438	0.040952	72.000000	nontarget	13.000000	na
59.403390	0.042122	72.000000	nontarget	14.000000	na
59.445512	0.041612	72.000000	nontarget	15.000000	na
59.487124	0.050021	72.000000	nontarget	16.000000	na
59.537144	0.042276	73.000000	nontarget	1.000000	na
59.579420	0.039849	73.000000	nontarget	2.000000	na
59.619270	0.042423	73.000000	nontarget	3.000000	na
59.661693	0.041878	73.000000	nontarget	4.000000	59.686909
59.703571	0.042662	73.000000	nontarget	5.000000	na
59.746233	0.039966	73.000000	nontarget	6.000000	na
59.786198	0.042053	73.000000	nontarget	7.000000	na
59.828251	0.041363	73.000000	nontarget	8.000000	na
59.869614	0.042969	73.000000	nontarget	9.000000	na
59.912582	0.040798	73.000000	nontarget	10.000000	na
59.953380	0.047977	73.000000	nontarget	11.000000	na
60.001357	0.043938	73.000000	nontarget	12.000000	na
60.045295	0.041796	73.000000	nontarget	13.000000	na
60.087091	0.049836	73.000000	nontarget	14.000000	na
60.136927	0.041899	73.000000	nontarget	15.000000	na
60.178826	0.049831	73.000000	nontarget	16.000000	na
60.228657	0.040553	74.000000	nontarget	1.000000	na
60.269210	0.048551	74.000000	nontarget	2.000000	60.302331
60.317761	0.044347	74.000000	nontarget	3.000000	na
60.362108	0.041647	74.000000	nontarget	4.000000	na
60.403755	0.041640	74.000000	nontarget	5.000000	na
60.445394	0.040462	74.000000	nontarget	6.000000	na
60.485857	0.043037	74.000000	nontarget	7.000000	na
60.528894	0.050308	74.000000	nontarget	8.000000	na
60.579202	0.040618	74.000000	nontarget	9.000000	na
60.619820	0.042510	74.000000	nontarget	10.000000	na
60.662330	0.050205	74.000000	nontarget	11.000000	na
60.712536	0.040251	74.000000	nontarget	12.000000	na
60.752786	0.042787	74.000000	nontarget	13.000000	na
60.795573	0.049957	74.000000	nontarget	14.000000	na
60.845530	0.041589	74.000000	nontarget	15.000000	na
60.887120	0.049801	74.000000	nontarget	16.000000	na
60.936921	0.041900	75.000000	nontarget	1.000000	na
60.978821	0.050634	75.000000	nontarget	2.000000	na
61.029455	0.049768	75.000000	nontarget	3.000000	na
61.079223	0.040375	75.000000	nontarget	4.000000	na
61.119598	0.042228	75.000000	nontarget	5.000000	na
61.161826	0.050738	75.000000	nontarget	6.000000	na
61.212564	0.049843	75.000000	nontarget	7.000000	na
61.262407	0.049445	75.000000	nontarget	8.000000	61.269173
61.311852	0.041016	75.000000	nontarget	9.000000	na
61.352868	0.042302	75.000000	nontarget	10.000000	na
61.395169	0.041677	75.000000	nontarget	11.000000	na
61.436846	0.041628	75.000000	nontarget	12.000000	na
61.478474	0.050585	75.000000	nontarget	13.000000	na
61.529059	0.040186	75.000000	nontarget	14.000000	na
61.569245	0.042157	75.000000	nontarget	15.000000	na
61.611403	0.041047	75.000000	nontarget	16.000000	na
61.652449	0.043236	76.000000	nontarget	1.000000	na
61.695685	0.041030	76.000000	nontarget	2.000000	na
61.736715	0.042594	76.000000	nontarget	3.000000	na
61.779309	0.039938	76.000000	nontarget	4.000000	na
61.819247	0.042173	76.000000	nontarget	5.000000	na
61.861421	0.050949	76.000000	nontarget	6.000000	na
61.912369	0.040057	76.000000	nontarget	7.000000	na
61.952427	0.048537	76.000000	nontarget	8.000000	na
62.000963	0.044398	76.000000	nontarget	9.000000	na
62.045361	0.052630	76.000000	nontarget	10.000000	62.082314
62.097992	0.047678	76.000000	nontarget	11.000000	na
62.145669	0.041400	76.000000	nontarget	12.000000	na
62.187069	0.041219	76.000000	nontarget	13.000000	na
62.228289	0.050163	76.000000	nontarget	14.000000	na
62.278452	0.040938	76.000000	nontarget	15.000000	na
62.319391	0.042088	76.000000	nontarget	16.000000	na
62.361478	0.041724	77.000000	nontarget	1.000000	na
62.403203	0.042538	77.000000	nontarget	2.000000	na
62.445741	0.049741	77.000000	nontarget	3.000000	na
62.495481	0.041252	77.000000	nontarget	4.000000	na
62.536734	0.042372	77.000000	nontarget	5.000000	na
62.579106	0.040937	77.000000	nontarget	6.000000	na
62.620043	0.050386	77.000000	nontarget	7.000000	na
62.670428	0.041331	77.000000	nontarget	8.000000	na
62.711759	0.041370	77.000000	nontarget	9.000000	na
62.753129	0.042658	77.000000	nontarget	10.000000	na
62.795787	0.049647	77.000000	nontarget	11.000000	na
62.845434	0.040669	77.000000	nontarget	12.000000	na
62.886103	0.042754	77.000000	nontarget	13.000000	na
62.928857	0.050175	77.000000	nontarget	14.000000	na
62.979032	0.050072	77.000000	nontarget	15.000000	na
63.029104	0.050082	77.000000	nontarget	16.000000	na
63.079187	0.049405	78.000000	nontarget	1.000000	63.098948
63.128592	0.041490	78.000000	nontarget	2.000000	na
63.170081	0.042303	78.000000	nontarget	3.000000	na
63.212385	0.040432	78.000000	nontarget	4.000000	na
63.252817	0.042268	78.000000	nontarget	5.000000	na
63.295085	0.042073	78.000000	nontarget	6.000000	na
63.337157	0.042069	78.000000	nontarget	7.000000	na
63.379227	0.041038	78.000000	nontarget	8.000000	na
63.420265	0.041589	78.000000	nontarget	9.000000	na
63.461854	0.040903	78.000000	nontarget	10.000000	na
63.502757	0.042965	78.000000	nontarget	11.000000	na
63.545722	0.040983	78.000000	nontarget	12.000000	na
63.586704	0.042467	78.000000	nontarget	13.000000	na
63.629172	0.050025	78.000000	nontarget	14.000000	na
63.679197	0.039947	78.000000	nontarget	15.000000	na
63.719144	0.043562	78.000000	nontarget	16.000000	na
63.762706	0.039742	79.000000	nontarget	1.000000	na
63.802448	0.042575	79.000000	nontarget	2.000000	na
63.845022	0.050896	79.000000	nontarget	3.000000	na
63.895918	0.049963	79.000000	nontarget	4.000000	na
63.945881	0.054591	79.000000	nontarget	5.000000	na
64.000472	0.045203	79.000000	nontarget	6.000000	64.005016
64.045675	0.041092	79.000000	nontarget	7.000000	na
64.086767	0.041628	79.000000	nontarget	8.000000	na
64.128396	0.050925	79.000000	nontarget	9.000000	na
64.179321	0.049914	79.000000	nontarget	10.000000	na
64.229235	0.049958	79.000000	nontarget	11.000000	na
64.279193	0.049959	79.000000	nontarget	12.000000	na
64.329152	0.049932	79.000000	nontarget	13.000000	na
64.379084	0.050108	79.000000	nontarget	14.000000	na
64.429192	0.040350	79.000000	nontarget	15.000000	na
64.469542	0.042146	79.000000	nontarget	16.000000	na
64.511687	0.041380	80.000000	nontarget	1.000000	na
64.553067	0.041805	80.000000	nontarget	2.000000	na
64.594872	0.050896	80.000000	nontarget	3.000000	na
64.645768	0.040888	80.000000	nontarget	4.000000	na
64.686656	0.041949	80.000000	nontarget	5.000000	na
64.728605	0.041658	80.000000	nontarget	6.000000	na
64.770262	0.049931	80.000000	nontarget	7.000000	64.780736
64.820193	0.041389	80.000000	nontarget	8.000000	na
64.861582	0.041187	80.000000	nontarget	9.000000	na
64.902769	0.042979	80.000000	nontarget	10.000000	na
64.945748	0.040824	80.000000	nontarget	11.000000	na
64.986572	0.041712	80.000000	nontarget	12.000000	na
65.028284	0.041489	80.000000	nontarget	13.000000	na
65.069774	0.042354	80.000000	nontarget	14.000000	na
65.112127	0.050068	80.000000	nontarget	15.000000	na
65.162195	0.041171	80.000000	nontarget	16.000000	na
65.203366	0.050562	81.000000	nontarget	1.000000	na
65.253928	0.041316	81.000000	nontarget	2.000000	na
65.295244	0.049835	81.000000	nontarget	3.000000	na
65.345079	0.041513	81.000000	nontarget	4.000000	na
65.386593	0.042613	81.000000	nontarget	5.000000	na
65.429206	0.041179	81.000000	nontarget	6.000000	na
65.470384	0.042139	81.000000	nontarget	7.000000	65.495426
65.512524	0.041330	81.000000	nontarget	8.000000	na
65.553854	0.040825	81.000000	nontarget	9.000000	na
65.594679	0.050592	81.000000	nontarget	10.000000	na
65.645271	0.050550	81.000000	nontarget	11.000000	na
65.695821	0.049986	81.000000	nontarget	12.000000	na
65.745807	0.049540	81.000000	nontarget	13.000000	na
65.795347	0.040466	81.000000	nontarget	14.000000	na
65.835813	0.043040	81.000000	nontarget	15.000000	na
65.878853	0.040860	81.000000	nontarget	16.000000	na
65.919713	0.041972	82.000000	nontarget	1.000000	na
65.961685	0.050843	82.000000	nontarget	2.000000	na
66.012528	0.049470	82.000000	nontarget	3.000000	na
66.061998	0.041294	82.000000	nontarget	4.000000	na
66.103292	0.042436	82.000000	nontarget	5.000000	na
66.145728	0.040892	82.000000	nontarget	6.000000	na
66.186620	0.041866	82.000000	nontarget	7.000000	na
66.228486	0.046399	82.000000	nontarget	8.000000	66.260067
66.274885	0.045514	82.000000	nontarget	9.000000	na
66.320399	0.041186	82.000000	nontarget	10.000000	na
66.361586	0.041288	82.000000	nontarget	11.000000	na
66.402873	0.041893	82.000000	nontarget	12.000000	na
66.444767	0.041949	82.000000	nontarget	13.000000	na
66.486716	0.042278	82.000000	nontarget	14.000000	na
66.528994	0.041056	82.000000	nontarget	15.000000	na
66.570050	0.050229	82.000000	nontarget	16.000000	na
66.620279	0.041917	83.000000	nontarget	1.000000	na
66.662196	0.050380	83.000000	nontarget	2.000000	na
66.712576	0.039988	83.000000	nontarget	3.000000	na
66.752564	0.042460	83.000000	nontarget	4.000000	na
66.795024	0.050694	83.000000	nontarget	5.000000	na
66.845718	0.040431	83.000000	nontarget	6.000000	na
66.886150	0.042106	83.000000	nontarget	7.000000	na
66.928255	0.050921	83.000000	nontarget	8.000000	na
66.979176	0.049992	83.000000	nontarget	9.000000	na
67.029169	0.040716	83.000000	nontarget	10.000000	na
67.069884	0.042227	83.000000	nontarget	11.000000	na
67.112111	0.049941	83.000000	nontarget	12.000000	na
67.162052	0.041360	83.000000	nontarget	13.000000	na
67.203412	0.041504	83.000000	nontarget	14.000000	67.209044
67.244916	0.050951	83.000000	nontarget	15.000000	na
67.295867	0.040466	83.000000	nontarget	16.000000	na
67.336333	0.042166	84.000000	nontarget	1.000000	na
67.378500	0.041708	84.000000	nontarget	2.000000	na
67.420208	0.042131	84.000000	nontarget	3.000000	na
67.462339	0.050153	84.000000	nontarget	4.000000	na
67.512492	0.040920	84.000000	nontarget	5.000000	na
67.553412	0.050354	84.000000	nontarget	6.000000	na
67.603766	0.041438	84.000000	nontarget	7.000000	na
67.645205	0.050731	84.000000	nontarget	8.000000	na
67.695935	0.049336	84.000000	nontarget	9.000000	na
67.745272	0.041447	84.000000	nontarget	10.000000	na
67.786719	0.050331	84.000000	nontarget	11.000000	na
67.837050	0.040973	84.000000	nontarget	12.000000	na
67.878022	0.050448	84.000000	nontarget	13.000000	na
67.928470	0.042002	84.000000	nontarget	14.000000	na
67.970473	0.041351	84.000000	nontarget	15.000000	67.985701
68.011824	0.041777	84.000000	nontarget	16.000000	na
68.053601	0.041696	85.000000	nontarget	1.000000	68.059252
68.095297	0.041512	85.000000	nontarget	2.000000	na
68.136809	0.042302	85.000000	nontarget	3.000000	na
68.179111	0.040933	85.000000	nontarget	4.000000	na
68.220045	0.041702	85.000000	nontarget	5.000000	na
68.261746	0.041967	85.000000	nontarget	6.000000	na
68.303713	0.049984	85.000000	nontarget	7.000000	na
68.353697	0.041830	85.000000	nontarget	8.000000	na
68.395527	0.050297	85.000000	nontarget	9.000000	na
68.445824	0.040094	85.000000	nontarget	10.000000	na
68.485918	0.042828	85.000000	nontarget	11.000000	na
68.528746	0.041628	85.000000	nontarget	12.000000	na
68.570375	0.042356	85.000000	nontarget	13.000000	na
68.612731	0.049156	85.000000	nontarget	14.000000	na
68.661886	0.041242	85.000000	nontarget	15.000000	na
68.703129	0.042828	85.000000	nontarget	16.000000	na
68.745957	0.049936	86.000000	nontarget	1.000000	na
68.795893	0.039998	86.000000	nontarget	2.000000	na
68.835891	0.042247	86.000000	nontarget	3.000000	na
68.878138	0.051081	86.000000	nontarget	4.000000	na
68.929219	0.040394	86.000000	nontarget	5.000000	na
68.969613	0.043090	86.000000	nontarget	6.000000	68.995374
69.012704	0.040246	86.000000	nontarget	7.000000	na
69.052950	0.042311	86.000000	nontarget	8.000000	na
69.095260	0.041552	86.000000	nontarget	9.000000	na
69.136812	0.041174	86.000000	nontarget	10.000000	na
69.177986	0.051279	86.000000	nontarget	11.000000	na
69.229265	0.040062	86.000000	nontarget	12.000000	na
69.269327	0.042428	86.000000	nontarget	13.000000	na
69.311755	0.050754	86.000000	nontarget	14.000000	na
69.362510	0.041165	86.000000	nontarget	15.000000	na
69.403675	0.050009	86.000000	nontarget	16.000000	na
69.453683	0.042018	87.000000	nontarget	1.000000	na
69.495702	0.050065	87.000000	nontarget	2.000000	na
69.545766	0.040245	87.000000	nontarget	3.000000	na
69.586011	0.042248	87.000000	nontarget	4.000000	na
69.628259	0.050890	87.000000	nontarget	5.000000	na
69.679149	0.049904	87.000000	nontarget	6.000000	na
69.729053	0.040387	87.000000	nontarget	7.000000	na
69.769439	0.044349	87.000000	nontarget	8.000000	69.797865
69.813788	0.048068	87.000000	nontarget	9.000000	na
69.861856	0.041435	87.000000	nontarget	10.000000	na
69.903291	0.042428	87.000000	nontarget	11.000000	na
69.945719	0.039889	87.000000	nontarget	12.000000	na
69.985608	0.042706	87.000000	nontarget	13.000000	na
70.028314	0.050785	87.000000	nontarget	14.000000	na
70.079100	0.041289	87.000000	nontarget	15.000000	na
70.120388	0.041008	87.000000	nontarget	16.000000	na
70.161396	0.042042	88.000000	nontarget	1.000000	na
70.203438	0.042532	88.000000	nontarget	2.000000	na
70.245971	0.040738	88.000000	nontarget	3.000000	na
70.286709	0.041946	88.000000	nontarget	4.000000	na
70.328655	0.041629	88.000000	nontarget	5.000000	na
70.370284	0.049992	88.000000	nontarget	6.000000	na
70.420276	0.041129	88.000000	nontarget	7.000000	na
70.461405	0.041331	88.000000	nontarget	8.000000	na
70.502736	0.042580	88.000000	nontarget	9.000000	na
70.545316	0.041457	88.000000	nontarget	10.000000	70.562516
70.586773	0.042228	88.000000	nontarget	11.000000	na
70.629001	0.040823	88.000000	nontarget	12.000000	na
70.669824	0.041680	88.000000	nontarget	13.000000	na
70.711504	0.042269	88.000000	nontarget	14.000000	na
70.753773	0.049769	88.000000	nontarget	15.000000	na
70.803543	0.041172	88.000000	nontarget	16.000000	na
70.844715	0.051210	89.000000	nontarget	1.000000	na
70.895925	0.049773	89.000000	nontarget	2.000000	na
70.945698	0.040144	89.000000	nontarget	3.000000	na
70.985842	0.043146	89.000000	nontarget	4.000000	na
71.028987	0.040329	89.000000	nontarget	5.000000	na
71.069317	0.043170	89.000000	nontarget	6.000000	na
71.112487	0.049736	89.000000	nontarget	7.000000	na
71.162223	0.050243	89.000000	nontarget	8.000000	71.168817
71.212466	0.041433	89.000000	nontarget	9.000000	na
71.253900	0.041705	89.000000	nontarget	10.000000	na
71.295604	0.050307	89.000000	nontarget	11.000000	na
71.345911	0.049834	89.000000	nontarget	12.000000	na
71.395746	0.049988	89.000000	nontarget	13.000000	na
71.445734	0.049984	89.000000	nontarget	14.000000	na
71.495717	0.050147	89.000000	nontarget	15.000000	na
71.545864	0.049873	89.000000	nontarget	16.000000	na
71.595737	0.049620	90.000000	nontarget	1.000000	na
71.645357	0.041653	90.000000	nontarget	2.000000	na
71.687010	0.049787	90.000000	nontarget	3.000000	na
71.736798	0.042294	90.000000	nontarget	4.000000	na
71.779092	0.040953	90.000000	nontarget	5.000000	na
71.820045	0.051413	90.000000	nontarget	6.000000	na
71.871457	0.048907	90.000000	nontarget	7.000000	71.878009
71.920364	0.041846	90.000000	nontarget	8.000000	na
71.962210	0.049517	90.000000	nontarget	9.000000	na
72.011727	0.041067	90.000000	nontarget	10.000000	na
72.052794	0.042571	90.000000	nontarget	11.000000	na
72.095365	0.049774	90.000000	nontarget	12.000000	na
72.145138	0.041442	90.000000	nontarget	13.000000	na
72.186580	0.041637	90.000000	nontarget	14.000000	na
72.228217	0.041804	90.000000	nontarget	15.000000	na
72.270022	0.042183	90.000000	nontarget	16.000000	na
72.312204	0.050102	91.000000	nontarget	1.000000	na
72.362306	0.040476	91.000000	nontarget	2.000000	na
72.402782	0.042173	91.000000	nontarget	3.000000	na
72.444955	0.049965	91.000000	nontarget	4.000000	na
72.494921	0.041803	91.000000	nontarget	5.000000	na
72.536724	0.042417	91.000000	nontarget	6.000000	na
72.579141	0.049651	91.000000	nontarget	7.000000	72.609193
72.628792	0.041161	91.000000	nontarget	8.000000	na
72.669953	0.042430	91.000000	nontarget	9.000000	na
72.712383	0.040068	91.000000	nontarget	10.000000	na
72.752451	0.043040	91.000000	nontarget	11.000000	na
72.795492	0.041363	91.000000	nontarget	12.000000	na
72.836855	0.041917	91.000000	nontarget	13.000000	na
72.878772	0.040764	91.000000	nontarget	14.000000	na
72.919536	0.041745	91.000000	nontarget	15.000000	na
72.961280	0.041564	91.000000	nontarget	16.000000	na
73.002844	0.041904	92.000000	nontarget	1.000000	na
73.044748	0.042390	92.000000	nontarget	2.000000	na
73.087138	0.049910	92.000000	nontarget	3.000000	na
73.137048	0.041569	92.000000	nontarget	4.000000	na
73.178616	0.041401	92.000000	nontarget	5.000000	na
73.220018	0.042203	92.000000	nontarget	6.000000	na
73.262220	0.040741	92.000000	nontarget	7.000000	na
73.302961	0.041856	92.000000	nontarget	8.000000	na
73.344817	0.042257	92.000000	nontarget	9.000000	na
73.387074	0.041795	92.000000	nontarget	10.000000	73.408917
73.428869	0.041371	92.000000	nontarget	11.000000	na
73.470240	0.041908	92.000000	nontarget	12.000000	na
73.512148	0.040995	92.000000	nontarget	13.000000	na
73.553144	0.042403	92.000000	nontarget	14.000000	na
73.595546	0.041159	92.000000	nontarget	15.000000	na
73.636705	0.050350	92.000000	nontarget	16.000000	na
73.687055	0.041602	93.000000	nontarget	1.000000	na
73.728657	0.041438	93.000000	nontarget	2.000000	na
73.770095	0.042132	93.000000	nontarget	3.000000	na
73.812227	0.041155	93.000000	nontarget	4.000000	na
73.853382	0.042138	93.000000	nontarget	5.000000	na
73.895520	0.041161	93.000000	nontarget	6.000000	na
73.936680	0.050223	93.000000	nontarget	7.000000	na
73.986903	0.041917	93.000000	nontarget	8.000000	na
74.028820	0.041263	93.000000	nontarget	9.000000	na
74.070083	0.050227	93.000000	nontarget	10.000000	na
74.120311	0.041543	93.000000	nontarget	11.000000	na
74.161854	0.050234	93.000000	nontarget	12.000000	na
74.212088	0.041421	93.000000	nontarget	13.000000	74.235715
74.253509	0.041845	93.000000	nontarget	14.000000	na
74.295354	0.041454	93.000000	nontarget	15.000000	na
74.336808	0.041276	93.000000	nontarget	16.000000	na
74.378084	0.042368	94.000000	nontarget	1.000000	na
74.420452	0.041134	94.000000	nontarget	2.000000	na
74.461586	0.041545	94.000000	nontarget	3.000000	na
74.503131	0.042559	94.000000	nontarget	4.000000	na
74.545690	0.049732	94.000000	nontarget	5.000000	na
74.595421	0.040782	94.000000	nontarget	6.000000	na
74.636203	0.041675	94.000000	nontarget	7.000000	na
74.677879	0.041937	94.000000	nontarget	8.000000	na
74.719816	0.042330	94.000000	nontarget	9.000000	na
74.762146	0.041087	94.000000	nontarget	10.000000	na
74.803232	0.041264	94.000000	nontarget	11.000000	na
74.844496	0.041953	94.000000	nontarget	12.000000	na
74.886449	0.041721	94.000000	nontarget	13.000000	na
74.928170	0.042147	94.000000	nontarget	14.000000	na
74.970318	0.050080	94.000000	nontarget	15.000000	na
75.020397	0.040602	94.000000	nontarget	16.000000	na
75.060999	0.041905	95.000000	nontarget	1.000000	75.068359
75.102904	0.041779	95.000000	nontarget	2.000000	na
75.144683	0.042083	95.000000	nontarget	3.000000	na
75.186766	0.042068	95.000000	nontarget	4.000000	na
75.228834	0.049099	95.000000	nontarget	5.000000	na
75.277933	0.042125	95.000000	nontarget	6.000000	na
75.320057	0.042296	95.000000	nontarget	7.000000	na
75.362353	0.040160	95.000000	nontarget	8.000000	na
75.402513	0.041881	95.000000	nontarget	9.000000	na
75.444394	0.042255	95.000000	nontarget	10.000000	na
75.486649	0.042094	95.000000	nontarget	11.000000	na
75.528743	0.041446	95.000000	nontarget	12.000000	na
75.570189	0.041891	95.000000	nontarget	13.000000	na
75.612081	0.041292	95.000000	nontarget	14.000000	na
75.653372	0.041074	95.000000	nontarget	15.000000	na
75.694447	0.051280	95.000000	nontarget	16.000000	na
75.745727	0.041179	96.000000	nontarget	1.000000	na
75.786906	0.050215	96.000000	nontarget	2.000000	na
75.837121	0.049272	96.000000	nontarget	3.000000	75.856780
75.886392	0.042536	96.000000	nontarget	4.000000	na
75.928928	0.040561	96.000000	nontarget	5.000000	na
75.969489	0.042726	96.000000	nontarget	6.000000	na
76.012214	0.040750	96.000000	nontarget	7.000000	na
76.052964	0.041740	96.000000	nontarget	8.000000	na
76.094705	0.041898	96.000000	nontarget	9.000000	na
76.136603	0.050236	96.000000	nontarget	10.000000	na
76.186838	0.050197	96.000000	nontarget	11.000000	na
76.237036	0.041221	96.000000	nontarget	12.000000	na
76.278257	0.041110	96.000000	nontarget	13.000000	na
76.319366	0.042892	96.000000	nontarget	14.000000	na
76.362259	0.041066	96.000000	nontarget	15.000000	na
76.403325	0.041517	96.000000	nontarget	16.000000	na
76.444842	0.041858	97.000000	target	1.000000	na
76.486699	0.041508	97.000000	target	2.000000	na
76.528207	0.042076	97.000000	target	3.000000	na
76.570283	0.049977	97.000000	target	4.000000	na
76.620260	0.041580	97.000000	target	5.000000	na
76.661839	0.050431	97.000000	target	6.000000	na
76.712270	0.040804	97.000000	target	7.000000	na
76.753074	0.041522	97.000000	target	8.000000	na
76.794596	0.041860	97.000000	target	9.000000	na
76.836456	0.041784	97.000000	target	10.000000	na
76.878239	0.040969	97.000000	target	11.000000	na
76.919208	0.042135	97.000000	target	12.000000	na
76.961343	0.042357	97.000000	target	13.000000	na
77.003700	0.042031	97.000000	target	14.000000	na
77.045731	0.049671	97.000000	target	15.000000	na
77.095401	0.041652	97.000000	target	16.000000	na
77.137053	0.051457	98.000000	nontarget	1.000000	77.173590
77.188511	0.048483	98.000000	nontarget	2.000000	na
77.236993	0.041727	98.000000	nontarget	3.000000	na
77.278720	0.050221	98.000000	nontarget	4.000000	na
77.328942	0.040752	98.000000	nontarget	5.000000	na
77.369694	0.042657	98.000000	nontarget	6.000000	na
77.412351	0.050021	98.000000	nontarget	7.000000	na
77.462372	0.040591	98.000000	nontarget	8.000000	na
77.502964	0.041420	98.000000	nontarget	9.000000	na
77.544383	0.041704	98.000000	nontarget	10.000000	na
77.586087	0.042725	98.000000	nontarget	11.000000	na
77.628812	0.040641	98.000000	nontarget	12.000000	na
77.669454	0.041634	98.000000	nontarget	13.000000	na
77.711088	0.042573	98.000000	nontarget	14.000000	na
77.753661	0.050023	98.000000	nontarget	15.000000	na
77.803683	0.041784	98.000000	nontarget	16.000000	na
77.845467	0.041131	99.000000	target	1.000000	na
77.886598	0.050300	99.000000	target	2.000000	na
77.936898	0.041825	99.000000	target	3.000000	na
77.978722	0.041473	99.000000	target	4.000000	na
78.020196	0.041352	99.000000	target	5.000000	na
78.061548	0.050774	99.000000	target	6.000000	na
78.112322	0.041055	99.000000	target	7.000000	na
78.153377	0.041123	99.000000	target	8.000000	na
78.194499	0.041902	99.000000	target	9.000000	na
78.236402	0.042037	99.000000	target	10.000000	na
78.278438	0.049797	99.000000	target	11.000000	na
78.328235	0.041791	99.000000	target	12.000000	na
78.370026	0.049479	99.000000	target	13.000000	na
78.419505	0.042640	99.000000	target	14.000000	na
78.462146	0.040909	99.000000	target	15.000000	na
78.503054	0.041514	99.000000	target	16.000000	78.528508
78.544568	0.041296	100.000000	nontarget	1.000000	78.549216
78.585864	0.042981	100.000000	nontarget	2.000000	na
78.628845	0.050240	100.000000	nontarget	3.000000	na
78.679085	0.040036	100.000000	nontarget	4.000000	na
78.719121	0.043215	100.000000	nontarget	5.000000	na
78.762336	0.040940	100.000000	nontarget	6.000000	na
78.803276	0.042232	100.000000	nontarget	7.000000	na
78.845508	0.041071	100.000000	nontarget	8.000000	na
78.886579	0.050351	100.000000	nontarget	9.000000	na
78.936930	0.049931	100.000000	nontarget	10.000000	na
78.986861	0.041487	100.000000	nontarget	11.000000	na
79.028348	0.042101	100.000000	nontarget	12.000000	na
79.070449	0.041499	100.000000	nontarget	13.000000	na
79.111948	0.050024	100.000000	nontarget	14.000000	na
79.161972	0.041728	100.000000	nontarget	15.000000	na
79.203699	0.041567	100.000000	nontarget	16.000000	na
79.245267	0.041203	101.000000	nontarget	1.000000	na
79.286469	0.050418	101.000000	nontarget	2.000000	na
79.336888	0.040998	101.000000	nontarget	3.000000	na
79.377886	0.041568	101.000000	nontarget	4.000000	79.391611
79.419453	0.042918	101.000000	nontarget	5.000000	na
79.462372	0.040999	101.000000	nontarget	6.000000	na
79.503371	0.041179	101.000000	nontarget	7.000000	na
79.544550	0.042039	101.000000	nontarget	8.000000	na
79.586589	0.042095	101.000000	nontarget	9.000000	na
79.628684	0.041460	101.000000	nontarget	10.000000	na
79.670144	0.050074	101.000000	nontarget	11.000000	na
79.720217	0.049484	101.000000	nontarget	12.000000	na
79.769701	0.042450	101.000000	nontarget	13.000000	na
79.812151	0.041237	101.000000	nontarget	14.000000	na
79.853388	0.049987	101.000000	nontarget	15.000000	na
79.903375	0.040988	101.000000	nontarget	16.000000	na
79.944363	0.041807	102.000000	nontarget	1.000000	na
79.986170	0.041611	102.000000	nontarget	2.000000	na
80.027782	0.041904	102.000000	nontarget	3.000000	na
80.069686	0.042371	102.000000	nontarget	4.000000	na
80.112057	0.050072	102.000000	nontarget	5.000000	na
80.162128	0.049638	102.000000	nontarget	6.000000	80.168790
80.211766	0.041076	102.000000	nontarget	7.000000	na
80.252842	0.042163	102.000000	nontarget	8.000000	na
80.295005	0.041151	102.000000	nontarget	9.000000	na
80.336156	0.042032	102.000000	nontarget	10.000000	na
80.378187	0.041714	102.000000	nontarget	11.000000	na
80.419901	0.042123	102.000000	nontarget	12.000000	na
80.462024	0.050201	102.000000	nontarget	13.000000	na
80.512225	0.040985	102.000000	nontarget	14.000000	na
80.553210	0.041534	102.000000	nontarget	15.000000	na
80.594744	0.041528	102.000000	nontarget	16.000000	na
80.636272	0.041465	103.000000	nontarget	1.000000	na
80.677737	0.042166	103.000000	nontarget	2.000000	na
80.719902	0.041688	103.000000	nontarget	3.000000	na
80.761590	0.041818	103.000000	nontarget	4.000000	na
80.803408	0.041190	103.000000	nontarget	5.000000	na
80.844598	0.041920	103.000000	nontarget	6.000000	na
80.886518	0.041290	103.000000	nontarget	7.000000	na
80.927809	0.041408	103.000000	nontarget	8.000000	na
80.969217	0.042758	103.000000	nontarget	9.000000	80.976722
81.011975	0.041792	103.000000	nontarget	10.000000	na
81.053766	0.041736	103.000000	nontarget	11.000000	na
81.095503	0.040758	103.000000	nontarget	12.000000	na
81.136261	0.041636	103.000000	nontarget	13.000000	na
81.177896	0.042526	103.000000	nontarget	14.000000	na
81.220422	0.049531	103.000000	nontarget	15.000000	na
81.269953	0.041411	103.000000	nontarget	16.000000	na
81.311364	0.041862	104.000000	nontarget	1.000000	na
81.353226	0.042059	104.000000	nontarget	2.000000	na
81.395285	0.049276	104.000000	nontarget	3.000000	na
81.444561	0.042235	104.000000	nontarget	4.000000	na
81.486796	0.041026	104.000000	nontarget	5.000000	na
81.527822	0.051080	104.000000	nontarget	6.000000	na
81.578902	0.040951	104.000000	nontarget	7.000000	na
81.619853	0.041278	104.000000	nontarget	8.000000	na
81.661131	0.042394	104.000000	nontarget	9.000000	na
81.703526	0.042053	104.000000	nontarget	10.000000	na
81.745578	0.049249	104.000000	nontarget	11.000000	81.751341
81.794828	0.042218	104.000000	nontarget	12.000000	na
81.837045	0.041639	104.000000	nontarget	13.000000	na
81.878685	0.050108	104.000000	nontarget	14.000000	na
81.928793	0.041025	104.000000	nontarget	15.000000	na
81.969818	0.041264	104.000000	nontarget	16.000000	na
82.011082	0.041612	105.000000	nontarget	1.000000	na
82.052694	0.043099	105.000000	nontarget	2.000000	na
82.095793	0.040882	105.000000	nontarget	3.000000	na
82.136676	0.050158	105.000000	nontarget	4.000000	na
82.186834	0.041839	105.000000	nontarget	5.000000	na
82.228672	0.041457	105.000000	nontarget	6.000000	na
82.270130	0.041983	105.000000	nontarget	7.000000	na
82.312113	0.041099	105.000000	nontarget	8.000000	na
82.353212	0.050270	105.000000	nontarget	9.000000	na
82.403482	0.041239	105.000000	nontarget	10.000000	na
82.444721	0.041816	105.000000	nontarget	11.000000	na
82.486537	0.042132	105.000000	nontarget	12.000000	na
82.528669	0.049659	105.000000	nontarget	13.000000	na
82.578328	0.050538	105.000000	nontarget	14.000000	82.613979
82.628866	0.050037	105.000000	nontarget	15.000000	na
82.678903	0.049439	105.000000	nontarget	16.000000	na
82.728341	0.041842	106.000000	nontarget	1.000000	na
82.770183	0.040977	106.000000	nontarget	2.000000	na
82.811160	0.042682	106.000000	nontarget	3.000000	na
82.853842	0.041258	106.000000	nontarget	4.000000	na
82.895100	0.050171	106.000000	nontarget	5.000000	na
82.945271	0.041345	106.000000	nontarget	6.000000	na
82.986616	0.041546	106.000000	nontarget	7.000000	na
83.028162	0.041946	106.000000	nontarget	8.000000	na
83.070108	0.050353	106.000000	nontarget	9.000000	na
83.120461	0.041625	106.000000	nontarget	10.000000	na
83.162086	0.041044	106.000000	nontarget	11.000000	na
83.203130	0.042333	106.000000	nontarget	12.000000	na
83.245463	0.041404	106.000000	nontarget	13.000000	na
83.286867	0.050206	106.000000	nontarget	14.000000	na
83.337073	0.041589	106.000000	nontarget	15.000000	na
83.378662	0.041424	106.000000	nontarget	16.000000	83.392975
83.420086	0.041000	107.000000	nontarget	1.000000	83.425756
83.461086	0.041834	107.000000	nontarget	2.000000	na
83.502920	0.042143	107.000000	nontarget	3.000000	na
83.545062	0.041964	107.000000	nontarget	4.000000	na
83.587026	0.050127	107.000000	nontarget	5.000000	na
83.637153	0.040601	107.000000	nontarget	6.000000	na
83.677754	0.042439	107.000000	nontarget	7.000000	na
83.720194	0.041538	107.000000	nontarget	8.000000	na
83.761731	0.041586	107.000000	nontarget	9.000000	na
83.803317	0.042304	107.000000	nontarget	10.000000	na
83.845621	0.050143	107.000000	nontarget	11.000000	na
83.895764	0.041183	107.000000	nontarget	12.000000	na
83.936947	0.049959	107.000000	nontarget	13.000000	na
83.986906	0.049845	107.000000	nontarget	14.000000	83.995955
84.036751	0.041734	107.000000	nontarget	15.000000	na
84.078485	0.041542	107.000000	nontarget	16.000000	na
84.120027	0.041793	108.000000	nontarget	1.000000	84.124814
84.161820	0.041866	108.000000	nontarget	2.000000	na
84.203685	0.049987	108.000000	nontarget	3.000000	na
84.253673	0.041257	108.000000	nontarget	4.000000	na
84.294930	0.050329	108.000000	nontarget	5.000000	na
84.345259	0.040825	108.000000	nontarget	6.000000	na
84.386084	0.042559	108.000000	nontarget	7.000000	na
84.428643	0.050046	108.000000	nontarget	8.000000	na
84.478689	0.040955	108.000000	nontarget	9.000000	na
84.519643	0.042334	108.000000	nontarget	10.000000	na
84.561977	0.050216	108.000000	nontarget	11.000000	na
84.612193	0.050010	108.000000	nontarget	12.000000	na
84.662203	0.041292	108.000000	nontarget	13.000000	84.669119
84.703495	0.041820	108.000000	nontarget	14.000000	na
84.745314	0.040600	108.000000	nontarget	15.000000	na
84.785914	0.042951	108.000000	nontarget	16.000000	na
84.828865	0.049265	109.000000	nontarget	1.000000	na
84.878130	0.041333	109.000000	nontarget	2.000000	na
84.919463	0.041893	109.000000	nontarget	3.000000	na
84.961356	0.042108	109.000000	nontarget	4.000000	na
85.003464	0.041992	109.000000	nontarget	5.000000	na
85.045455	0.041309	109.000000	nontarget	6.000000	na
85.086764	0.041455	109.000000	nontarget	7.000000	na
85.128219	0.049965	109.000000	nontarget	8.000000	na
85.178184	0.042286	109.000000	nontarget	9.000000	na
85.220471	0.041345	109.000000	nontarget	10.000000	na
85.261816	0.050035	109.000000	nontarget	11.000000	na
85.311850	0.041976	109.000000	nontarget	12.000000	85.318604
85.353826	0.041436	109.000000	nontarget	13.000000	na
85.395262	0.041325	109.000000	nontarget	14.000000	na
85.436587	0.042308	109.000000	nontarget	15.000000	na
85.478895	0.050004	109.000000	nontarget	16.000000	na
85.528899	0.040870	110.000000	target	1.000000	na
85.569769	0.042161	110.000000	target	2.000000	na
85.611930	0.049735	110.000000	target	3.000000	na
85.661665	0.040850	110.000000	target	4.000000	na
85.702515	0.041854	110.000000	target	5.000000	na
85.744370	0.041719	110.000000	target	6.000000	na
85.786088	0.042068	110.000000	target	7.000000	na
85.828156	0.041772	110.000000	target	8.000000	na
85.869929	0.041885	110.000000	target	9.000000	na
85.911813	0.040886	110.000000	target	10.000000	na
85.952699	0.049417	110.000000	target	11.000000	na
86.002116	0.042654	110.000000	target	12.000000	na
86.044770	0.041835	110.000000	target	13.000000	na
86.086604	0.041777	110.000000	target	14.000000	na
86.128381	0.041219	110.000000	target	15.000000	na
86.169600	0.042319	110.000000	target	16.000000	na
86.211919	0.041329	111.000000	nontarget	1.000000	na
86.253248	0.042353	111.000000	nontarget	2.000000	na
86.295601	0.041053	111.000000	nontarget	3.000000	86.322267
86.336654	0.050223	111.000000	nontarget	4.000000	na
86.386877	0.041169	111.000000	nontarget	5.000000	na
86.428046	0.050306	111.000000	nontarget	6.000000	na
86.478352	0.040860	111.000000	nontarget	7.000000	na
86.519212	0.042680	111.000000	nontarget	8.000000	na
86.561892	0.041517	111.000000	nontarget	9.000000	na
86.603409	0.041595	111.000000	nontarget	10.000000	na
86.645004	0.040940	111.000000	nontarget	11.000000	na
86.685944	0.042938	111.000000	nontarget	12.000000	na
86.728882	0.049830	111.000000	nontarget	13.000000	na
86.778712	0.041581	111.000000	nontarget	14.000000	na
86.820293	0.041058	111.000000	nontarget	15.000000	na
86.861351	0.042428	111.000000	nontarget	16.000000	na
86.903780	0.041184	112.000000	nontarget	1.000000	na
86.944964	0.041243	112.000000	nontarget	2.000000	na
86.986206	0.042460	112.000000	nontarget	3.000000	na
87.028666	0.041425	112.000000	nontarget	4.000000	na
87.070091	0.041532	112.000000	nontarget	5.000000	87.081193
87.111623	0.041516	112.000000	nontarget	6.000000	na
87.153139	0.042430	112.000000	nontarget	7.000000	na
87.195569	0.041345	112.000000	nontarget	8.000000	na
87.236913	0.040774	112.000000	nontarget	9.000000	na
87.277687	0.041725	112.000000	nontarget	10.000000	na
87.319412	0.041874	112.000000	nontarget	11.000000	na
87.361286	0.041442	112.000000	nontarget	12.000000	na
87.402728	0.042894	112.000000	nontarget	13.000000	na
87.445622	0.040873	112.000000	nontarget	14.000000	na
87.486495	0.050009	112.000000	nontarget	15.000000	na
87.536505	0.041784	112.000000	nontarget	16.000000	na
87.578289	0.041892	113.000000	nontarget	1.000000	na
87.620181	0.041650	113.000000	nontarget	2.000000	na
87.661831	0.041953	113.000000	nontarget	3.000000	na
87.703785	0.041914	113.000000	nontarget	4.000000	na
87.745699	0.041208	113.000000	nontarget	5.000000	na
87.786907	0.041906	113.000000	nontarget	6.000000	na
87.828814	0.049146	113.000000	nontarget	7.000000	na
87.877959	0.042210	113.000000	nontarget	8.000000	na
87.920169	0.041908	113.000000	nontarget	9.000000	87.925832
87.962077	0.049081	113.000000	nontarget	10.000000	na
88.011159	0.041312	113.000000	nontarget	11.000000	na
88.052470	0.041768	113.000000	nontarget	12.000000	na
88.094238	0.041972	113.000000	nontarget	13.000000	na
88.136210	0.050719	113.000000	nontarget	14.000000	na
88.186928	0.041308	113.000000	nontarget	15.000000	na
88.228236	0.040975	113.000000	nontarget	16.000000	na
88.269212	0.042199	114.000000	nontarget	1.000000	na
88.311411	0.041048	114.000000	nontarget	2.000000	na
88.352458	0.042065	114.000000	nontarget	3.000000	na
88.394524	0.041493	114.000000	nontarget	4.000000	na
88.436017	0.042644	114.000000	nontarget	5.000000	na
88.478662	0.050168	114.000000	nontarget	6.000000	na
88.528830	0.041185	114.000000	nontarget	7.000000	na
88.570015	0.050260	114.000000	nontarget	8.000000	na
88.620275	0.049920	114.000000	nontarget	9.000000	na
88.670195	0.041284	114.000000	nontarget	10.000000	na
88.711479	0.041897	114.000000	nontarget	11.000000	na
88.753376	0.042034	114.000000	nontarget	12.000000	88.759030
88.795410	0.040656	114.000000	nontarget	13.000000	na
88.836066	0.041721	114.000000	nontarget	14.000000	na
88.877787	0.041680	114.000000	nontarget	15.000000	na
88.919467	0.041798	114.000000	nontarget	16.000000	na
88.961266	0.041669	115.000000	nontarget	1.000000	na
89.002935	0.041556	115.000000	nontarget	2.000000	na
89.044491	0.041582	115.000000	nontarget	3.000000	na
89.086073	0.041950	115.000000	nontarget	4.000000	na
89.128023	0.050042	115.000000	nontarget	5.000000	na
89.178064	0.041916	115.000000	nontarget	6.000000	na
89.219980	0.050227	115.000000	nontarget	7.000000	na
89.270208	0.041646	115.000000	nontarget	8.000000	na
89.311854	0.041585	115.000000	nontarget	9.000000	na
89.353439	0.041289	115.000000	nontarget	10.000000	na
89.394727	0.050734	115.000000	nontarget	11.000000	na
89.445461	0.040916	115.000000	nontarget	12.000000	na
89.486377	0.042175	115.000000	nontarget	13.000000	na
89.528552	0.050153	115.000000	nontarget	14.000000	na
89.578705	0.050170	115.000000	nontarget	15.000000	89.589760
89.628874	0.040477	115.000000	nontarget	16.000000	na
89.669352	0.042102	116.000000	nontarget	1.000000	89.674562
89.711454	0.041769	116.000000	nontarget	2.000000	na
89.753223	0.050432	116.000000	nontarget	3.000000	na
89.803654	0.041056	116.000000	nontarget	4.000000	na
89.844711	0.041577	116.000000	nontarget	5.000000	na
89.886288	0.042674	116.000000	nontarget	6.000000	na
89.928962	0.041085	116.000000	nontarget	7.000000	na
89.970047	0.041241	116.000000	nontarget	8.000000	na
90.011288	0.041732	116.000000	nontarget	9.000000	na
90.053020	0.042081	116.000000	nontarget	10.000000	na
90.095102	0.049838	116.000000	nontarget	11.000000	na
90.144940	0.041762	116.000000	nontarget	12.000000	na
90.186702	0.041088	116.000000	nontarget	13.000000	na
90.227790	0.041926	116.000000	nontarget	14.000000	na
90.269716	0.042494	116.000000	nontarget	15.000000	na
90.312210	0.048898	116.000000	nontarget	16.000000	na
90.361109	0.041496	117.000000	target	1.000000	na
90.402604	0.042335	117.000000	target	2.000000	na
90.444940	0.042146	117.000000	target	3.000000	na
90.487086	0.041130	117.000000	target	4.000000	na
90.528215	0.041264	117.000000	target	5.000000	na
90.569480	0.042069	117.000000	target	6.000000	na
90.611549	0.041801	117.000000	target	7.000000	na
90.653350	0.050121	117.000000	target	8.000000	na
90.703471	0.041690	117.000000	target	9.000000	na
90.745161	0.050230	117.000000	target	10.000000	na
90.795391	0.040468	117.000000	target	11.000000	na
90.835860	0.041983	117.000000	target	12.000000	na
90.877842	0.041881	117.000000	target	13.000000	na
90.919723	0.042158	117.000000	target	14.000000	na
90.961881	0.040664	117.000000	target	15.000000	na
91.002546	0.043103	117.000000	target	16.000000	na
91.045648	0.041268	118.000000	nontarget	1.000000	91.057780
91.086917	0.041843	118.000000	nontarget	2.000000	na
91.128759	0.040596	118.000000	nontarget	3.000000	na
91.169355	0.042911	118.000000	nontarget	4.000000	na
91.212266	0.041242	118.000000	nontarget	5.000000	na
91.253509	0.041735	118.000000	nontarget	6.000000	na
91.295244	0.040968	118.000000	nontarget	7.000000	na
91.336211	0.041967	118.000000	nontarget	8.000000	na
91.378178	0.041207	118.000000	nontarget	9.000000	na
91.419385	0.041788	118.000000	nontarget	10.000000	na
91.461173	0.041566	118.000000	nontarget	11.000000	na
91.502739	0.041741	118.000000	nontarget	12.000000	na
91.544480	0.041696	118.000000	nontarget	13.000000	na
91.586176	0.041808	118.000000	nontarget	14.000000	na
91.627983	0.050215	118.000000	nontarget	15.000000	na
91.678199	0.040982	118.000000	nontarget	16.000000	na
91.719180	0.043045	119.000000	nontarget	1.000000	na
91.762225	0.049998	119.000000	nontarget	2.000000	na
91.812224	0.050290	119.000000	nontarget	3.000000	91.848268
91.862514	0.040299	119.000000	nontarget	4.000000	na
91.902813	0.042846	119.000000	nontarget	5.000000	na
91.945659	0.054810	119.000000	nontarget	6.000000	na
92.000469	0.044483	119.000000	nontarget	7.000000	na
92.044951	0.041789	119.000000	nontarget	8.000000	na
92.086740	0.042269	119.000000	nontarget	9.000000	na
92.129009	0.041044	119.000000	nontarget	10.000000	na
92.170052	0.050193	119.000000	nontarget	11.000000	na
92.220246	0.041514	119.000000	nontarget	12.000000	na
92.261759	0.050318	119.000000	nontarget	13.000000	na
92.312077	0.041651	119.000000	nontarget	14.000000	na
92.353728	0.049958	119.000000	nontarget	15.000000	na
92.403686	0.041037	119.000000	nontarget	16.000000	na
92.444723	0.041322	120.000000	target	1.000000	na
92.486045	0.042340	120.000000	target	2.000000	na
92.528386	0.040960	120.000000	target	3.000000	na
92.569345	0.042506	120.000000	target	4.000000	na
92.611852	0.050349	120.000000	target	5.000000	na
92.662200	0.040503	120.000000	target	6.000000	na
92.702704	0.042492	120.000000	target	7.000000	na
92.745195	0.050602	120.000000	target	8.000000	na
92.795797	0.049945	120.000000	target	9.000000	na
92.845742	0.049352	120.000000	target	10.000000	na
92.895095	0.041939	120.000000	target	11.000000	na
92.937034	0.041177	120.000000	target	12.000000	na
92.978211	0.050172	120.000000	target	13.000000	na
93.028383	0.041553	120.000000	target	14.000000	na
93.069936	0.050372	120.000000	target	15.000000	na
93.120308	0.040764	120.000000	target	16.000000	na
93.161072	0.042562	121.000000	nontarget	1.000000	na
93.203634	0.050010	121.000000	nontarget	2.000000	na
93.253645	0.041484	121.000000	nontarget	3.000000	na
93.295129	0.050069	121.000000	nontarget	4.000000	93.300461
93.345198	0.040821	121.000000	nontarget	5.000000	na
93.386019	0.042163	121.000000	nontarget	6.000000	na
93.428182	0.042322	121.000000	nontarget	7.000000	na
93.470504	0.041329	121.000000	nontarget	8.000000	na
93.511832	0.050208	121.000000	nontarget	9.000000	na
93.562040	0.040546	121.000000	nontarget	10.000000	na
93.602586	0.041924	121.000000	nontarget	11.000000	na
93.644510	0.041693	121.000000	nontarget	12.000000	na
93.686203	0.042235	121.000000	nontarget	13.000000	na
