onset	duration	trial_number	trial_type	frame_number	time_of_response
8.066001	0.049901	1.000000	target	1.000000	na
8.115903	0.049996	1.000000	target	2.000000	na
8.165899	0.049991	1.000000	target	3.000000	na
8.215890	0.050003	1.000000	target	4.000000	na
8.265893	0.049996	1.000000	target	5.000000	na
8.315890	0.049997	1.000000	target	6.000000	8.332015
8.365887	0.049994	1.000000	target	7.000000	na
8.415881	0.049997	1.000000	target	8.000000	na
8.465879	0.049995	1.000000	target	9.000000	na
8.515874	0.049997	1.000000	target	10.000000	na
8.565871	0.049997	1.000000	target	11.000000	na
8.615868	0.049995	1.000000	target	12.000000	na
8.665864	0.049996	1.000000	target	13.000000	na
8.715859	0.049999	1.000000	target	14.000000	na
8.765858	0.049995	1.000000	target	15.000000	na
8.815853	0.049996	1.000000	target	16.000000	na
8.865849	0.049998	2.000000	nontarget	1.000000	na
8.915847	0.049996	2.000000	nontarget	2.000000	na
8.965843	0.050000	2.000000	nontarget	3.000000	na
9.015843	0.049993	2.000000	nontarget	4.000000	na
9.065836	0.049996	2.000000	nontarget	5.000000	na
9.115832	0.049997	2.000000	nontarget	6.000000	na
9.165829	0.049999	2.000000	nontarget	7.000000	na
9.215828	0.049993	2.000000	nontarget	8.000000	9.216591
9.265822	0.049998	2.000000	nontarget	9.000000	na
9.315819	0.049995	2.000000	nontarget	10.000000	na
9.365814	0.049997	2.000000	nontarget	11.000000	na
9.415812	0.049998	2.000000	nontarget	12.000000	na
9.465809	0.049995	2.000000	nontarget	13.000000	na
9.515805	0.049996	2.000000	nontarget	14.000000	na
9.565801	0.049995	2.000000	nontarget	15.000000	na
9.615796	0.049997	2.000000	nontarget	16.000000	na
9.665793	0.050002	3.000000	nontarget	1.000000	na
9.715794	0.049992	3.000000	nontarget	2.000000	na
9.765786	0.049996	3.000000	nontarget	3.000000	na
9.815782	0.049996	3.000000	nontarget	4.000000	na
9.865778	0.049996	3.000000	nontarget	5.000000	na
9.915775	0.049997	3.000000	nontarget	6.000000	na
9.965772	0.049999	3.000000	nontarget	7.000000	na
10.015771	0.049994	3.000000	nontarget	8.000000	na
10.065765	0.049998	3.000000	nontarget	9.000000	na
10.115762	0.049997	3.000000	nontarget	10.000000	na
10.165760	0.049995	3.000000	nontarget	11.000000	na
10.215755	0.049998	3.000000	nontarget	12.000000	10.242963
10.265752	0.049995	3.000000	nontarget	13.000000	na
10.315747	0.049996	3.000000	nontarget	14.000000	na
10.365744	0.049998	3.000000	nontarget	15.000000	na
10.415741	0.049997	3.000000	nontarget	16.000000	na
10.465738	0.049996	4.000000	nontarget	1.000000	na
10.515735	0.049996	4.000000	nontarget	2.000000	na
10.565731	0.049999	4.000000	nontarget	3.000000	na
10.615730	0.049991	4.000000	nontarget	4.000000	na
10.665721	0.049987	4.000000	nontarget	5.000000	na
10.715708	0.050012	4.000000	nontarget	6.000000	na
10.765719	0.049991	4.000000	nontarget	7.000000	na
10.815710	0.049998	4.000000	nontarget	8.000000	na
10.865708	0.049999	4.000000	nontarget	9.000000	na
10.915707	0.049995	4.000000	nontarget	10.000000	na
10.965701	0.049993	4.000000	nontarget	11.000000	na
11.015694	0.050001	4.000000	nontarget	12.000000	na
11.065695	0.049997	4.000000	nontarget	13.000000	na
11.115692	0.049995	4.000000	nontarget	14.000000	na
11.165687	0.049997	4.000000	nontarget	15.000000	na
11.215684	0.049996	4.000000	nontarget	16.000000	na
11.265680	0.049998	5.000000	nontarget	1.000000	11.270110
11.315678	0.049995	5.000000	nontarget	2.000000	na
11.365673	0.050001	5.000000	nontarget	3.000000	na
11.415673	0.049995	5.000000	nontarget	4.000000	na
11.465669	0.049995	5.000000	nontarget	5.000000	na
11.515664	0.049996	5.000000	nontarget	6.000000	na
11.565660	0.049998	5.000000	nontarget	7.000000	na
11.615657	0.049995	5.000000	nontarget	8.000000	na
11.665652	0.049999	5.000000	nontarget	9.000000	na
11.715652	0.049996	5.000000	nontarget	10.000000	na
11.765647	0.049996	5.000000	nontarget	11.000000	na
11.815643	0.049996	5.000000	nontarget	12.000000	na
11.865639	0.049997	5.000000	nontarget	13.000000	na
11.915636	0.049996	5.000000	nontarget	14.000000	na
11.965632	0.049999	5.000000	nontarget	15.000000	11.969038
12.015632	0.049994	5.000000	nontarget	16.000000	na
12.065626	0.049997	6.000000	nontarget	1.000000	12.066401
12.115623	0.049994	6.000000	nontarget	2.000000	na
12.165617	0.049999	6.000000	nontarget	3.000000	na
12.215616	0.049997	6.000000	nontarget	4.000000	na
12.265613	0.049995	6.000000	nontarget	5.000000	na
12.315608	0.049996	6.000000	nontarget	6.000000	na
12.365604	0.049997	6.000000	nontarget	7.000000	na
12.415601	0.049997	6.000000	nontarget	8.000000	na
12.465598	0.049997	6.000000	nontarget	9.000000	na
12.515595	0.049995	6.000000	nontarget	10.000000	na
12.565590	0.049999	6.000000	nontarget	11.000000	na
12.615589	0.049994	6.000000	nontarget	12.000000	na
12.665583	0.049998	6.000000	nontarget	13.000000	na
12.715580	0.049996	6.000000	nontarget	14.000000	na
12.765576	0.049997	6.000000	nontarget	15.000000	na
12.815573	0.049994	6.000000	nontarget	16.000000	12.818990
12.865568	0.049997	7.000000	nontarget	1.000000	12.866264
12.915565	0.049999	7.000000	nontarget	2.000000	na
12.965564	0.049997	7.000000	nontarget	3.000000	na
13.015561	0.049993	7.000000	nontarget	4.000000	na
13.065555	0.049998	7.000000	nontarget	5.000000	na
13.115552	0.049996	7.000000	nontarget	6.000000	na
13.165549	0.049996	7.000000	nontarget	7.000000	na
13.215545	0.049997	7.000000	nontarget	8.000000	na
13.265542	0.049996	7.000000	nontarget	9.000000	na
13.315538	0.049997	7.000000	nontarget	10.000000	na
13.365535	0.049996	7.000000	nontarget	11.000000	na
13.415531	0.049997	7.000000	nontarget	12.000000	na
13.465528	0.049996	7.000000	nontarget	13.000000	na
13.515524	0.049996	7.000000	nontarget	14.000000	na
13.565520	0.049996	7.000000	nontarget	15.000000	na
13.615516	0.049996	7.000000	nontarget	16.000000	13.636836
13.665513	0.049998	8.000000	nontarget	1.000000	13.666202
13.715511	0.049997	8.000000	nontarget	2.000000	na
13.765508	0.049995	8.000000	nontarget	3.000000	na
13.815503	0.049997	8.000000	nontarget	4.000000	na
13.865500	0.049996	8.000000	nontarget	5.000000	na
13.915496	0.049996	8.000000	nontarget	6.000000	na
13.965492	0.050000	8.000000	nontarget	7.000000	na
14.015492	0.049992	8.000000	nontarget	8.000000	na
14.065485	0.049998	8.000000	nontarget	9.000000	na
14.115483	0.049995	8.000000	nontarget	10.000000	na
14.165478	0.049998	8.000000	nontarget	11.000000	na
14.215476	0.049994	8.000000	nontarget	12.000000	na
14.265470	0.049999	8.000000	nontarget	13.000000	na
14.315470	0.049997	8.000000	nontarget	14.000000	na
14.365467	0.050003	8.000000	nontarget	15.000000	14.366153
14.415470	0.049991	8.000000	nontarget	16.000000	na
14.465461	0.049993	9.000000	nontarget	1.000000	14.466149
14.515454	0.050030	9.000000	nontarget	2.000000	na
14.565485	0.050009	9.000000	nontarget	3.000000	na
14.615494	0.050003	9.000000	nontarget	4.000000	na
14.665497	0.049944	9.000000	nontarget	5.000000	na
14.715441	0.049991	9.000000	nontarget	6.000000	na
14.765432	0.050019	9.000000	nontarget	7.000000	na
14.815451	0.050001	9.000000	nontarget	8.000000	na
14.865453	0.049978	9.000000	nontarget	9.000000	na
14.915431	0.050002	9.000000	nontarget	10.000000	na
14.965433	0.049989	9.000000	nontarget	11.000000	na
15.015422	0.050005	9.000000	nontarget	12.000000	na
15.065427	0.049998	9.000000	nontarget	13.000000	na
15.115425	0.049996	9.000000	nontarget	14.000000	15.143927
15.165421	0.049991	9.000000	nontarget	15.000000	na
15.215412	0.049996	9.000000	nontarget	16.000000	na
15.265408	0.049995	10.000000	nontarget	1.000000	15.266089
15.315403	0.049993	10.000000	nontarget	2.000000	na
15.365396	0.049998	10.000000	nontarget	3.000000	na
15.415393	0.050002	10.000000	nontarget	4.000000	na
15.465395	0.049995	10.000000	nontarget	5.000000	na
15.515390	0.049985	10.000000	nontarget	6.000000	na
15.565375	0.049996	10.000000	nontarget	7.000000	na
15.615371	0.050003	10.000000	nontarget	8.000000	na
15.665374	0.050013	10.000000	nontarget	9.000000	na
15.715387	0.049979	10.000000	nontarget	10.000000	na
15.765366	0.049998	10.000000	nontarget	11.000000	na
15.815363	0.049996	10.000000	nontarget	12.000000	na
15.865360	0.049995	10.000000	nontarget	13.000000	15.870049
15.915355	0.049998	10.000000	nontarget	14.000000	na
15.965353	0.049998	10.000000	nontarget	15.000000	na
16.015351	0.049995	10.000000	nontarget	16.000000	na
16.065346	0.049997	11.000000	nontarget	1.000000	na
16.115343	0.049995	11.000000	nontarget	2.000000	na
16.165338	0.049999	11.000000	nontarget	3.000000	na
16.215336	0.049996	11.000000	nontarget	4.000000	na
16.265332	0.049996	11.000000	nontarget	5.000000	na
16.315328	0.049995	11.000000	nontarget	6.000000	na
16.365324	0.049999	11.000000	nontarget	7.000000	na
16.415323	0.049995	11.000000	nontarget	8.000000	na
16.465318	0.049996	11.000000	nontarget	9.000000	na
16.515315	0.049996	11.000000	nontarget	10.000000	na
16.565311	0.049997	11.000000	nontarget	11.000000	na
16.615308	0.049995	11.000000	nontarget	12.000000	na
16.665303	0.049997	11.000000	nontarget	13.000000	16.666683
16.715300	0.049996	11.000000	nontarget	14.000000	na
16.765296	0.049999	11.000000	nontarget	15.000000	na
16.815295	0.049996	11.000000	nontarget	16.000000	na
16.865291	0.049996	12.000000	nontarget	1.000000	na
16.915286	0.049996	12.000000	nontarget	2.000000	na
16.965282	0.049999	12.000000	nontarget	3.000000	na
17.015281	0.049995	12.000000	nontarget	4.000000	na
17.065276	0.049996	12.000000	nontarget	5.000000	na
17.115272	0.049998	12.000000	nontarget	6.000000	na
17.165270	0.049996	12.000000	nontarget	7.000000	na
17.215266	0.049996	12.000000	nontarget	8.000000	na
17.265263	0.049996	12.000000	nontarget	9.000000	na
17.315258	0.049998	12.000000	nontarget	10.000000	na
17.365256	0.049995	12.000000	nontarget	11.000000	na
17.415251	0.049996	12.000000	nontarget	12.000000	na
17.465248	0.049997	12.000000	nontarget	13.000000	na
17.515245	0.049999	12.000000	nontarget	14.000000	na
17.565244	0.049993	12.000000	nontarget	15.000000	17.565955
17.615236	0.049998	12.000000	nontarget	16.000000	na
17.665234	0.049997	13.000000	nontarget	1.000000	17.665946
17.715231	0.049997	13.000000	nontarget	2.000000	na
17.765228	0.049996	13.000000	nontarget	3.000000	na
17.815224	0.049996	13.000000	nontarget	4.000000	na
17.865220	0.049997	13.000000	nontarget	5.000000	na
17.915218	0.049996	13.000000	nontarget	6.000000	na
17.965213	0.049998	13.000000	nontarget	7.000000	na
18.015211	0.049995	13.000000	nontarget	8.000000	na
18.065207	0.049992	13.000000	nontarget	9.000000	na
18.115199	0.050000	13.000000	nontarget	10.000000	na
18.165199	0.049996	13.000000	nontarget	11.000000	na
18.215195	0.049996	13.000000	nontarget	12.000000	na
18.265191	0.049997	13.000000	nontarget	13.000000	na
18.315188	0.049996	13.000000	nontarget	14.000000	na
18.365185	0.049997	13.000000	nontarget	15.000000	na
18.415181	0.049996	13.000000	nontarget	16.000000	18.444684
18.465177	0.049998	14.000000	nontarget	1.000000	18.465894
18.515175	0.049996	14.000000	nontarget	2.000000	na
18.565171	0.049996	14.000000	nontarget	3.000000	na
18.615168	0.049996	14.000000	nontarget	4.000000	na
18.665164	0.050001	14.000000	nontarget	5.000000	na
18.715165	0.049992	14.000000	nontarget	6.000000	na
18.765157	0.049997	14.000000	nontarget	7.000000	na
18.815154	0.049997	14.000000	nontarget	8.000000	na
18.865150	0.049996	14.000000	nontarget	9.000000	na
18.915147	0.049997	14.000000	nontarget	10.000000	na
18.965143	0.049998	14.000000	nontarget	11.000000	na
19.015142	0.049996	14.000000	nontarget	12.000000	na
19.065138	0.049995	14.000000	nontarget	13.000000	na
19.115133	0.049996	14.000000	nontarget	14.000000	na
19.165129	0.049996	14.000000	nontarget	15.000000	na
19.215125	0.049997	14.000000	nontarget	16.000000	na
19.265122	0.049997	15.000000	nontarget	1.000000	19.267681
19.315119	0.049996	15.000000	nontarget	2.000000	na
19.365115	0.049996	15.000000	nontarget	3.000000	na
19.415111	0.049996	15.000000	nontarget	4.000000	na
19.465107	0.049998	15.000000	nontarget	5.000000	na
19.515105	0.049997	15.000000	nontarget	6.000000	na
19.565102	0.049996	15.000000	nontarget	7.000000	na
19.615098	0.049996	15.000000	nontarget	8.000000	na
19.665094	0.049983	15.000000	nontarget	9.000000	na
19.715077	0.050010	15.000000	nontarget	10.000000	na
19.765087	0.049997	15.000000	nontarget	11.000000	na
19.815084	0.049997	15.000000	nontarget	12.000000	na
19.865081	0.049996	15.000000	nontarget	13.000000	na
19.915077	0.049996	15.000000	nontarget	14.000000	na
19.965074	0.049998	15.000000	nontarget	15.000000	na
20.015072	0.049996	15.000000	nontarget	16.000000	na
20.065068	0.049995	16.000000	nontarget	1.000000	na
20.115063	0.049995	16.000000	nontarget	2.000000	na
20.165058	0.049999	16.000000	nontarget	3.000000	20.166713
20.215057	0.049995	16.000000	nontarget	4.000000	na
20.265052	0.049998	16.000000	nontarget	5.000000	na
20.315050	0.049995	16.000000	nontarget	6.000000	na
20.365045	0.049997	16.000000	nontarget	7.000000	na
20.415042	0.049996	16.000000	nontarget	8.000000	na
20.465039	0.049996	16.000000	nontarget	9.000000	na
20.515034	0.049996	16.000000	nontarget	10.000000	na
20.565031	0.049998	16.000000	nontarget	11.000000	na
20.615029	0.049996	16.000000	nontarget	12.000000	na
20.665025	0.049999	16.000000	nontarget	13.000000	na
20.715024	0.049993	16.000000	nontarget	14.000000	na
20.765017	0.049996	16.000000	nontarget	15.000000	na
20.815013	0.049998	16.000000	nontarget	16.000000	na
20.865011	0.049996	17.000000	nontarget	1.000000	20.865721
20.915006	0.049998	17.000000	nontarget	2.000000	na
20.965005	0.049998	17.000000	nontarget	3.000000	na
21.015002	0.049995	17.000000	nontarget	4.000000	na
21.064997	0.049995	17.000000	nontarget	5.000000	na
21.114992	0.049997	17.000000	nontarget	6.000000	na
21.164989	0.049997	17.000000	nontarget	7.000000	na
21.214986	0.049996	17.000000	nontarget	8.000000	na
21.264982	0.049996	17.000000	nontarget	9.000000	na
21.314978	0.049998	17.000000	nontarget	10.000000	na
21.364977	0.049996	17.000000	nontarget	11.000000	na
21.414972	0.049997	17.000000	nontarget	12.000000	na
21.464970	0.049997	17.000000	nontarget	13.000000	na
21.514967	0.049996	17.000000	nontarget	14.000000	na
21.564963	0.049995	17.000000	nontarget	15.000000	na
21.614957	0.049998	17.000000	nontarget	16.000000	21.621871
21.664955	0.049999	18.000000	nontarget	1.000000	21.665666
21.714954	0.049994	18.000000	nontarget	2.000000	na
21.764947	0.049997	18.000000	nontarget	3.000000	na
21.814944	0.049997	18.000000	nontarget	4.000000	na
21.864941	0.049996	18.000000	nontarget	5.000000	na
21.914938	0.049995	18.000000	nontarget	6.000000	na
21.964933	0.049998	18.000000	nontarget	7.000000	na
22.014931	0.049996	18.000000	nontarget	8.000000	na
22.064927	0.049997	18.000000	nontarget	9.000000	na
22.114924	0.049997	18.000000	nontarget	10.000000	na
22.164920	0.049998	18.000000	nontarget	11.000000	na
22.214918	0.049994	18.000000	nontarget	12.000000	na
22.264912	0.049998	18.000000	nontarget	13.000000	na
22.314910	0.049995	18.000000	nontarget	14.000000	na
22.364906	0.049997	18.000000	nontarget	15.000000	na
22.414902	0.049997	18.000000	nontarget	16.000000	na
22.464899	0.049996	19.000000	nontarget	1.000000	na
22.514896	0.049998	19.000000	nontarget	2.000000	na
22.564893	0.049995	19.000000	nontarget	3.000000	22.565594
22.614888	0.049995	19.000000	nontarget	4.000000	na
22.664884	0.049999	19.000000	nontarget	5.000000	na
22.714883	0.049993	19.000000	nontarget	6.000000	na
22.764876	0.049998	19.000000	nontarget	7.000000	na
22.814874	0.049998	19.000000	nontarget	8.000000	na
22.864872	0.049996	19.000000	nontarget	9.000000	na
22.914868	0.049997	19.000000	nontarget	10.000000	na
22.964865	0.049997	19.000000	nontarget	11.000000	na
23.014862	0.049996	19.000000	nontarget	12.000000	na
23.064858	0.049996	19.000000	nontarget	13.000000	na
23.114854	0.049996	19.000000	nontarget	14.000000	na
23.164850	0.049998	19.000000	nontarget	15.000000	na
23.214847	0.049995	19.000000	nontarget	16.000000	na
23.264843	0.049997	20.000000	nontarget	1.000000	na
23.314839	0.049991	20.000000	nontarget	2.000000	na
23.364830	0.050002	20.000000	nontarget	3.000000	na
23.414832	0.049996	20.000000	nontarget	4.000000	na
23.464829	0.049996	20.000000	nontarget	5.000000	23.487650
23.514825	0.049997	20.000000	nontarget	6.000000	na
23.564822	0.050019	20.000000	nontarget	7.000000	na
23.614841	0.049974	20.000000	nontarget	8.000000	na
23.664815	0.050020	20.000000	nontarget	9.000000	na
23.714835	0.049973	20.000000	nontarget	10.000000	na
23.764809	0.050020	20.000000	nontarget	11.000000	na
23.814828	0.049972	20.000000	nontarget	12.000000	na
23.864800	0.050026	20.000000	nontarget	13.000000	na
23.914826	0.049980	20.000000	nontarget	14.000000	na
23.964806	0.050012	20.000000	nontarget	15.000000	na
24.014819	0.049970	20.000000	nontarget	16.000000	na
24.064789	0.050003	21.000000	target	1.000000	na
24.114791	0.050010	21.000000	target	2.000000	na
24.164802	0.050009	21.000000	target	3.000000	na
24.214811	0.049996	21.000000	target	4.000000	na
24.264806	0.050000	21.000000	target	5.000000	na
24.314807	0.050003	21.000000	target	6.000000	na
24.364809	0.049968	21.000000	target	7.000000	na
24.414777	0.050000	21.000000	target	8.000000	na
24.464777	0.049994	21.000000	target	9.000000	na
24.514771	0.049992	21.000000	target	10.000000	na
24.564763	0.050002	21.000000	target	11.000000	na
24.614765	0.049999	21.000000	target	12.000000	na
24.664765	0.049976	21.000000	target	13.000000	na
24.714740	0.049993	21.000000	target	14.000000	na
24.764733	0.050012	21.000000	target	15.000000	na
24.814745	0.049995	21.000000	target	16.000000	na
24.864740	0.049993	22.000000	target	1.000000	na
24.914732	0.049996	22.000000	target	2.000000	na
24.964729	0.049997	22.000000	target	3.000000	na
25.014726	0.049985	22.000000	target	4.000000	na
25.064711	0.049996	22.000000	target	5.000000	na
25.114707	0.049998	22.000000	target	6.000000	na
25.164705	0.050001	22.000000	target	7.000000	na
25.214706	0.049997	22.000000	target	8.000000	na
25.264704	0.049997	22.000000	target	9.000000	na
25.314700	0.049996	22.000000	target	10.000000	na
25.364696	0.049996	22.000000	target	11.000000	na
25.414692	0.049997	22.000000	target	12.000000	na
25.464689	0.049996	22.000000	target	13.000000	na
25.514685	0.049998	22.000000	target	14.000000	na
25.564683	0.049996	22.000000	target	15.000000	na
25.614679	0.049996	22.000000	target	16.000000	25.645857
25.664675	0.049998	23.000000	nontarget	1.000000	25.665397
25.714674	0.049996	23.000000	nontarget	2.000000	na
25.764670	0.049996	23.000000	nontarget	3.000000	na
25.814666	0.049996	23.000000	nontarget	4.000000	na
25.864661	0.049996	23.000000	nontarget	5.000000	na
25.914657	0.049996	23.000000	nontarget	6.000000	na
25.964653	0.049999	23.000000	nontarget	7.000000	na
26.014652	0.049995	23.000000	nontarget	8.000000	na
26.064647	0.049998	23.000000	nontarget	9.000000	na
26.114645	0.049997	23.000000	nontarget	10.000000	na
26.164642	0.049996	23.000000	nontarget	11.000000	na
26.214638	0.049995	23.000000	nontarget	12.000000	na
26.264633	0.049997	23.000000	nontarget	13.000000	na
26.314631	0.049996	23.000000	nontarget	14.000000	na
26.364627	0.049997	23.000000	nontarget	15.000000	na
26.414623	0.049996	23.000000	nontarget	16.000000	na
26.464620	0.049996	24.000000	target	1.000000	na
26.514616	0.049997	24.000000	target	2.000000	na
26.564613	0.049997	24.000000	target	3.000000	na
26.614610	0.049996	24.000000	target	4.000000	na
26.664606	0.049996	24.000000	target	5.000000	na
26.714602	0.049998	24.000000	target	6.000000	na
26.764599	0.049996	24.000000	target	7.000000	na
26.814596	0.049995	24.000000	target	8.000000	na
26.864591	0.049998	24.000000	target	9.000000	na
26.914589	0.049996	24.000000	target	10.000000	na
26.964585	0.049998	24.000000	target	11.000000	na
27.014583	0.049996	24.000000	target	12.000000	na
27.064579	0.049991	24.000000	target	13.000000	na
27.114570	0.050002	24.000000	target	14.000000	na
27.164572	0.049995	24.000000	target	15.000000	na
27.214567	0.049997	24.000000	target	16.000000	na
27.264564	0.049996	25.000000	target	1.000000	na
27.314561	0.049996	25.000000	target	2.000000	na
27.364557	0.049996	25.000000	target	3.000000	na
27.414553	0.049997	25.000000	target	4.000000	na
27.464549	0.049997	25.000000	target	5.000000	na
27.514546	0.049997	25.000000	target	6.000000	na
27.564544	0.049995	25.000000	target	7.000000	na
27.614539	0.049996	25.000000	target	8.000000	na
27.664535	0.050005	25.000000	target	9.000000	na
27.714540	0.049989	25.000000	target	10.000000	na
27.764529	0.049997	25.000000	target	11.000000	na
27.814526	0.049997	25.000000	target	12.000000	na
27.864523	0.049996	25.000000	target	13.000000	na
27.914518	0.049996	25.000000	target	14.000000	na
27.964514	0.049998	25.000000	target	15.000000	na
28.014513	0.049996	25.000000	target	16.000000	na
28.064509	0.049991	26.000000	nontarget	1.000000	na
28.114500	0.050002	26.000000	nontarget	2.000000	na
28.164502	0.049992	26.000000	nontarget	3.000000	28.165211
28.214494	0.050001	26.000000	nontarget	4.000000	na
28.264495	0.049997	26.000000	nontarget	5.000000	na
28.314491	0.049995	26.000000	nontarget	6.000000	na
28.364487	0.049997	26.000000	nontarget	7.000000	na
28.414484	0.049995	26.000000	nontarget	8.000000	na
28.464479	0.049999	26.000000	nontarget	9.000000	na
28.514477	0.049995	26.000000	nontarget	10.000000	na
28.564472	0.049996	26.000000	nontarget	11.000000	na
28.614468	0.049998	26.000000	nontarget	12.000000	na
28.664466	0.050000	26.000000	nontarget	13.000000	na
28.714466	0.049993	26.000000	nontarget	14.000000	na
28.764460	0.049996	26.000000	nontarget	15.000000	na
28.814455	0.049998	26.000000	nontarget	16.000000	na
28.864453	0.049995	27.000000	nontarget	1.000000	na
28.914448	0.049997	27.000000	nontarget	2.000000	na
28.964445	0.049998	27.000000	nontarget	3.000000	na
29.014443	0.049996	27.000000	nontarget	4.000000	na
29.064439	0.049996	27.000000	nontarget	5.000000	na
29.114435	0.049998	27.000000	nontarget	6.000000	na
29.164433	0.049996	27.000000	nontarget	7.000000	29.165149
29.214429	0.049996	27.000000	nontarget	8.000000	na
29.264425	0.049996	27.000000	nontarget	9.000000	na
29.314421	0.049996	27.000000	nontarget	10.000000	na
29.364417	0.049996	27.000000	nontarget	11.000000	na
29.414413	0.049998	27.000000	nontarget	12.000000	na
29.464411	0.049995	27.000000	nontarget	13.000000	na
29.514407	0.049996	27.000000	nontarget	14.000000	na
29.564402	0.049998	27.000000	nontarget	15.000000	na
29.614400	0.049996	27.000000	nontarget	16.000000	na
29.664397	0.049996	28.000000	nontarget	1.000000	na
29.714393	0.049996	28.000000	nontarget	2.000000	na
29.764389	0.049997	28.000000	nontarget	3.000000	na
29.814386	0.049995	28.000000	nontarget	4.000000	na
29.864381	0.049997	28.000000	nontarget	5.000000	na
29.914378	0.049997	28.000000	nontarget	6.000000	na
29.964376	0.049998	28.000000	nontarget	7.000000	na
30.014373	0.049996	28.000000	nontarget	8.000000	30.015100
30.064370	0.049996	28.000000	nontarget	9.000000	na
30.114366	0.049994	28.000000	nontarget	10.000000	na
30.164360	0.050001	28.000000	nontarget	11.000000	na
30.214361	0.049993	28.000000	nontarget	12.000000	na
30.264354	0.049996	28.000000	nontarget	13.000000	na
30.314350	0.049997	28.000000	nontarget	14.000000	na
30.364347	0.049998	28.000000	nontarget	15.000000	na
30.414345	0.049995	28.000000	nontarget	16.000000	na
30.464340	0.049998	29.000000	nontarget	1.000000	na
30.514337	0.049994	29.000000	nontarget	2.000000	na
30.564332	0.049998	29.000000	nontarget	3.000000	na
30.614330	0.049996	29.000000	nontarget	4.000000	na
30.664326	0.049997	29.000000	nontarget	5.000000	na
30.714323	0.049996	29.000000	nontarget	6.000000	na
30.764319	0.049996	29.000000	nontarget	7.000000	na
30.814316	0.049996	29.000000	nontarget	8.000000	na
30.864312	0.049998	29.000000	nontarget	9.000000	na
30.914310	0.049997	29.000000	nontarget	10.000000	na
30.964307	0.049997	29.000000	nontarget	11.000000	na
31.014304	0.049995	29.000000	nontarget	12.000000	31.015024
31.064299	0.049997	29.000000	nontarget	13.000000	na
31.114296	0.049997	29.000000	nontarget	14.000000	na
31.164293	0.049995	29.000000	nontarget	15.000000	na
31.214287	0.049998	29.000000	nontarget	16.000000	na
31.264286	0.049997	30.000000	nontarget	1.000000	na
31.314282	0.049994	30.000000	nontarget	2.000000	na
31.364277	0.049997	30.000000	nontarget	3.000000	na
31.414274	0.049997	30.000000	nontarget	4.000000	na
31.464271	0.049995	30.000000	nontarget	5.000000	na
31.514266	0.049999	30.000000	nontarget	6.000000	na
31.564264	0.049995	30.000000	nontarget	7.000000	na
31.614259	0.049997	30.000000	nontarget	8.000000	na
31.664256	0.049998	30.000000	nontarget	9.000000	na
31.714254	0.049996	30.000000	nontarget	10.000000	na
31.764250	0.049996	30.000000	nontarget	11.000000	na
31.814246	0.049996	30.000000	nontarget	12.000000	na
31.864243	0.049996	30.000000	nontarget	13.000000	31.864947
31.914239	0.049996	30.000000	nontarget	14.000000	na
31.964235	0.049999	30.000000	nontarget	15.000000	na
32.014234	0.049993	30.000000	nontarget	16.000000	na
32.064226	0.049999	31.000000	nontarget	1.000000	na
32.114226	0.049995	31.000000	nontarget	2.000000	na
32.164221	0.049996	31.000000	nontarget	3.000000	na
32.214217	0.049997	31.000000	nontarget	4.000000	na
32.264214	0.049998	31.000000	nontarget	5.000000	na
32.314212	0.049994	31.000000	nontarget	6.000000	na
32.364206	0.049998	31.000000	nontarget	7.000000	na
32.414204	0.049997	31.000000	nontarget	8.000000	na
32.464201	0.049996	31.000000	nontarget	9.000000	na
32.514197	0.049988	31.000000	nontarget	10.000000	na
32.564185	0.050006	31.000000	nontarget	11.000000	na
32.614190	0.049997	31.000000	nontarget	12.000000	na
32.664187	0.049997	31.000000	nontarget	13.000000	na
32.714184	0.049996	31.000000	nontarget	14.000000	na
32.764180	0.049997	31.000000	nontarget	15.000000	na
32.814177	0.049995	31.000000	nontarget	16.000000	32.814860
32.864172	0.049996	32.000000	nontarget	1.000000	32.864861
32.914168	0.049998	32.000000	nontarget	2.000000	na
32.964166	0.049996	32.000000	nontarget	3.000000	na
33.014163	0.049996	32.000000	nontarget	4.000000	na
33.064159	0.049996	32.000000	nontarget	5.000000	na
33.114156	0.049996	32.000000	nontarget	6.000000	na
33.164152	0.049996	32.000000	nontarget	7.000000	na
33.214149	0.049995	32.000000	nontarget	8.000000	na
33.264144	0.049998	32.000000	nontarget	9.000000	na
33.314141	0.049996	32.000000	nontarget	10.000000	na
33.364138	0.049996	32.000000	nontarget	11.000000	na
33.414134	0.049997	32.000000	nontarget	12.000000	na
33.464131	0.049996	32.000000	nontarget	13.000000	na
33.514127	0.049997	32.000000	nontarget	14.000000	na
33.564124	0.049996	32.000000	nontarget	15.000000	na
33.614121	0.050006	32.000000	nontarget	16.000000	na
33.664126	0.049989	33.000000	nontarget	1.000000	na
33.714115	0.049995	33.000000	nontarget	2.000000	33.714811
33.764110	0.049996	33.000000	nontarget	3.000000	na
33.814105	0.050021	33.000000	nontarget	4.000000	na
33.864126	0.049990	33.000000	nontarget	5.000000	na
33.914116	0.049979	33.000000	nontarget	6.000000	na
33.964094	0.050011	33.000000	nontarget	7.000000	na
34.014105	0.049989	33.000000	nontarget	8.000000	na
34.064094	0.050003	33.000000	nontarget	9.000000	na
34.114096	0.049995	33.000000	nontarget	10.000000	na
34.164091	0.049989	33.000000	nontarget	11.000000	na
34.214080	0.049995	33.000000	nontarget	12.000000	na
34.264075	0.049994	33.000000	nontarget	13.000000	na
34.314069	0.049999	33.000000	nontarget	14.000000	na
34.364067	0.049996	33.000000	nontarget	15.000000	na
34.414063	0.049998	33.000000	nontarget	16.000000	na
34.464061	0.049996	34.000000	nontarget	1.000000	na
34.514057	0.050002	34.000000	nontarget	2.000000	na
34.564059	0.049987	34.000000	nontarget	3.000000	na
34.614046	0.050014	34.000000	nontarget	4.000000	34.614732
34.664060	0.049995	34.000000	nontarget	5.000000	na
34.714055	0.049984	34.000000	nontarget	6.000000	na
34.764039	0.049996	34.000000	nontarget	7.000000	na
34.814036	0.049999	34.000000	nontarget	8.000000	na
34.864034	0.049993	34.000000	nontarget	9.000000	na
34.914027	0.049999	34.000000	nontarget	10.000000	na
34.964026	0.049999	34.000000	nontarget	11.000000	na
35.014024	0.049997	34.000000	nontarget	12.000000	na
35.064022	0.049993	34.000000	nontarget	13.000000	na
35.114015	0.049997	34.000000	nontarget	14.000000	na
35.164012	0.049996	34.000000	nontarget	15.000000	na
35.214008	0.049996	34.000000	nontarget	16.000000	na
35.264004	0.049996	35.000000	nontarget	1.000000	na
35.314001	0.049997	35.000000	nontarget	2.000000	na
35.363998	0.049996	35.000000	nontarget	3.000000	na
35.413994	0.049999	35.000000	nontarget	4.000000	na
35.463993	0.049995	35.000000	nontarget	5.000000	35.464783
35.513988	0.049996	35.000000	nontarget	6.000000	na
35.563984	0.049997	35.000000	nontarget	7.000000	na
35.613981	0.049996	35.000000	nontarget	8.000000	na
35.663977	0.050003	35.000000	nontarget	9.000000	na
35.713980	0.049991	35.000000	nontarget	10.000000	na
35.763971	0.049997	35.000000	nontarget	11.000000	na
35.813968	0.049995	35.000000	nontarget	12.000000	na
35.863963	0.049997	35.000000	nontarget	13.000000	na
35.913960	0.049996	35.000000	nontarget	14.000000	na
35.963956	0.049998	35.000000	nontarget	15.000000	na
36.013954	0.049995	35.000000	nontarget	16.000000	na
36.063949	0.049996	36.000000	nontarget	1.000000	na
36.113946	0.049995	36.000000	nontarget	2.000000	na
36.163940	0.050000	36.000000	nontarget	3.000000	na
36.213940	0.049995	36.000000	nontarget	4.000000	36.218447
36.263935	0.049995	36.000000	nontarget	5.000000	na
36.313930	0.050001	36.000000	nontarget	6.000000	na
36.363931	0.049994	36.000000	nontarget	7.000000	na
36.413925	0.049996	36.000000	nontarget	8.000000	na
36.463921	0.049996	36.000000	nontarget	9.000000	na
36.513916	0.049998	36.000000	nontarget	10.000000	na
36.563914	0.049998	36.000000	nontarget	11.000000	na
36.613912	0.049995	36.000000	nontarget	12.000000	na
36.663906	0.049998	36.000000	nontarget	13.000000	na
36.713905	0.049996	36.000000	nontarget	14.000000	na
36.763901	0.049995	36.000000	nontarget	15.000000	na
36.813895	0.049997	36.000000	nontarget	16.000000	na
36.863893	0.049997	37.000000	nontarget	1.000000	na
36.913890	0.049996	37.000000	nontarget	2.000000	na
36.963886	0.049998	37.000000	nontarget	3.000000	na
37.013884	0.049995	37.000000	nontarget	4.000000	37.018561
37.063879	0.049996	37.000000	nontarget	5.000000	na
37.113876	0.049998	37.000000	nontarget	6.000000	na
37.163874	0.049998	37.000000	nontarget	7.000000	na
37.213871	0.049993	37.000000	nontarget	8.000000	na
37.263865	0.049996	37.000000	nontarget	9.000000	na
37.313861	0.049997	37.000000	nontarget	10.000000	na
37.363859	0.049994	37.000000	nontarget	11.000000	na
37.413853	0.049999	37.000000	nontarget	12.000000	na
37.463851	0.049995	37.000000	nontarget	13.000000	na
37.513846	0.049997	37.000000	nontarget	14.000000	na
37.563843	0.049998	37.000000	nontarget	15.000000	na
37.613841	0.049996	37.000000	nontarget	16.000000	na
37.663837	0.049998	38.000000	nontarget	1.000000	na
37.713835	0.049995	38.000000	nontarget	2.000000	na
37.763830	0.049996	38.000000	nontarget	3.000000	na
37.813826	0.049998	38.000000	nontarget	4.000000	37.819428
37.863823	0.049996	38.000000	nontarget	5.000000	na
37.913820	0.049998	38.000000	nontarget	6.000000	na
37.963818	0.049996	38.000000	nontarget	7.000000	na
38.013814	0.049996	38.000000	nontarget	8.000000	na
38.063810	0.049971	38.000000	nontarget	9.000000	na
38.113781	0.050023	38.000000	nontarget	10.000000	na
38.163804	0.049997	38.000000	nontarget	11.000000	na
38.213801	0.049995	38.000000	nontarget	12.000000	na
38.263795	0.049996	38.000000	nontarget	13.000000	na
38.313791	0.049997	38.000000	nontarget	14.000000	na
38.363788	0.049996	38.000000	nontarget	15.000000	na
38.413784	0.049999	38.000000	nontarget	16.000000	na
38.463783	0.049995	39.000000	nontarget	1.000000	na
38.513778	0.049999	39.000000	nontarget	2.000000	na
38.563777	0.049994	39.000000	nontarget	3.000000	na
38.613771	0.049996	39.000000	nontarget	4.000000	na
38.663768	0.049996	39.000000	nontarget	5.000000	38.669566
38.713764	0.049997	39.000000	nontarget	6.000000	na
38.763761	0.049996	39.000000	nontarget	7.000000	na
38.813757	0.049996	39.000000	nontarget	8.000000	na
38.863753	0.049997	39.000000	nontarget	9.000000	na
38.913750	0.049997	39.000000	nontarget	10.000000	na
38.963747	0.049997	39.000000	nontarget	11.000000	na
39.013744	0.049994	39.000000	nontarget	12.000000	na
39.063738	0.049998	39.000000	nontarget	13.000000	na
39.113736	0.049996	39.000000	nontarget	14.000000	na
39.163732	0.049997	39.000000	nontarget	15.000000	na
39.213729	0.049997	39.000000	nontarget	16.000000	na
39.263726	0.049997	40.000000	nontarget	1.000000	na
39.313723	0.049995	40.000000	nontarget	2.000000	na
39.363718	0.049996	40.000000	nontarget	3.000000	na
39.413714	0.049995	40.000000	nontarget	4.000000	na
39.463708	0.049999	40.000000	nontarget	5.000000	39.464509
39.513707	0.049996	40.000000	nontarget	6.000000	na
39.563703	0.049998	40.000000	nontarget	7.000000	na
39.613701	0.049992	40.000000	nontarget	8.000000	na
39.663693	0.049990	40.000000	nontarget	9.000000	na
39.713683	0.050009	40.000000	nontarget	10.000000	na
39.763692	0.049996	40.000000	nontarget	11.000000	na
39.813688	0.049997	40.000000	nontarget	12.000000	na
39.863685	0.049995	40.000000	nontarget	13.000000	na
39.913680	0.049999	40.000000	nontarget	14.000000	na
39.963679	0.049996	40.000000	nontarget	15.000000	na
40.013675	0.049995	40.000000	nontarget	16.000000	na
40.063670	0.049997	41.000000	nontarget	1.000000	na
40.113668	0.049996	41.000000	nontarget	2.000000	na
40.163664	0.049996	41.000000	nontarget	3.000000	na
40.213660	0.049997	41.000000	nontarget	4.000000	40.214444
40.263657	0.049995	41.000000	nontarget	5.000000	na
40.313652	0.049997	41.000000	nontarget	6.000000	na
40.363649	0.049999	41.000000	nontarget	7.000000	na
40.413648	0.049993	41.000000	nontarget	8.000000	na
40.463642	0.049998	41.000000	nontarget	9.000000	na
40.513640	0.049996	41.000000	nontarget	10.000000	na
40.563635	0.049995	41.000000	nontarget	11.000000	na
40.613630	0.049999	41.000000	nontarget	12.000000	na
40.663630	0.049996	41.000000	nontarget	13.000000	na
40.713625	0.049996	41.000000	nontarget	14.000000	na
40.763622	0.049996	41.000000	nontarget	15.000000	na
40.813617	0.049997	41.000000	nontarget	16.000000	na
40.863615	0.049994	42.000000	nontarget	1.000000	na
40.913609	0.049998	42.000000	nontarget	2.000000	na
40.963607	0.049999	42.000000	nontarget	3.000000	na
41.013606	0.049993	42.000000	nontarget	4.000000	41.014333
41.063600	0.049997	42.000000	nontarget	5.000000	na
41.113596	0.049997	42.000000	nontarget	6.000000	na
41.163593	0.049996	42.000000	nontarget	7.000000	na
41.213589	0.049996	42.000000	nontarget	8.000000	na
41.263586	0.049997	42.000000	nontarget	9.000000	na
41.313583	0.049996	42.000000	nontarget	10.000000	na
41.363579	0.049996	42.000000	nontarget	11.000000	na
41.413575	0.050009	42.000000	nontarget	12.000000	na
41.463584	0.049983	42.000000	nontarget	13.000000	na
41.513567	0.049998	42.000000	nontarget	14.000000	na
41.563565	0.049996	42.000000	nontarget	15.000000	na
41.613561	0.049996	42.000000	nontarget	16.000000	na
41.663557	0.050000	43.000000	nontarget	1.000000	41.669170
41.713557	0.049995	43.000000	nontarget	2.000000	na
41.763552	0.049998	43.000000	nontarget	3.000000	na
41.813549	0.049996	43.000000	nontarget	4.000000	na
41.863545	0.049994	43.000000	nontarget	5.000000	na
41.913539	0.049998	43.000000	nontarget	6.000000	na
41.963537	0.049998	43.000000	nontarget	7.000000	na
42.013535	0.049995	43.000000	nontarget	8.000000	na
42.063530	0.049997	43.000000	nontarget	9.000000	na
42.113527	0.049971	43.000000	nontarget	10.000000	na
42.163498	0.050021	43.000000	nontarget	11.000000	na
42.213519	0.049998	43.000000	nontarget	12.000000	na
42.263517	0.049995	43.000000	nontarget	13.000000	na
42.313512	0.049996	43.000000	nontarget	14.000000	na
42.363509	0.049996	43.000000	nontarget	15.000000	na
42.413505	0.049998	43.000000	nontarget	16.000000	na
42.463502	0.049996	44.000000	nontarget	1.000000	na
42.513498	0.049998	44.000000	nontarget	2.000000	42.518357
42.563496	0.049999	44.000000	nontarget	3.000000	na
42.613495	0.049994	44.000000	nontarget	4.000000	na
42.663488	0.049998	44.000000	nontarget	5.000000	na
42.713487	0.049994	44.000000	nontarget	6.000000	na
42.763481	0.049996	44.000000	nontarget	7.000000	na
42.813477	0.049996	44.000000	nontarget	8.000000	na
42.863473	0.050006	44.000000	nontarget	9.000000	na
42.913479	0.049990	44.000000	nontarget	10.000000	na
42.963469	0.050004	44.000000	nontarget	11.000000	na
43.013473	0.049994	44.000000	nontarget	12.000000	na
43.063467	0.050003	44.000000	nontarget	13.000000	na
43.113470	0.049999	44.000000	nontarget	14.000000	na
43.163470	0.050001	44.000000	nontarget	15.000000	na
43.213471	0.049987	44.000000	nontarget	16.000000	na
43.263458	0.049981	45.000000	nontarget	1.000000	na
43.313439	0.050022	45.000000	nontarget	2.000000	na
43.363462	0.049977	45.000000	nontarget	3.000000	na
43.413439	0.050002	45.000000	nontarget	4.000000	43.422392
43.463441	0.049998	45.000000	nontarget	5.000000	na
43.513439	0.049989	45.000000	nontarget	6.000000	na
43.563428	0.050005	45.000000	nontarget	7.000000	na
43.613433	0.049995	45.000000	nontarget	8.000000	na
43.663428	0.049993	45.000000	nontarget	9.000000	na
43.713422	0.049991	45.000000	nontarget	10.000000	na
43.763412	0.050000	45.000000	nontarget	11.000000	na
43.813413	0.050002	45.000000	nontarget	12.000000	na
43.863415	0.049998	45.000000	nontarget	13.000000	na
43.913412	0.050001	45.000000	nontarget	14.000000	na
43.963413	0.049986	45.000000	nontarget	15.000000	na
44.013399	0.049997	45.000000	nontarget	16.000000	na
44.063397	0.049984	46.000000	nontarget	1.000000	na
44.113381	0.050001	46.000000	nontarget	2.000000	na
44.163382	0.049997	46.000000	nontarget	3.000000	na
44.213379	0.049997	46.000000	nontarget	4.000000	na
44.263376	0.049995	46.000000	nontarget	5.000000	44.288281
44.313371	0.049999	46.000000	nontarget	6.000000	na
44.363370	0.050000	46.000000	nontarget	7.000000	na
44.413370	0.049993	46.000000	nontarget	8.000000	na
44.463363	0.049996	46.000000	nontarget	9.000000	na
44.513358	0.049996	46.000000	nontarget	10.000000	na
44.563354	0.049998	46.000000	nontarget	11.000000	na
44.613352	0.049997	46.000000	nontarget	12.000000	na
44.663349	0.049996	46.000000	nontarget	13.000000	na
44.713345	0.049996	46.000000	nontarget	14.000000	na
44.763341	0.049995	46.000000	nontarget	15.000000	na
44.813336	0.049999	46.000000	nontarget	16.000000	na
44.863334	0.049996	47.000000	nontarget	1.000000	na
44.913330	0.049998	47.000000	nontarget	2.000000	na
44.963328	0.049997	47.000000	nontarget	3.000000	na
45.013325	0.049998	47.000000	nontarget	4.000000	na
45.063323	0.049995	47.000000	nontarget	5.000000	45.064038
45.113318	0.049997	47.000000	nontarget	6.000000	na
45.163314	0.049996	47.000000	nontarget	7.000000	na
45.213311	0.049996	47.000000	nontarget	8.000000	na
45.263306	0.049996	47.000000	nontarget	9.000000	na
45.313302	0.049998	47.000000	nontarget	10.000000	na
45.363300	0.049995	47.000000	nontarget	11.000000	na
45.413295	0.049998	47.000000	nontarget	12.000000	na
45.463293	0.049996	47.000000	nontarget	13.000000	na
45.513289	0.049996	47.000000	nontarget	14.000000	na
45.563285	0.049997	47.000000	nontarget	15.000000	na
45.613282	0.049996	47.000000	nontarget	16.000000	na
45.663278	0.050006	48.000000	nontarget	1.000000	na
45.713284	0.049987	48.000000	nontarget	2.000000	na
45.763271	0.049998	48.000000	nontarget	3.000000	45.777417
45.813269	0.049996	48.000000	nontarget	4.000000	na
45.863264	0.049999	48.000000	nontarget	5.000000	na
45.913263	0.049993	48.000000	nontarget	6.000000	na
45.963257	0.050000	48.000000	nontarget	7.000000	na
46.013257	0.049994	48.000000	nontarget	8.000000	na
46.063250	0.049997	48.000000	nontarget	9.000000	na
46.113248	0.049995	48.000000	nontarget	10.000000	na
46.163243	0.049998	48.000000	nontarget	11.000000	na
46.213241	0.049995	48.000000	nontarget	12.000000	na
46.263236	0.049997	48.000000	nontarget	13.000000	na
46.313233	0.049997	48.000000	nontarget	14.000000	na
46.363229	0.049996	48.000000	nontarget	15.000000	na
46.413226	0.049996	48.000000	nontarget	16.000000	na
46.463222	0.049996	49.000000	nontarget	1.000000	na
46.513218	0.049997	49.000000	nontarget	2.000000	na
46.563216	0.049997	49.000000	nontarget	3.000000	na
46.613213	0.049996	49.000000	nontarget	4.000000	na
46.663209	0.050001	49.000000	nontarget	5.000000	na
46.713210	0.049993	49.000000	nontarget	6.000000	46.714050
46.763203	0.049994	49.000000	nontarget	7.000000	na
46.813197	0.049998	49.000000	nontarget	8.000000	na
46.863195	0.049996	49.000000	nontarget	9.000000	na
46.913191	0.049997	49.000000	nontarget	10.000000	na
46.963188	0.049999	49.000000	nontarget	11.000000	na
47.013187	0.049994	49.000000	nontarget	12.000000	na
47.063181	0.049996	49.000000	nontarget	13.000000	na
47.113177	0.049996	49.000000	nontarget	14.000000	na
47.163173	0.049999	49.000000	nontarget	15.000000	na
47.213172	0.049999	49.000000	nontarget	16.000000	na
47.263170	0.049993	50.000000	nontarget	1.000000	47.263886
47.313163	0.049996	50.000000	nontarget	2.000000	na
47.363159	0.049997	50.000000	nontarget	3.000000	na
47.413156	0.049998	50.000000	nontarget	4.000000	na
47.463154	0.049995	50.000000	nontarget	5.000000	na
47.513149	0.049996	50.000000	nontarget	6.000000	na
47.563145	0.049998	50.000000	nontarget	7.000000	na
47.613143	0.049995	50.000000	nontarget	8.000000	na
47.663138	0.049986	50.000000	nontarget	9.000000	na
47.713124	0.050009	50.000000	nontarget	10.000000	na
47.763133	0.049996	50.000000	nontarget	11.000000	na
47.813129	0.049996	50.000000	nontarget	12.000000	na
47.863125	0.049996	50.000000	nontarget	13.000000	na
47.913121	0.049996	50.000000	nontarget	14.000000	na
47.963118	0.049999	50.000000	nontarget	15.000000	na
48.013116	0.049995	50.000000	nontarget	16.000000	na
48.063112	0.049996	51.000000	target	1.000000	na
48.113107	0.049996	51.000000	target	2.000000	na
48.163104	0.049998	51.000000	target	3.000000	na
48.213102	0.049996	51.000000	target	4.000000	na
48.263098	0.049996	51.000000	target	5.000000	na
48.313093	0.049998	51.000000	target	6.000000	na
48.363091	0.049990	51.000000	target	7.000000	na
48.413081	0.050004	51.000000	target	8.000000	na
48.463085	0.049995	51.000000	target	9.000000	na
48.513080	0.049997	51.000000	target	10.000000	na
48.563077	0.049997	51.000000	target	11.000000	na
48.613074	0.049996	51.000000	target	12.000000	na
48.663070	0.049999	51.000000	target	13.000000	na
48.713069	0.049994	51.000000	target	14.000000	48.727691
48.763063	0.049997	51.000000	target	15.000000	na
48.813060	0.049995	51.000000	target	16.000000	na
48.863055	0.049997	52.000000	nontarget	1.000000	48.863758
48.913052	0.049995	52.000000	nontarget	2.000000	na
48.963047	0.050001	52.000000	nontarget	3.000000	na
49.013048	0.049993	52.000000	nontarget	4.000000	na
49.063041	0.049997	52.000000	nontarget	5.000000	na
49.113038	0.049996	52.000000	nontarget	6.000000	na
49.163034	0.049998	52.000000	nontarget	7.000000	na
49.213032	0.049995	52.000000	nontarget	8.000000	na
49.263027	0.049996	52.000000	nontarget	9.000000	na
49.313023	0.049996	52.000000	nontarget	10.000000	na
49.363020	0.049996	52.000000	nontarget	11.000000	na
49.413016	0.049998	52.000000	nontarget	12.000000	na
49.463014	0.049999	52.000000	nontarget	13.000000	na
49.513013	0.049993	52.000000	nontarget	14.000000	na
49.563006	0.049997	52.000000	nontarget	15.000000	na
49.613003	0.049998	52.000000	nontarget	16.000000	na
49.663001	0.049997	53.000000	nontarget	1.000000	49.663694
49.712998	0.049994	53.000000	nontarget	2.000000	na
49.762993	0.050000	53.000000	nontarget	3.000000	na
49.812993	0.049993	53.000000	nontarget	4.000000	na
49.862986	0.049998	53.000000	nontarget	5.000000	na
49.912984	0.049994	53.000000	nontarget	6.000000	na
49.962978	0.049998	53.000000	nontarget	7.000000	na
50.012976	0.049998	53.000000	nontarget	8.000000	na
50.062975	0.049995	53.000000	nontarget	9.000000	na
50.112969	0.050004	53.000000	nontarget	10.000000	na
50.162974	0.049991	53.000000	nontarget	11.000000	na
50.212964	0.049993	53.000000	nontarget	12.000000	na
50.262957	0.049997	53.000000	nontarget	13.000000	na
50.312954	0.049998	53.000000	nontarget	14.000000	na
50.362952	0.049994	53.000000	nontarget	15.000000	na
50.412946	0.049999	53.000000	nontarget	16.000000	na
50.462944	0.049997	54.000000	nontarget	1.000000	na
50.512941	0.049995	54.000000	nontarget	2.000000	na
50.562936	0.050002	54.000000	nontarget	3.000000	50.594021
50.612939	0.049991	54.000000	nontarget	4.000000	na
50.662929	0.049997	54.000000	nontarget	5.000000	na
50.712927	0.049996	54.000000	nontarget	6.000000	na
50.762922	0.049997	54.000000	nontarget	7.000000	na
50.812919	0.049996	54.000000	nontarget	8.000000	na
50.862915	0.049996	54.000000	nontarget	9.000000	na
50.912912	0.049996	54.000000	nontarget	10.000000	na
50.962908	0.049999	54.000000	nontarget	11.000000	na
51.012907	0.049994	54.000000	nontarget	12.000000	na
51.062901	0.049997	54.000000	nontarget	13.000000	na
51.112898	0.049995	54.000000	nontarget	14.000000	na
51.162893	0.049999	54.000000	nontarget	15.000000	na
51.212892	0.049994	54.000000	nontarget	16.000000	na
51.262886	0.049997	55.000000	nontarget	1.000000	51.282101
51.312883	0.049998	55.000000	nontarget	2.000000	na
51.362881	0.049998	55.000000	nontarget	3.000000	na
51.412879	0.049993	55.000000	nontarget	4.000000	na
51.462872	0.049997	55.000000	nontarget	5.000000	na
51.512869	0.049996	55.000000	nontarget	6.000000	na
51.562866	0.049998	55.000000	nontarget	7.000000	na
51.612864	0.049995	55.000000	nontarget	8.000000	na
51.662858	0.049997	55.000000	nontarget	9.000000	na
51.712855	0.049996	55.000000	nontarget	10.000000	na
51.762852	0.049997	55.000000	nontarget	11.000000	na
51.812849	0.049996	55.000000	nontarget	12.000000	na
51.862844	0.049997	55.000000	nontarget	13.000000	na
51.912842	0.049996	55.000000	nontarget	14.000000	na
51.962837	0.049999	55.000000	nontarget	15.000000	na
52.012837	0.049994	55.000000	nontarget	16.000000	na
52.062831	0.049998	56.000000	nontarget	1.000000	52.077126
52.112829	0.049995	56.000000	nontarget	2.000000	na
52.162824	0.049999	56.000000	nontarget	3.000000	na
52.212823	0.049996	56.000000	nontarget	4.000000	na
52.262819	0.049996	56.000000	nontarget	5.000000	na
52.312814	0.049995	56.000000	nontarget	6.000000	na
52.362809	0.050006	56.000000	nontarget	7.000000	na
52.412816	0.050000	56.000000	nontarget	8.000000	na
52.462816	0.049990	56.000000	nontarget	9.000000	na
52.512806	0.049990	56.000000	nontarget	10.000000	na
52.562796	0.049997	56.000000	nontarget	11.000000	na
52.612792	0.050012	56.000000	nontarget	12.000000	na
52.662805	0.049997	56.000000	nontarget	13.000000	na
52.712802	0.049992	56.000000	nontarget	14.000000	na
52.762794	0.049983	56.000000	nontarget	15.000000	na
52.812777	0.050000	56.000000	nontarget	16.000000	52.813485
52.862777	0.049998	57.000000	nontarget	1.000000	52.863484
52.912775	0.050001	57.000000	nontarget	2.000000	na
52.962776	0.050003	57.000000	nontarget	3.000000	na
53.012779	0.049983	57.000000	nontarget	4.000000	na
53.062762	0.050007	57.000000	nontarget	5.000000	na
53.112769	0.049998	57.000000	nontarget	6.000000	na
53.162766	0.049993	57.000000	nontarget	7.000000	na
53.212760	0.049989	57.000000	nontarget	8.000000	na
53.262748	0.049997	57.000000	nontarget	9.000000	na
53.312745	0.050010	57.000000	nontarget	10.000000	na
53.362755	0.049992	57.000000	nontarget	11.000000	na
53.412747	0.049992	57.000000	nontarget	12.000000	na
53.462739	0.049996	57.000000	nontarget	13.000000	na
53.512735	0.049988	57.000000	nontarget	14.000000	na
53.562723	0.049995	57.000000	nontarget	15.000000	na
53.612718	0.049996	57.000000	nontarget	16.000000	na
53.662714	0.050017	58.000000	nontarget	1.000000	na
53.712731	0.049983	58.000000	nontarget	2.000000	53.713463
53.762714	0.049995	58.000000	nontarget	3.000000	na
53.812709	0.049999	58.000000	nontarget	4.000000	na
53.862707	0.049994	58.000000	nontarget	5.000000	na
53.912701	0.049998	58.000000	nontarget	6.000000	na
53.962700	0.049997	58.000000	nontarget	7.000000	na
54.012697	0.049995	58.000000	nontarget	8.000000	na
54.062692	0.049998	58.000000	nontarget	9.000000	na
54.112690	0.049996	58.000000	nontarget	10.000000	na
54.162686	0.049994	58.000000	nontarget	11.000000	na
54.212680	0.049999	58.000000	nontarget	12.000000	na
54.262679	0.049994	58.000000	nontarget	13.000000	na
54.312673	0.050000	58.000000	nontarget	14.000000	na
54.362673	0.049994	58.000000	nontarget	15.000000	na
54.412668	0.049997	58.000000	nontarget	16.000000	na
54.462664	0.049996	59.000000	nontarget	1.000000	na
54.512660	0.049998	59.000000	nontarget	2.000000	54.520057
54.562658	0.049997	59.000000	nontarget	3.000000	na
54.612655	0.049994	59.000000	nontarget	4.000000	na
54.662649	0.050003	59.000000	nontarget	5.000000	na
54.712652	0.049989	59.000000	nontarget	6.000000	na
54.762641	0.049997	59.000000	nontarget	7.000000	na
54.812639	0.049997	59.000000	nontarget	8.000000	na
54.862636	0.049996	59.000000	nontarget	9.000000	na
54.912632	0.049996	59.000000	nontarget	10.000000	na
54.962628	0.049999	59.000000	nontarget	11.000000	na
55.012628	0.049993	59.000000	nontarget	12.000000	na
55.062621	0.049997	59.000000	nontarget	13.000000	na
55.112618	0.049996	59.000000	nontarget	14.000000	na
55.162613	0.049999	59.000000	nontarget	15.000000	na
55.212613	0.049996	59.000000	nontarget	16.000000	na
55.262608	0.049997	60.000000	nontarget	1.000000	55.274050
55.312605	0.049997	60.000000	nontarget	2.000000	na
55.362602	0.049995	60.000000	nontarget	3.000000	na
55.412597	0.049998	60.000000	nontarget	4.000000	na
55.462595	0.049996	60.000000	nontarget	5.000000	na
55.512590	0.049997	60.000000	nontarget	6.000000	na
55.562587	0.049996	60.000000	nontarget	7.000000	na
55.612584	0.049997	60.000000	nontarget	8.000000	na
55.662580	0.050001	60.000000	nontarget	9.000000	na
55.712581	0.049993	60.000000	nontarget	10.000000	na
55.762574	0.049995	60.000000	nontarget	11.000000	na
55.812570	0.049998	60.000000	nontarget	12.000000	na
55.862567	0.049994	60.000000	nontarget	13.000000	na
55.912562	0.049997	60.000000	nontarget	14.000000	na
55.962559	0.049999	60.000000	nontarget	15.000000	na
56.012558	0.049995	60.000000	nontarget	16.000000	na
56.062553	0.049996	61.000000	nontarget	1.000000	na
56.112548	0.049997	61.000000	nontarget	2.000000	na
56.162545	0.049997	61.000000	nontarget	3.000000	na
56.212542	0.049997	61.000000	nontarget	4.000000	56.244887
56.262539	0.049997	61.000000	nontarget	5.000000	na
56.312536	0.049998	61.000000	nontarget	6.000000	na
56.362533	0.049995	61.000000	nontarget	7.000000	na
56.412528	0.049996	61.000000	nontarget	8.000000	na
56.462525	0.049997	61.000000	nontarget	9.000000	na
56.512522	0.049995	61.000000	nontarget	10.000000	na
56.562517	0.049999	61.000000	nontarget	11.000000	na
56.612516	0.049994	61.000000	nontarget	12.000000	na
56.662510	0.049997	61.000000	nontarget	13.000000	na
56.712507	0.049996	61.000000	nontarget	14.000000	na
56.762503	0.049997	61.000000	nontarget	15.000000	na
56.812500	0.049995	61.000000	nontarget	16.000000	na
56.862495	0.049997	62.000000	nontarget	1.000000	na
56.912493	0.049998	62.000000	nontarget	2.000000	na
56.962490	0.049998	62.000000	nontarget	3.000000	56.988986
57.012488	0.049993	62.000000	nontarget	4.000000	na
57.062481	0.049999	62.000000	nontarget	5.000000	na
57.112481	0.049993	62.000000	nontarget	6.000000	na
57.162474	0.049998	62.000000	nontarget	7.000000	na
57.212472	0.049998	62.000000	nontarget	8.000000	na
57.262469	0.049996	62.000000	nontarget	9.000000	na
57.312466	0.049995	62.000000	nontarget	10.000000	na
57.362461	0.049998	62.000000	nontarget	11.000000	na
57.412459	0.049995	62.000000	nontarget	12.000000	na
57.462454	0.049998	62.000000	nontarget	13.000000	na
57.512452	0.049997	62.000000	nontarget	14.000000	na
57.562449	0.049997	62.000000	nontarget	15.000000	na
57.612446	0.049994	62.000000	nontarget	16.000000	na
57.662440	0.050002	63.000000	nontarget	1.000000	na
57.712442	0.049993	63.000000	nontarget	2.000000	57.729955
57.762435	0.049996	63.000000	nontarget	3.000000	na
57.812430	0.049997	63.000000	nontarget	4.000000	na
57.862428	0.049996	63.000000	nontarget	5.000000	na
57.912424	0.049994	63.000000	nontarget	6.000000	na
57.962418	0.050000	63.000000	nontarget	7.000000	na
58.012418	0.049993	63.000000	nontarget	8.000000	na
58.062411	0.050000	63.000000	nontarget	9.000000	na
58.112411	0.049994	63.000000	nontarget	10.000000	na
58.162405	0.050009	63.000000	nontarget	11.000000	na
58.212414	0.049984	63.000000	nontarget	12.000000	na
58.262398	0.049999	63.000000	nontarget	13.000000	na
58.312397	0.049996	63.000000	nontarget	14.000000	na
58.362393	0.049996	63.000000	nontarget	15.000000	na
58.412389	0.049994	63.000000	nontarget	16.000000	na
58.462383	0.049997	64.000000	nontarget	1.000000	na
58.512380	0.049996	64.000000	nontarget	2.000000	58.524127
58.562376	0.049999	64.000000	nontarget	3.000000	na
58.612375	0.049994	64.000000	nontarget	4.000000	na
58.662369	0.049999	64.000000	nontarget	5.000000	na
58.712368	0.049996	64.000000	nontarget	6.000000	na
58.762364	0.049996	64.000000	nontarget	7.000000	na
58.812360	0.049996	64.000000	nontarget	8.000000	na
58.862356	0.049999	64.000000	nontarget	9.000000	na
58.912355	0.049994	64.000000	nontarget	10.000000	na
58.962349	0.049999	64.000000	nontarget	11.000000	na
59.012349	0.049993	64.000000	nontarget	12.000000	na
59.062342	0.049998	64.000000	nontarget	13.000000	na
59.112340	0.049996	64.000000	nontarget	14.000000	na
59.162336	0.049996	64.000000	nontarget	15.000000	na
59.212333	0.049998	64.000000	nontarget	16.000000	na
59.262331	0.049995	65.000000	target	1.000000	na
59.312325	0.049997	65.000000	target	2.000000	na
59.362322	0.049995	65.000000	target	3.000000	na
59.412317	0.049999	65.000000	target	4.000000	na
59.462316	0.049997	65.000000	target	5.000000	na
59.512313	0.049993	65.000000	target	6.000000	na
59.562307	0.049997	65.000000	target	7.000000	na
59.612304	0.049999	65.000000	target	8.000000	na
59.662303	0.049993	65.000000	target	9.000000	na
59.712297	0.049997	65.000000	target	10.000000	na
59.762294	0.049999	65.000000	target	11.000000	na
59.812293	0.049993	65.000000	target	12.000000	na
59.862286	0.050000	65.000000	target	13.000000	na
59.912286	0.049995	65.000000	target	14.000000	na
59.962281	0.049998	65.000000	target	15.000000	na
60.012279	0.049994	65.000000	target	16.000000	60.013017
60.062273	0.050001	66.000000	nontarget	1.000000	60.062987
60.112275	0.049992	66.000000	nontarget	2.000000	na
60.162266	0.049998	66.000000	nontarget	3.000000	na
60.212264	0.049996	66.000000	nontarget	4.000000	na
60.262260	0.049996	66.000000	nontarget	5.000000	na
60.312256	0.049996	66.000000	nontarget	6.000000	na
60.362252	0.049997	66.000000	nontarget	7.000000	na
60.412250	0.049997	66.000000	nontarget	8.000000	na
60.462247	0.049997	66.000000	nontarget	9.000000	na
60.512244	0.049995	66.000000	nontarget	10.000000	na
60.562239	0.049999	66.000000	nontarget	11.000000	na
60.612238	0.049997	66.000000	nontarget	12.000000	na
60.662235	0.049998	66.000000	nontarget	13.000000	na
60.712233	0.049991	66.000000	nontarget	14.000000	na
60.762224	0.049997	66.000000	nontarget	15.000000	na
60.812221	0.049995	66.000000	nontarget	16.000000	na
60.862216	0.049997	67.000000	nontarget	1.000000	na
60.912214	0.050000	67.000000	nontarget	2.000000	na
60.962213	0.049988	67.000000	nontarget	3.000000	60.989698
61.012202	0.050002	67.000000	nontarget	4.000000	na
61.062204	0.049998	67.000000	nontarget	5.000000	na
61.112202	0.049998	67.000000	nontarget	6.000000	na
61.162200	0.049995	67.000000	nontarget	7.000000	na
61.212195	0.049997	67.000000	nontarget	8.000000	na
61.262192	0.049994	67.000000	nontarget	9.000000	na
61.312187	0.049994	67.000000	nontarget	10.000000	na
61.362181	0.050003	67.000000	nontarget	11.000000	na
61.412183	0.049991	67.000000	nontarget	12.000000	na
61.462174	0.049996	67.000000	nontarget	13.000000	na
61.512170	0.049997	67.000000	nontarget	14.000000	na
61.562167	0.049998	67.000000	nontarget	15.000000	na
61.612165	0.049997	67.000000	nontarget	16.000000	na
61.662162	0.049996	68.000000	nontarget	1.000000	na
61.712158	0.049992	68.000000	nontarget	2.000000	na
61.762150	0.050000	68.000000	nontarget	3.000000	na
61.812150	0.049996	68.000000	nontarget	4.000000	61.833895
61.862146	0.049998	68.000000	nontarget	5.000000	na
61.912144	0.050007	68.000000	nontarget	6.000000	na
61.962151	0.049994	68.000000	nontarget	7.000000	na
62.012145	0.049986	68.000000	nontarget	8.000000	na
62.062131	0.049998	68.000000	nontarget	9.000000	na
62.112130	0.050035	68.000000	nontarget	10.000000	na
62.162164	0.050014	68.000000	nontarget	11.000000	na
62.212178	0.049956	68.000000	nontarget	12.000000	na
62.262134	0.049997	68.000000	nontarget	13.000000	na
62.312131	0.050003	68.000000	nontarget	14.000000	na
62.362134	0.049979	68.000000	nontarget	15.000000	na
62.412112	0.050001	68.000000	nontarget	16.000000	na
62.462113	0.050000	69.000000	nontarget	1.000000	na
62.512113	0.049986	69.000000	nontarget	2.000000	na
62.562099	0.050008	69.000000	nontarget	3.000000	na
62.612107	0.049998	69.000000	nontarget	4.000000	na
62.662105	0.049990	69.000000	nontarget	5.000000	62.679754
62.712094	0.049990	69.000000	nontarget	6.000000	na
62.762084	0.049996	69.000000	nontarget	7.000000	na
62.812080	0.049998	69.000000	nontarget	8.000000	na
62.862078	0.049996	69.000000	nontarget	9.000000	na
62.912074	0.050001	69.000000	nontarget	10.000000	na
62.962075	0.050001	69.000000	nontarget	11.000000	na
63.012075	0.049995	69.000000	nontarget	12.000000	na
63.062070	0.049983	69.000000	nontarget	13.000000	na
63.112053	0.049997	69.000000	nontarget	14.000000	na
63.162050	0.050004	69.000000	nontarget	15.000000	na
63.212054	0.049990	69.000000	nontarget	16.000000	na
63.262044	0.050001	70.000000	nontarget	1.000000	na
63.312045	0.049997	70.000000	nontarget	2.000000	na
63.362042	0.049998	70.000000	nontarget	3.000000	na
63.412040	0.049996	70.000000	nontarget	4.000000	63.412743
63.462036	0.049995	70.000000	nontarget	5.000000	na
63.512031	0.049998	70.000000	nontarget	6.000000	na
63.562029	0.049996	70.000000	nontarget	7.000000	na
63.612024	0.049997	70.000000	nontarget	8.000000	na
63.662021	0.049999	70.000000	nontarget	9.000000	na
63.712020	0.049993	70.000000	nontarget	10.000000	na
63.762014	0.049997	70.000000	nontarget	11.000000	na
63.812011	0.049997	70.000000	nontarget	12.000000	na
63.862008	0.049996	70.000000	nontarget	13.000000	na
63.912004	0.049996	70.000000	nontarget	14.000000	na
63.962000	0.049999	70.000000	nontarget	15.000000	63.962761
64.011999	0.049994	70.000000	nontarget	16.000000	na
64.061993	0.049998	71.000000	nontarget	1.000000	64.062684
64.111991	0.049996	71.000000	nontarget	2.000000	na
64.161987	0.049996	71.000000	nontarget	3.000000	na
64.211983	0.049996	71.000000	nontarget	4.000000	na
64.261979	0.049996	71.000000	nontarget	5.000000	na
64.311975	0.049998	71.000000	nontarget	6.000000	na
64.361973	0.049996	71.000000	nontarget	7.000000	na
64.411969	0.049995	71.000000	nontarget	8.000000	na
64.461965	0.049997	71.000000	nontarget	9.000000	na
64.511962	0.049997	71.000000	nontarget	10.000000	na
64.561959	0.049997	71.000000	nontarget	11.000000	na
64.611956	0.049995	71.000000	nontarget	12.000000	na
64.661951	0.049997	71.000000	nontarget	13.000000	na
64.711948	0.049998	71.000000	nontarget	14.000000	na
64.761946	0.049994	71.000000	nontarget	15.000000	64.762639
64.811940	0.049997	71.000000	nontarget	16.000000	na
64.861937	0.049996	72.000000	nontarget	1.000000	64.862638
64.911934	0.049996	72.000000	nontarget	2.000000	na
64.961930	0.049998	72.000000	nontarget	3.000000	na
65.011928	0.049996	72.000000	nontarget	4.000000	na
65.061924	0.049995	72.000000	nontarget	5.000000	na
65.111919	0.049996	72.000000	nontarget	6.000000	na
65.161916	0.049996	72.000000	nontarget	7.000000	na
65.211912	0.049999	72.000000	nontarget	8.000000	na
65.261910	0.049996	72.000000	nontarget	9.000000	na
65.311906	0.049996	72.000000	nontarget	10.000000	na
65.361901	0.049998	72.000000	nontarget	11.000000	na
65.411899	0.049996	72.000000	nontarget	12.000000	na
65.461896	0.049996	72.000000	nontarget	13.000000	na
65.511892	0.049996	72.000000	nontarget	14.000000	na
65.561889	0.049999	72.000000	nontarget	15.000000	na
65.611887	0.049994	72.000000	nontarget	16.000000	65.612624
65.661881	0.049999	73.000000	nontarget	1.000000	65.662591
65.711881	0.049996	73.000000	nontarget	2.000000	na
65.761876	0.049995	73.000000	nontarget	3.000000	na
65.811871	0.049996	73.000000	nontarget	4.000000	na
65.861868	0.049996	73.000000	nontarget	5.000000	na
65.911864	0.049997	73.000000	nontarget	6.000000	na
65.961861	0.049999	73.000000	nontarget	7.000000	na
66.011859	0.049995	73.000000	nontarget	8.000000	na
66.061854	0.049996	73.000000	nontarget	9.000000	na
66.111850	0.049995	73.000000	nontarget	10.000000	na
66.161846	0.049996	73.000000	nontarget	11.000000	na
66.211842	0.049999	73.000000	nontarget	12.000000	na
66.261841	0.049996	73.000000	nontarget	13.000000	na
66.311837	0.049996	73.000000	nontarget	14.000000	na
66.361833	0.049997	73.000000	nontarget	15.000000	na
66.411830	0.049996	73.000000	nontarget	16.000000	66.412547
66.461826	0.049998	74.000000	nontarget	1.000000	66.462513
66.511824	0.049995	74.000000	nontarget	2.000000	na
66.561818	0.049999	74.000000	nontarget	3.000000	na
66.611817	0.049994	74.000000	nontarget	4.000000	na
66.661811	0.049983	74.000000	nontarget	5.000000	na
66.711794	0.050011	74.000000	nontarget	6.000000	na
66.761805	0.049994	74.000000	nontarget	7.000000	na
66.811799	0.049998	74.000000	nontarget	8.000000	na
66.861797	0.049996	74.000000	nontarget	9.000000	na
66.911793	0.049998	74.000000	nontarget	10.000000	na
66.961791	0.049999	74.000000	nontarget	11.000000	na
67.011789	0.049994	74.000000	nontarget	12.000000	na
67.061783	0.049997	74.000000	nontarget	13.000000	na
67.111781	0.049994	74.000000	nontarget	14.000000	na
67.161775	0.049996	74.000000	nontarget	15.000000	na
67.211772	0.049999	74.000000	nontarget	16.000000	na
67.261770	0.049997	75.000000	nontarget	1.000000	67.273688
67.311767	0.049996	75.000000	nontarget	2.000000	na
67.361763	0.049995	75.000000	nontarget	3.000000	na
67.411758	0.049997	75.000000	nontarget	4.000000	na
67.461755	0.049997	75.000000	nontarget	5.000000	na
67.511752	0.049998	75.000000	nontarget	6.000000	na
67.561750	0.049996	75.000000	nontarget	7.000000	na
67.611746	0.049996	75.000000	nontarget	8.000000	na
67.661742	0.049996	75.000000	nontarget	9.000000	na
67.711738	0.049997	75.000000	nontarget	10.000000	na
67.761735	0.049996	75.000000	nontarget	11.000000	na
67.811732	0.049996	75.000000	nontarget	12.000000	na
67.861728	0.049997	75.000000	nontarget	13.000000	na
67.911725	0.049994	75.000000	nontarget	14.000000	na
67.961719	0.050000	75.000000	nontarget	15.000000	na
68.011720	0.049995	75.000000	nontarget	16.000000	na
68.061715	0.049996	76.000000	nontarget	1.000000	na
68.111710	0.049996	76.000000	nontarget	2.000000	68.112435
68.161707	0.049996	76.000000	nontarget	3.000000	na
68.211703	0.049995	76.000000	nontarget	4.000000	na
68.261698	0.049999	76.000000	nontarget	5.000000	na
68.311696	0.049996	76.000000	nontarget	6.000000	na
68.361692	0.049997	76.000000	nontarget	7.000000	na
68.411689	0.049996	76.000000	nontarget	8.000000	na
68.461685	0.049996	76.000000	nontarget	9.000000	na
68.511681	0.049998	76.000000	nontarget	10.000000	na
68.561679	0.049998	76.000000	nontarget	11.000000	na
68.611677	0.049995	76.000000	nontarget	12.000000	na
68.661672	0.049996	76.000000	nontarget	13.000000	na
68.711668	0.049996	76.000000	nontarget	14.000000	na
68.761664	0.049998	76.000000	nontarget	15.000000	68.778627
68.811662	0.049996	76.000000	nontarget	16.000000	na
68.861658	0.049996	77.000000	nontarget	1.000000	68.862347
68.911655	0.049995	77.000000	nontarget	2.000000	na
68.961649	0.050001	77.000000	nontarget	3.000000	na
69.011651	0.049993	77.000000	nontarget	4.000000	na
69.061643	0.049998	77.000000	nontarget	5.000000	na
69.111641	0.049995	77.000000	nontarget	6.000000	na
69.161636	0.049996	77.000000	nontarget	7.000000	na
69.211633	0.049997	77.000000	nontarget	8.000000	na
69.261630	0.049997	77.000000	nontarget	9.000000	na
69.311627	0.049996	77.000000	nontarget	10.000000	na
69.361623	0.049996	77.000000	nontarget	11.000000	na
69.411618	0.049997	77.000000	nontarget	12.000000	na
69.461615	0.049996	77.000000	nontarget	13.000000	na
69.511611	0.049997	77.000000	nontarget	14.000000	na
69.561609	0.049997	77.000000	nontarget	15.000000	69.576747
69.611605	0.049997	77.000000	nontarget	16.000000	na
69.661602	0.049998	78.000000	nontarget	1.000000	69.662281
69.711601	0.049994	78.000000	nontarget	2.000000	na
69.761594	0.049996	78.000000	nontarget	3.000000	na
69.811591	0.049998	78.000000	nontarget	4.000000	na
69.861589	0.049996	78.000000	nontarget	5.000000	na
69.911585	0.049996	78.000000	nontarget	6.000000	na
69.961581	0.049997	78.000000	nontarget	7.000000	na
70.011578	0.049997	78.000000	nontarget	8.000000	na
70.061575	0.049997	78.000000	nontarget	9.000000	na
70.111571	0.049994	78.000000	nontarget	10.000000	na
70.161565	0.049999	78.000000	nontarget	11.000000	na
70.211565	0.049996	78.000000	nontarget	12.000000	na
70.261561	0.049995	78.000000	nontarget	13.000000	na
70.311556	0.049996	78.000000	nontarget	14.000000	na
70.361552	0.049997	78.000000	nontarget	15.000000	na
70.411549	0.049997	78.000000	nontarget	16.000000	na
70.461546	0.049992	79.000000	nontarget	1.000000	70.490960
70.511538	0.050002	79.000000	nontarget	2.000000	na
70.561540	0.049997	79.000000	nontarget	3.000000	na
70.611537	0.049994	79.000000	nontarget	4.000000	na
70.661531	0.049998	79.000000	nontarget	5.000000	na
70.711529	0.049996	79.000000	nontarget	6.000000	na
70.761525	0.049997	79.000000	nontarget	7.000000	na
70.811522	0.049998	79.000000	nontarget	8.000000	na
70.861520	0.049994	79.000000	nontarget	9.000000	na
70.911514	0.049997	79.000000	nontarget	10.000000	na
70.961511	0.049998	79.000000	nontarget	11.000000	na
71.011509	0.049995	79.000000	nontarget	12.000000	na
71.061504	0.049997	79.000000	nontarget	13.000000	na
71.111501	0.049996	79.000000	nontarget	14.000000	na
71.161497	0.049997	79.000000	nontarget	15.000000	na
71.211494	0.049998	79.000000	nontarget	16.000000	na
71.261492	0.049995	80.000000	nontarget	1.000000	71.262185
71.311487	0.049996	80.000000	nontarget	2.000000	na
71.361482	0.049998	80.000000	nontarget	3.000000	na
71.411481	0.050008	80.000000	nontarget	4.000000	na
71.461489	0.049991	80.000000	nontarget	5.000000	na
71.511480	0.049990	80.000000	nontarget	6.000000	na
71.561470	0.049996	80.000000	nontarget	7.000000	na
71.611465	0.050049	80.000000	nontarget	8.000000	na
71.661514	0.050002	80.000000	nontarget	9.000000	na
71.711516	0.049989	80.000000	nontarget	10.000000	na
71.761505	0.049942	80.000000	nontarget	11.000000	na
71.811447	0.050001	80.000000	nontarget	12.000000	na
71.861448	0.049999	80.000000	nontarget	13.000000	na
71.911448	0.050003	80.000000	nontarget	14.000000	71.917863
71.961451	0.049999	80.000000	nontarget	15.000000	na
72.011450	0.049996	80.000000	nontarget	16.000000	na
72.061446	0.049987	81.000000	nontarget	1.000000	na
72.111433	0.050006	81.000000	nontarget	2.000000	na
72.161439	0.049993	81.000000	nontarget	3.000000	na
72.211431	0.049989	81.000000	nontarget	4.000000	na
72.261420	0.049997	81.000000	nontarget	5.000000	na
72.311417	0.050001	81.000000	nontarget	6.000000	na
72.361418	0.049994	81.000000	nontarget	7.000000	na
72.411412	0.049999	81.000000	nontarget	8.000000	na
72.461411	0.049998	81.000000	nontarget	9.000000	na
72.511409	0.049983	81.000000	nontarget	10.000000	na
72.561392	0.049999	81.000000	nontarget	11.000000	na
72.611391	0.049996	81.000000	nontarget	12.000000	na
72.661386	0.050018	81.000000	nontarget	13.000000	na
72.711404	0.049981	81.000000	nontarget	14.000000	na
72.761386	0.049997	81.000000	nontarget	15.000000	72.793608
72.811383	0.049995	81.000000	nontarget	16.000000	na
72.861378	0.049996	82.000000	nontarget	1.000000	72.862057
72.911374	0.049997	82.000000	nontarget	2.000000	na
72.961371	0.049998	82.000000	nontarget	3.000000	na
73.011369	0.049995	82.000000	nontarget	4.000000	na
73.061364	0.049997	82.000000	nontarget	5.000000	na
73.111361	0.049996	82.000000	nontarget	6.000000	na
73.161357	0.049997	82.000000	nontarget	7.000000	na
73.211354	0.049995	82.000000	nontarget	8.000000	na
73.261349	0.049996	82.000000	nontarget	9.000000	na
73.311345	0.049997	82.000000	nontarget	10.000000	na
73.361342	0.049997	82.000000	nontarget	11.000000	na
73.411339	0.049997	82.000000	nontarget	12.000000	na
73.461336	0.049997	82.000000	nontarget	13.000000	na
73.511333	0.049995	82.000000	nontarget	14.000000	na
73.561328	0.049999	82.000000	nontarget	15.000000	na
73.611327	0.049996	82.000000	nontarget	16.000000	na
73.661323	0.049999	83.000000	nontarget	1.000000	na
73.711322	0.049993	83.000000	nontarget	2.000000	na
73.761314	0.049999	83.000000	nontarget	3.000000	na
73.811314	0.049996	83.000000	nontarget	4.000000	na
73.861309	0.049996	83.000000	nontarget	5.000000	73.872821
73.911305	0.049997	83.000000	nontarget	6.000000	na
73.961302	0.049998	83.000000	nontarget	7.000000	na
74.011300	0.049997	83.000000	nontarget	8.000000	na
74.061297	0.049995	83.000000	nontarget	9.000000	na
74.111292	0.049995	83.000000	nontarget	10.000000	na
74.161288	0.049998	83.000000	nontarget	11.000000	na
74.211285	0.049995	83.000000	nontarget	12.000000	na
74.261280	0.049997	83.000000	nontarget	13.000000	na
74.311277	0.049997	83.000000	nontarget	14.000000	na
74.361274	0.049995	83.000000	nontarget	15.000000	na
74.411270	0.049997	83.000000	nontarget	16.000000	na
74.461267	0.049997	84.000000	nontarget	1.000000	74.461970
74.511264	0.049996	84.000000	nontarget	2.000000	na
74.561260	0.049998	84.000000	nontarget	3.000000	na
74.611258	0.049995	84.000000	nontarget	4.000000	na
74.661253	0.049995	84.000000	nontarget	5.000000	na
74.711248	0.049997	84.000000	nontarget	6.000000	na
74.761246	0.049995	84.000000	nontarget	7.000000	na
74.811241	0.049998	84.000000	nontarget	8.000000	na
74.861239	0.049996	84.000000	nontarget	9.000000	na
74.911235	0.049997	84.000000	nontarget	10.000000	na
74.961232	0.049997	84.000000	nontarget	11.000000	na
75.011229	0.049996	84.000000	nontarget	12.000000	na
75.061225	0.049996	84.000000	nontarget	13.000000	na
75.111221	0.049997	84.000000	nontarget	14.000000	na
75.161217	0.049997	84.000000	nontarget	15.000000	na
75.211214	0.049996	84.000000	nontarget	16.000000	na
75.261211	0.049996	85.000000	nontarget	1.000000	na
75.311207	0.049999	85.000000	nontarget	2.000000	75.311921
75.361206	0.049994	85.000000	nontarget	3.000000	na
75.411200	0.049997	85.000000	nontarget	4.000000	na
75.461197	0.049996	85.000000	nontarget	5.000000	na
75.511193	0.049997	85.000000	nontarget	6.000000	na
75.561190	0.049996	85.000000	nontarget	7.000000	na
75.611186	0.049997	85.000000	nontarget	8.000000	na
75.661183	0.050004	85.000000	nontarget	9.000000	na
75.711187	0.049988	85.000000	nontarget	10.000000	na
75.761175	0.049996	85.000000	nontarget	11.000000	na
75.811171	0.049997	85.000000	nontarget	12.000000	na
75.861168	0.049997	85.000000	nontarget	13.000000	na
75.911166	0.049996	85.000000	nontarget	14.000000	na
75.961161	0.049998	85.000000	nontarget	15.000000	na
76.011159	0.049995	85.000000	nontarget	16.000000	na
76.061154	0.049996	86.000000	target	1.000000	na
76.111151	0.049997	86.000000	target	2.000000	na
76.161148	0.049996	86.000000	target	3.000000	na
76.211144	0.049995	86.000000	target	4.000000	na
76.261140	0.049997	86.000000	target	5.000000	na
76.311137	0.049997	86.000000	target	6.000000	na
76.361134	0.049996	86.000000	target	7.000000	na
76.411130	0.049997	86.000000	target	8.000000	na
76.461127	0.049996	86.000000	target	9.000000	na
76.511124	0.049996	86.000000	target	10.000000	na
76.561120	0.049996	86.000000	target	11.000000	na
76.611116	0.049996	86.000000	target	12.000000	na
76.661113	0.049996	86.000000	target	13.000000	na
76.711108	0.049996	86.000000	target	14.000000	na
76.761104	0.049998	86.000000	target	15.000000	na
76.811102	0.049999	86.000000	target	16.000000	na
76.861101	0.049995	87.000000	nontarget	1.000000	na
76.911096	0.049996	87.000000	nontarget	2.000000	na
76.961091	0.049998	87.000000	nontarget	3.000000	76.984415
77.011089	0.049997	87.000000	nontarget	4.000000	na
77.061086	0.049995	87.000000	nontarget	5.000000	na
77.111081	0.049997	87.000000	nontarget	6.000000	na
77.161078	0.049997	87.000000	nontarget	7.000000	na
77.211076	0.049996	87.000000	nontarget	8.000000	na
77.261071	0.049995	87.000000	nontarget	9.000000	na
77.311067	0.049999	87.000000	nontarget	10.000000	na
77.361065	0.049996	87.000000	nontarget	11.000000	na
77.411061	0.049997	87.000000	nontarget	12.000000	na
77.461058	0.049995	87.000000	nontarget	13.000000	na
77.511053	0.049997	87.000000	nontarget	14.000000	na
77.561050	0.049998	87.000000	nontarget	15.000000	na
77.611048	0.049995	87.000000	nontarget	16.000000	na
77.661043	0.049999	88.000000	nontarget	1.000000	na
77.711042	0.049994	88.000000	nontarget	2.000000	na
77.761036	0.049998	88.000000	nontarget	3.000000	77.790733
77.811034	0.049995	88.000000	nontarget	4.000000	na
77.861029	0.049997	88.000000	nontarget	5.000000	na
77.911026	0.049997	88.000000	nontarget	6.000000	na
77.961023	0.049997	88.000000	nontarget	7.000000	na
78.011021	0.049996	88.000000	nontarget	8.000000	na
78.061016	0.049997	88.000000	nontarget	9.000000	na
78.111014	0.049994	88.000000	nontarget	10.000000	na
78.161008	0.049996	88.000000	nontarget	11.000000	na
78.211003	0.049998	88.000000	nontarget	12.000000	na
78.261001	0.049995	88.000000	nontarget	13.000000	na
78.310996	0.049999	88.000000	nontarget	14.000000	na
78.360995	0.049996	88.000000	nontarget	15.000000	na
78.410991	0.049996	88.000000	nontarget	16.000000	na
78.460987	0.049997	89.000000	nontarget	1.000000	na
78.510984	0.049995	89.000000	nontarget	2.000000	78.514591
78.560979	0.049998	89.000000	nontarget	3.000000	na
78.610977	0.049999	89.000000	nontarget	4.000000	na
78.660976	0.049997	89.000000	nontarget	5.000000	na
78.710973	0.049994	89.000000	nontarget	6.000000	na
78.760967	0.049995	89.000000	nontarget	7.000000	na
78.810962	0.049999	89.000000	nontarget	8.000000	na
78.860961	0.049993	89.000000	nontarget	9.000000	na
78.910954	0.049997	89.000000	nontarget	10.000000	na
78.960951	0.049999	89.000000	nontarget	11.000000	na
79.010951	0.049994	89.000000	nontarget	12.000000	na
79.060945	0.049996	89.000000	nontarget	13.000000	na
79.110941	0.049996	89.000000	nontarget	14.000000	na
79.160937	0.049999	89.000000	nontarget	15.000000	na
79.210937	0.049993	89.000000	nontarget	16.000000	79.211649
79.260929	0.049998	90.000000	nontarget	1.000000	79.261613
79.310927	0.049997	90.000000	nontarget	2.000000	na
79.360924	0.049996	90.000000	nontarget	3.000000	na
79.410920	0.049996	90.000000	nontarget	4.000000	na
79.460915	0.049998	90.000000	nontarget	5.000000	na
79.510913	0.049996	90.000000	nontarget	6.000000	na
79.560910	0.049997	90.000000	nontarget	7.000000	na
79.610907	0.049994	90.000000	nontarget	8.000000	na
79.660901	0.049998	90.000000	nontarget	9.000000	na
79.710900	0.049996	90.000000	nontarget	10.000000	na
79.760895	0.049996	90.000000	nontarget	11.000000	na
79.810891	0.049997	90.000000	nontarget	12.000000	na
79.860888	0.049997	90.000000	nontarget	13.000000	na
79.910885	0.049996	90.000000	nontarget	14.000000	na
79.960882	0.049999	90.000000	nontarget	15.000000	na
80.010881	0.049993	90.000000	nontarget	16.000000	na
80.060874	0.049997	91.000000	nontarget	1.000000	80.069539
80.110871	0.049997	91.000000	nontarget	2.000000	na
80.160868	0.049997	91.000000	nontarget	3.000000	na
80.210865	0.049996	91.000000	nontarget	4.000000	na
80.260861	0.049997	91.000000	nontarget	5.000000	na
80.310858	0.049994	91.000000	nontarget	6.000000	na
80.360852	0.049997	91.000000	nontarget	7.000000	na
80.410850	0.049999	91.000000	nontarget	8.000000	na
80.460849	0.049995	91.000000	nontarget	9.000000	na
80.510843	0.049996	91.000000	nontarget	10.000000	na
80.560840	0.049997	91.000000	nontarget	11.000000	na
80.610837	0.049996	91.000000	nontarget	12.000000	na
80.660834	0.049996	91.000000	nontarget	13.000000	na
80.710830	0.049996	91.000000	nontarget	14.000000	na
80.760826	0.049996	91.000000	nontarget	15.000000	na
80.810822	0.049996	91.000000	nontarget	16.000000	na
80.860818	0.050007	92.000000	target	1.000000	na
80.910825	0.049990	92.000000	target	2.000000	na
80.960815	0.050003	92.000000	target	3.000000	na
81.010818	0.049997	92.000000	target	4.000000	na
81.060815	0.049988	92.000000	target	5.000000	na
81.110803	0.049995	92.000000	target	6.000000	na
81.160798	0.050017	92.000000	target	7.000000	na
81.210815	0.049990	92.000000	target	8.000000	na
81.260805	0.049978	92.000000	target	9.000000	na
81.310782	0.050003	92.000000	target	10.000000	na
81.360786	0.049998	92.000000	target	11.000000	na
81.410783	0.050001	92.000000	target	12.000000	na
81.460784	0.050001	92.000000	target	13.000000	na
81.510785	0.049996	92.000000	target	14.000000	na
81.560781	0.049996	92.000000	target	15.000000	na
81.610777	0.049997	92.000000	target	16.000000	81.613644
81.660774	0.049993	93.000000	nontarget	1.000000	81.661463
81.710766	0.049991	93.000000	nontarget	2.000000	na
81.760758	0.049995	93.000000	nontarget	3.000000	na
81.810752	0.049996	93.000000	nontarget	4.000000	na
81.860748	0.049996	93.000000	nontarget	5.000000	na
81.910744	0.049998	93.000000	nontarget	6.000000	na
81.960742	0.050003	93.000000	nontarget	7.000000	na
82.010745	0.049985	93.000000	nontarget	8.000000	na
82.060730	0.049997	93.000000	nontarget	9.000000	na
82.110727	0.049995	93.000000	nontarget	10.000000	na
82.160722	0.050003	93.000000	nontarget	11.000000	na
82.210725	0.049997	93.000000	nontarget	12.000000	na
82.260722	0.049995	93.000000	nontarget	13.000000	na
82.310717	0.049997	93.000000	nontarget	14.000000	na
82.360714	0.049997	93.000000	nontarget	15.000000	na
82.410711	0.049996	93.000000	nontarget	16.000000	na
82.460708	0.049996	94.000000	nontarget	1.000000	82.486501
82.510704	0.049996	94.000000	nontarget	2.000000	na
82.560700	0.049998	94.000000	nontarget	3.000000	na
82.610698	0.049995	94.000000	nontarget	4.000000	na
82.660693	0.049997	94.000000	nontarget	5.000000	na
82.710690	0.049998	94.000000	nontarget	6.000000	na
82.760687	0.049996	94.000000	nontarget	7.000000	na
82.810683	0.049998	94.000000	nontarget	8.000000	na
82.860681	0.049995	94.000000	nontarget	9.000000	na
82.910676	0.049996	94.000000	nontarget	10.000000	na
82.960671	0.049999	94.000000	nontarget	11.000000	na
83.010670	0.049996	94.000000	nontarget	12.000000	na
83.060666	0.049996	94.000000	nontarget	13.000000	na
83.110663	0.049996	94.000000	nontarget	14.000000	na
83.160658	0.050001	94.000000	nontarget	15.000000	na
83.210660	0.049990	94.000000	nontarget	16.000000	83.241347
83.260650	0.049998	95.000000	nontarget	1.000000	83.261344
83.310648	0.049996	95.000000	nontarget	2.000000	na
83.360644	0.049996	95.000000	nontarget	3.000000	na
83.410641	0.049997	95.000000	nontarget	4.000000	na
83.460638	0.049997	95.000000	nontarget	5.000000	na
83.510634	0.049995	95.000000	nontarget	6.000000	na
83.560629	0.049998	95.000000	nontarget	7.000000	na
83.610628	0.049995	95.000000	nontarget	8.000000	na
83.660623	0.050001	95.000000	nontarget	9.000000	na
83.710623	0.049995	95.000000	nontarget	10.000000	na
83.760618	0.049994	95.000000	nontarget	11.000000	na
83.810612	0.049999	95.000000	nontarget	12.000000	na
83.860611	0.049995	95.000000	nontarget	13.000000	na
83.910606	0.049998	95.000000	nontarget	14.000000	na
83.960603	0.049997	95.000000	nontarget	15.000000	na
84.010601	0.049996	95.000000	nontarget	16.000000	na
84.060596	0.049997	96.000000	nontarget	1.000000	84.090364
84.110594	0.049995	96.000000	nontarget	2.000000	na
84.160589	0.049998	96.000000	nontarget	3.000000	na
84.210587	0.049996	96.000000	nontarget	4.000000	na
84.260582	0.049996	96.000000	nontarget	5.000000	na
84.310578	0.049998	96.000000	nontarget	6.000000	na
84.360576	0.049995	96.000000	nontarget	7.000000	na
84.410571	0.049996	96.000000	nontarget	8.000000	na
84.460567	0.049997	96.000000	nontarget	9.000000	na
84.510564	0.049996	96.000000	nontarget	10.000000	na
84.560561	0.049998	96.000000	nontarget	11.000000	na
84.610559	0.049995	96.000000	nontarget	12.000000	na
84.660554	0.050002	96.000000	nontarget	13.000000	na
84.710556	0.049992	96.000000	nontarget	14.000000	na
84.760548	0.049994	96.000000	nontarget	15.000000	na
84.810542	0.049999	96.000000	nontarget	16.000000	na
84.860541	0.049996	97.000000	nontarget	1.000000	na
84.910536	0.049996	97.000000	nontarget	2.000000	na
84.960532	0.049999	97.000000	nontarget	3.000000	na
85.010531	0.049995	97.000000	nontarget	4.000000	na
85.060526	0.049997	97.000000	nontarget	5.000000	na
85.110523	0.049996	97.000000	nontarget	6.000000	85.112560
85.160520	0.049996	97.000000	nontarget	7.000000	na
85.210516	0.049996	97.000000	nontarget	8.000000	na
85.260512	0.049994	97.000000	nontarget	9.000000	na
85.310506	0.049997	97.000000	nontarget	10.000000	na
85.360504	0.049998	97.000000	nontarget	11.000000	na
85.410502	0.049996	97.000000	nontarget	12.000000	na
85.460498	0.049995	97.000000	nontarget	13.000000	na
85.510494	0.049995	97.000000	nontarget	14.000000	na
85.560488	0.050000	97.000000	nontarget	15.000000	na
85.610488	0.049993	97.000000	nontarget	16.000000	na
85.660482	0.050007	98.000000	nontarget	1.000000	na
85.710489	0.049989	98.000000	nontarget	2.000000	na
85.760477	0.049995	98.000000	nontarget	3.000000	na
85.810472	0.049996	98.000000	nontarget	4.000000	na
85.860469	0.049996	98.000000	nontarget	5.000000	na
85.910465	0.049999	98.000000	nontarget	6.000000	na
85.960464	0.049996	98.000000	nontarget	7.000000	85.961170
86.010461	0.049996	98.000000	nontarget	8.000000	na
86.060456	0.049995	98.000000	nontarget	9.000000	na
86.110451	0.049996	98.000000	nontarget	10.000000	na
86.160448	0.049998	98.000000	nontarget	11.000000	na
86.210445	0.049996	98.000000	nontarget	12.000000	na
86.260441	0.049997	98.000000	nontarget	13.000000	na
86.310438	0.049996	98.000000	nontarget	14.000000	na
86.360434	0.049999	98.000000	nontarget	15.000000	na
86.410432	0.049993	98.000000	nontarget	16.000000	na
86.460426	0.049998	99.000000	nontarget	1.000000	na
86.510424	0.049996	99.000000	nontarget	2.000000	na
86.560421	0.049997	99.000000	nontarget	3.000000	na
86.610417	0.049996	99.000000	nontarget	4.000000	na
86.660413	0.049997	99.000000	nontarget	5.000000	na
86.710410	0.049996	99.000000	nontarget	6.000000	na
86.760406	0.049997	99.000000	nontarget	7.000000	na
86.810403	0.049997	99.000000	nontarget	8.000000	86.823422
86.860400	0.049996	99.000000	nontarget	9.000000	na
86.910396	0.049996	99.000000	nontarget	10.000000	na
86.960393	0.049999	99.000000	nontarget	11.000000	na
87.010391	0.049994	99.000000	nontarget	12.000000	na
87.060386	0.049999	99.000000	nontarget	13.000000	na
87.110384	0.049993	99.000000	nontarget	14.000000	na
87.160378	0.049998	99.000000	nontarget	15.000000	na
87.210376	0.049994	99.000000	nontarget	16.000000	na
87.260370	0.049998	100.000000	nontarget	1.000000	na
87.310368	0.049997	100.000000	nontarget	2.000000	na
87.360366	0.049996	100.000000	nontarget	3.000000	na
87.410362	0.049995	100.000000	nontarget	4.000000	na
87.460357	0.049998	100.000000	nontarget	5.000000	na
87.510354	0.049997	100.000000	nontarget	6.000000	na
87.560351	0.049997	100.000000	nontarget	7.000000	na
87.610348	0.049996	100.000000	nontarget	8.000000	na
87.660344	0.049996	100.000000	nontarget	9.000000	na
87.710340	0.049997	100.000000	nontarget	10.000000	na
87.760337	0.049996	100.000000	nontarget	11.000000	na
87.810333	0.049997	100.000000	nontarget	12.000000	87.842375
87.860330	0.049996	100.000000	nontarget	13.000000	na
87.910325	0.049998	100.000000	nontarget	14.000000	na
87.960323	0.049997	100.000000	nontarget	15.000000	na
88.010320	0.049996	100.000000	nontarget	16.000000	na
88.060316	0.049997	101.000000	nontarget	1.000000	na
88.110313	0.049995	101.000000	nontarget	2.000000	na
88.160307	0.049998	101.000000	nontarget	3.000000	na
88.210305	0.049996	101.000000	nontarget	4.000000	na
88.260301	0.049996	101.000000	nontarget	5.000000	na
88.310298	0.049997	101.000000	nontarget	6.000000	na
88.360295	0.049999	101.000000	nontarget	7.000000	na
88.410293	0.049994	101.000000	nontarget	8.000000	na
88.460287	0.049996	101.000000	nontarget	9.000000	na
88.510283	0.049998	101.000000	nontarget	10.000000	na
88.560281	0.049995	101.000000	nontarget	11.000000	na
88.610276	0.049997	101.000000	nontarget	12.000000	na
88.660273	0.049998	101.000000	nontarget	13.000000	na
88.710271	0.049995	101.000000	nontarget	14.000000	na
88.760266	0.049996	101.000000	nontarget	15.000000	88.761317
88.810263	0.049998	101.000000	nontarget	16.000000	na
88.860260	0.049998	102.000000	nontarget	1.000000	88.860938
88.910258	0.049995	102.000000	nontarget	2.000000	na
88.960253	0.049998	102.000000	nontarget	3.000000	na
89.010251	0.049996	102.000000	nontarget	4.000000	na
89.060246	0.049996	102.000000	nontarget	5.000000	na
89.110243	0.049996	102.000000	nontarget	6.000000	na
89.160239	0.049998	102.000000	nontarget	7.000000	na
89.210237	0.049994	102.000000	nontarget	8.000000	na
89.260231	0.049997	102.000000	nontarget	9.000000	na
89.310228	0.049999	102.000000	nontarget	10.000000	na
89.360227	0.049995	102.000000	nontarget	11.000000	na
89.410221	0.049996	102.000000	nontarget	12.000000	na
89.460218	0.049997	102.000000	nontarget	13.000000	na
89.510215	0.049996	102.000000	nontarget	14.000000	na
89.560211	0.049996	102.000000	nontarget	15.000000	na
89.610207	0.049996	102.000000	nontarget	16.000000	na
89.660203	0.049998	103.000000	nontarget	1.000000	na
89.710200	0.049996	103.000000	nontarget	2.000000	na
89.760196	0.049997	103.000000	nontarget	3.000000	89.760885
89.810193	0.049997	103.000000	nontarget	4.000000	na
89.860190	0.049997	103.000000	nontarget	5.000000	na
89.910187	0.049997	103.000000	nontarget	6.000000	na
89.960184	0.049997	103.000000	nontarget	7.000000	na
90.010181	0.049996	103.000000	nontarget	8.000000	na
90.060177	0.049997	103.000000	nontarget	9.000000	na
90.110173	0.049995	103.000000	nontarget	10.000000	na
90.160168	0.050002	103.000000	nontarget	11.000000	na
90.210171	0.049992	103.000000	nontarget	12.000000	na
90.260163	0.050045	103.000000	nontarget	13.000000	na
90.310208	0.049948	103.000000	nontarget	14.000000	na
90.360156	0.050006	103.000000	nontarget	15.000000	na
90.410162	0.049986	103.000000	nontarget	16.000000	na
90.460148	0.050013	104.000000	nontarget	1.000000	na
90.510162	0.049980	104.000000	nontarget	2.000000	90.511234
90.560142	0.050041	104.000000	nontarget	3.000000	na
90.610184	0.049951	104.000000	nontarget	4.000000	na
90.660135	0.050017	104.000000	nontarget	5.000000	na
90.710152	0.050001	104.000000	nontarget	6.000000	na
90.760152	0.049988	104.000000	nontarget	7.000000	na
90.810140	0.049983	104.000000	nontarget	8.000000	na
90.860123	0.049984	104.000000	nontarget	9.000000	na
90.910107	0.050015	104.000000	nontarget	10.000000	na
90.960122	0.050003	104.000000	nontarget	11.000000	na
91.010125	0.049993	104.000000	nontarget	12.000000	na
91.060118	0.049987	104.000000	nontarget	13.000000	na
91.110105	0.049994	104.000000	nontarget	14.000000	na
91.160100	0.050003	104.000000	nontarget	15.000000	na
91.210103	0.049989	104.000000	nontarget	16.000000	na
91.260092	0.049997	105.000000	nontarget	1.000000	91.266461
91.310089	0.049996	105.000000	nontarget	2.000000	na
91.360086	0.050007	105.000000	nontarget	3.000000	na
91.410092	0.049991	105.000000	nontarget	4.000000	na
91.460083	0.049997	105.000000	nontarget	5.000000	na
91.510080	0.049987	105.000000	nontarget	6.000000	na
91.560067	0.049997	105.000000	nontarget	7.000000	na
91.610064	0.049994	105.000000	nontarget	8.000000	na
91.660058	0.050006	105.000000	nontarget	9.000000	na
91.710064	0.049994	105.000000	nontarget	10.000000	na
91.760057	0.049996	105.000000	nontarget	11.000000	na
91.810054	0.049992	105.000000	nontarget	12.000000	na
91.860046	0.050003	105.000000	nontarget	13.000000	na
91.910049	0.049995	105.000000	nontarget	14.000000	91.910764
91.960043	0.049999	105.000000	nontarget	15.000000	na
92.010042	0.049994	105.000000	nontarget	16.000000	na
92.060036	0.049997	106.000000	nontarget	1.000000	na
92.110033	0.049996	106.000000	nontarget	2.000000	na
92.160029	0.049996	106.000000	nontarget	3.000000	na
92.210025	0.049998	106.000000	nontarget	4.000000	na
92.260023	0.049996	106.000000	nontarget	5.000000	na
92.310019	0.049996	106.000000	nontarget	6.000000	na
92.360015	0.049996	106.000000	nontarget	7.000000	na
92.410010	0.049998	106.000000	nontarget	8.000000	na
92.460009	0.049997	106.000000	nontarget	9.000000	na
92.510005	0.049996	106.000000	nontarget	10.000000	na
92.560001	0.049997	106.000000	nontarget	11.000000	na
92.609998	0.049997	106.000000	nontarget	12.000000	na
92.659994	0.049997	106.000000	nontarget	13.000000	92.682229
92.709992	0.050003	106.000000	nontarget	14.000000	na
92.759995	0.049990	106.000000	nontarget	15.000000	na
92.809985	0.049996	106.000000	nontarget	16.000000	na
92.859981	0.049996	107.000000	nontarget	1.000000	na
92.909977	0.049996	107.000000	nontarget	2.000000	na
92.959973	0.050000	107.000000	nontarget	3.000000	na
93.009973	0.049994	107.000000	nontarget	4.000000	na
93.059967	0.049997	107.000000	nontarget	5.000000	na
93.109964	0.049996	107.000000	nontarget	6.000000	na
93.159960	0.049998	107.000000	nontarget	7.000000	na
93.209958	0.049995	107.000000	nontarget	8.000000	na
93.259953	0.049996	107.000000	nontarget	9.000000	na
93.309949	0.049998	107.000000	nontarget	10.000000	na
93.359947	0.049997	107.000000	nontarget	11.000000	na
93.409944	0.049995	107.000000	nontarget	12.000000	na
93.459938	0.050000	107.000000	nontarget	13.000000	na
93.509938	0.049993	107.000000	nontarget	14.000000	93.510647
93.559932	0.049999	107.000000	nontarget	15.000000	na
93.609930	0.049994	107.000000	nontarget	16.000000	na
93.659924	0.050002	108.000000	nontarget	1.000000	na
93.709926	0.049992	108.000000	nontarget	2.000000	na
93.759918	0.049996	108.000000	nontarget	3.000000	na
93.809914	0.049995	108.000000	nontarget	4.000000	na
93.859909	0.049996	108.000000	nontarget	5.000000	na
93.909906	0.049997	108.000000	nontarget	6.000000	na
93.959903	0.050001	108.000000	nontarget	7.000000	na
94.009904	0.049992	108.000000	nontarget	8.000000	na
94.059895	0.049997	108.000000	nontarget	9.000000	na
94.109892	0.049997	108.000000	nontarget	10.000000	na
94.159889	0.049997	108.000000	nontarget	11.000000	na
94.209886	0.049996	108.000000	nontarget	12.000000	na
94.259882	0.049996	108.000000	nontarget	13.000000	na
94.309879	0.049996	108.000000	nontarget	14.000000	na
94.359875	0.049996	108.000000	nontarget	15.000000	na
94.409870	0.049999	108.000000	nontarget	16.000000	na
94.459870	0.049995	109.000000	target	1.000000	na
94.509865	0.049996	109.000000	target	2.000000	na
94.559861	0.049997	109.000000	target	3.000000	na
94.609859	0.049994	109.000000	target	4.000000	na
94.659853	0.049999	109.000000	target	5.000000	na
94.709851	0.049996	109.000000	target	6.000000	na
94.759847	0.049996	109.000000	target	7.000000	na
94.809843	0.049999	109.000000	target	8.000000	na
94.859842	0.049994	109.000000	target	9.000000	na
94.909836	0.049997	109.000000	target	10.000000	na
94.959833	0.050000	109.000000	target	11.000000	na
95.009833	0.049993	109.000000	target	12.000000	na
95.059826	0.049997	109.000000	target	13.000000	na
95.109824	0.049996	109.000000	target	14.000000	na
95.159819	0.049998	109.000000	target	15.000000	95.160518
95.209817	0.049994	109.000000	target	16.000000	na
95.259812	0.049996	110.000000	nontarget	1.000000	95.260518
95.309808	0.049997	110.000000	nontarget	2.000000	na
95.359805	0.049996	110.000000	nontarget	3.000000	na
95.409801	0.049997	110.000000	nontarget	4.000000	na
95.459798	0.049997	110.000000	nontarget	5.000000	na
95.509795	0.049996	110.000000	nontarget	6.000000	na
95.559791	0.049996	110.000000	nontarget	7.000000	na
95.609787	0.049997	110.000000	nontarget	8.000000	na
95.659784	0.050009	110.000000	nontarget	9.000000	na
95.709793	0.049982	110.000000	nontarget	10.000000	na
95.759775	0.049999	110.000000	nontarget	11.000000	na
95.809774	0.049996	110.000000	nontarget	12.000000	na
95.859771	0.049996	110.000000	nontarget	13.000000	na
95.909766	0.049997	110.000000	nontarget	14.000000	na
95.959763	0.049999	110.000000	nontarget	15.000000	na
96.009763	0.049993	110.000000	nontarget	16.000000	na
96.059756	0.049998	111.000000	nontarget	1.000000	na
96.109754	0.049996	111.000000	nontarget	2.000000	na
96.159750	0.050025	111.000000	nontarget	3.000000	96.186360
96.209775	0.049968	111.000000	nontarget	4.000000	na
96.259743	0.049995	111.000000	nontarget	5.000000	na
96.309738	0.049999	111.000000	nontarget	6.000000	na
96.359737	0.049995	111.000000	nontarget	7.000000	na
96.409732	0.049999	111.000000	nontarget	8.000000	na
96.459731	0.049994	111.000000	nontarget	9.000000	na
96.509725	0.049996	111.000000	nontarget	10.000000	na
96.559721	0.049996	111.000000	nontarget	11.000000	na
96.609717	0.049997	111.000000	nontarget	12.000000	na
96.659714	0.049999	111.000000	nontarget	13.000000	na
96.709714	0.049993	111.000000	nontarget	14.000000	na
96.759707	0.049998	111.000000	nontarget	15.000000	na
96.809706	0.049996	111.000000	nontarget	16.000000	na
96.859702	0.049994	112.000000	nontarget	1.000000	na
96.909696	0.049997	112.000000	nontarget	2.000000	na
96.959693	0.049999	112.000000	nontarget	3.000000	na
97.009692	0.049995	112.000000	nontarget	4.000000	97.040177
97.059688	0.049996	112.000000	nontarget	5.000000	na
97.109683	0.049995	112.000000	nontarget	6.000000	na
97.159678	0.050009	112.000000	nontarget	7.000000	na
97.209688	0.049984	112.000000	nontarget	8.000000	na
97.259672	0.050001	112.000000	nontarget	9.000000	na
97.309673	0.049992	112.000000	nontarget	10.000000	na
97.359665	0.049998	112.000000	nontarget	11.000000	na
97.409662	0.049996	112.000000	nontarget	12.000000	na
97.459658	0.049998	112.000000	nontarget	13.000000	na
97.509656	0.049996	112.000000	nontarget	14.000000	na
97.559652	0.049996	112.000000	nontarget	15.000000	na
97.609648	0.049997	112.000000	nontarget	16.000000	na
97.659646	0.050009	113.000000	nontarget	1.000000	97.660335
97.709655	0.049986	113.000000	nontarget	2.000000	na
97.759641	0.049993	113.000000	nontarget	3.000000	na
97.809634	0.049996	113.000000	nontarget	4.000000	na
97.859630	0.049998	113.000000	nontarget	5.000000	na
97.909628	0.049996	113.000000	nontarget	6.000000	na
97.959623	0.050000	113.000000	nontarget	7.000000	na
98.009623	0.049995	113.000000	nontarget	8.000000	na
98.059618	0.049996	113.000000	nontarget	9.000000	na
98.109614	0.049997	113.000000	nontarget	10.000000	na
98.159611	0.049996	113.000000	nontarget	11.000000	na
98.209607	0.049992	113.000000	nontarget	12.000000	na
98.259599	0.050000	113.000000	nontarget	13.000000	na
98.309599	0.049996	113.000000	nontarget	14.000000	na
98.359595	0.049996	113.000000	nontarget	15.000000	na
98.409591	0.049999	113.000000	nontarget	16.000000	na
98.459590	0.049994	114.000000	nontarget	1.000000	98.478275
98.509584	0.049999	114.000000	nontarget	2.000000	na
98.559583	0.049997	114.000000	nontarget	3.000000	na
98.609579	0.049995	114.000000	nontarget	4.000000	na
98.659574	0.050002	114.000000	nontarget	5.000000	na
98.709576	0.049992	114.000000	nontarget	6.000000	na
98.759567	0.049997	114.000000	nontarget	7.000000	na
98.809565	0.049996	114.000000	nontarget	8.000000	na
98.859561	0.049997	114.000000	nontarget	9.000000	na
98.909558	0.049996	114.000000	nontarget	10.000000	na
98.959553	0.050000	114.000000	nontarget	11.000000	na
99.009554	0.049994	114.000000	nontarget	12.000000	na
99.059548	0.049998	114.000000	nontarget	13.000000	na
99.109545	0.049994	114.000000	nontarget	14.000000	na
99.159539	0.049998	114.000000	nontarget	15.000000	na
99.209537	0.049997	114.000000	nontarget	16.000000	99.241033
99.259534	0.049995	115.000000	nontarget	1.000000	99.260224
99.309529	0.049997	115.000000	nontarget	2.000000	na
99.359526	0.049998	115.000000	nontarget	3.000000	na
99.409524	0.049996	115.000000	nontarget	4.000000	na
99.459520	0.050006	115.000000	nontarget	5.000000	na
99.509526	0.049997	115.000000	nontarget	6.000000	na
99.559523	0.050001	115.000000	nontarget	7.000000	na
99.609523	0.050001	115.000000	nontarget	8.000000	na
99.659524	0.050018	115.000000	nontarget	9.000000	na
99.709542	0.049988	115.000000	nontarget	10.000000	na
99.759530	0.050002	115.000000	nontarget	11.000000	na
99.809532	0.050002	115.000000	nontarget	12.000000	na
99.859534	0.049978	115.000000	nontarget	13.000000	na
99.909512	0.050003	115.000000	nontarget	14.000000	na
99.959515	0.050002	115.000000	nontarget	15.000000	na
100.009517	0.050026	115.000000	nontarget	16.000000	na
100.059543	0.049958	116.000000	nontarget	1.000000	na
100.109501	0.050003	116.000000	nontarget	2.000000	na
100.159503	0.050001	116.000000	nontarget	3.000000	100.164967
100.209504	0.049984	116.000000	nontarget	4.000000	na
100.259488	0.049995	116.000000	nontarget	5.000000	na
100.309483	0.050006	116.000000	nontarget	6.000000	na
100.359489	0.049968	116.000000	nontarget	7.000000	na
100.409457	0.050002	116.000000	nontarget	8.000000	na
100.459459	0.049999	116.000000	nontarget	9.000000	na
100.509459	0.050007	116.000000	nontarget	10.000000	na
100.559465	0.049987	116.000000	nontarget	11.000000	na
100.609453	0.049995	116.000000	nontarget	12.000000	na
100.659448	0.049998	116.000000	nontarget	13.000000	na
100.709446	0.049986	116.000000	nontarget	14.000000	na
100.759431	0.049991	116.000000	nontarget	15.000000	na
100.809423	0.050004	116.000000	nontarget	16.000000	100.813128
100.859426	0.050000	117.000000	nontarget	1.000000	100.860150
100.909427	0.050002	117.000000	nontarget	2.000000	na
100.959429	0.049991	117.000000	nontarget	3.000000	na
101.009419	0.049994	117.000000	nontarget	4.000000	na
101.059414	0.049983	117.000000	nontarget	5.000000	na
101.109397	0.049997	117.000000	nontarget	6.000000	na
101.159394	0.050003	117.000000	nontarget	7.000000	na
101.209398	0.049995	117.000000	nontarget	8.000000	na
101.259393	0.049998	117.000000	nontarget	9.000000	na
101.309391	0.049995	117.000000	nontarget	10.000000	na
101.359385	0.049996	117.000000	nontarget	11.000000	na
101.409381	0.049999	117.000000	nontarget	12.000000	na
101.459380	0.049996	117.000000	nontarget	13.000000	na
101.509377	0.049997	117.000000	nontarget	14.000000	na
101.559374	0.049996	117.000000	nontarget	15.000000	na
101.609370	0.049998	117.000000	nontarget	16.000000	na
101.659368	0.049993	118.000000	nontarget	1.000000	101.660103
101.709361	0.049998	118.000000	nontarget	2.000000	na
101.759359	0.049999	118.000000	nontarget	3.000000	na
101.809358	0.049993	118.000000	nontarget	4.000000	na
101.859351	0.049996	118.000000	nontarget	5.000000	na
101.909347	0.049998	118.000000	nontarget	6.000000	na
101.959345	0.049998	118.000000	nontarget	7.000000	na
102.009343	0.049996	118.000000	nontarget	8.000000	na
102.059339	0.049995	118.000000	nontarget	9.000000	na
102.109334	0.049996	118.000000	nontarget	10.000000	na
102.159331	0.049996	118.000000	nontarget	11.000000	na
102.209327	0.049997	118.000000	nontarget	12.000000	na
102.259324	0.049995	118.000000	nontarget	13.000000	na
102.309319	0.050000	118.000000	nontarget	14.000000	na
102.359319	0.049994	118.000000	nontarget	15.000000	102.360059
102.409314	0.049995	118.000000	nontarget	16.000000	na
102.459309	0.049999	119.000000	nontarget	1.000000	102.460051
102.509307	0.049995	119.000000	nontarget	2.000000	na
102.559302	0.049997	119.000000	nontarget	3.000000	na
102.609300	0.049996	119.000000	nontarget	4.000000	na
102.659296	0.049996	119.000000	nontarget	5.000000	na
102.709292	0.049996	119.000000	nontarget	6.000000	na
102.759288	0.049998	119.000000	nontarget	7.000000	na
102.809286	0.049996	119.000000	nontarget	8.000000	na
102.859282	0.049995	119.000000	nontarget	9.000000	na
102.909277	0.049997	119.000000	nontarget	10.000000	na
102.959274	0.049999	119.000000	nontarget	11.000000	na
103.009274	0.049994	119.000000	nontarget	12.000000	na
103.059268	0.049998	119.000000	nontarget	13.000000	na
103.109266	0.049996	119.000000	nontarget	14.000000	103.115042
103.159262	0.049994	119.000000	nontarget	15.000000	na
103.209256	0.050000	119.000000	nontarget	16.000000	na
103.259257	0.049994	120.000000	nontarget	1.000000	na
103.309251	0.049998	120.000000	nontarget	2.000000	na
103.359249	0.049994	120.000000	nontarget	3.000000	na
103.409242	0.050002	120.000000	nontarget	4.000000	na
103.459244	0.049996	120.000000	nontarget	5.000000	na
103.509240	0.049993	120.000000	nontarget	6.000000	na
103.559233	0.049997	120.000000	nontarget	7.000000	na
103.609231	0.049995	120.000000	nontarget	8.000000	na
103.659225	0.049997	120.000000	nontarget	9.000000	na
103.709222	0.049997	120.000000	nontarget	10.000000	na
103.759219	0.049996	120.000000	nontarget	11.000000	na
103.809215	0.049996	120.000000	nontarget	12.000000	na
103.859211	0.049998	120.000000	nontarget	13.000000	na
103.909209	0.049996	120.000000	nontarget	14.000000	103.935117
103.959205	0.049998	120.000000	nontarget	15.000000	na
104.009203	0.049995	120.000000	nontarget	16.000000	na
104.059198	0.049996	121.000000	nontarget	1.000000	104.059929
104.109194	0.049997	121.000000	nontarget	2.000000	na
104.159191	0.049996	121.000000	nontarget	3.000000	na
104.209187	0.049997	121.000000	nontarget	4.000000	na
104.259184	0.049996	121.000000	nontarget	5.000000	na
104.309180	0.049998	121.000000	nontarget	6.000000	na
104.359178	0.049995	121.000000	nontarget	7.000000	na
104.409173	0.049997	121.000000	nontarget	8.000000	na
