onset	duration	trial_number	trial_type	frame_number	time_of_response
8.066030	0.049904	1.000000	nontarget	1.000000	na
8.115934	0.049994	1.000000	nontarget	2.000000	na
8.165928	0.049996	1.000000	nontarget	3.000000	na
8.215924	0.049999	1.000000	nontarget	4.000000	na
8.265923	0.049996	1.000000	nontarget	5.000000	na
8.315920	0.049994	1.000000	nontarget	6.000000	na
8.365914	0.049998	1.000000	nontarget	7.000000	na
8.415912	0.049996	1.000000	nontarget	8.000000	na
8.465908	0.050014	1.000000	nontarget	9.000000	na
8.515922	0.049980	1.000000	nontarget	10.000000	na
8.565902	0.049998	1.000000	nontarget	11.000000	na
8.615899	0.049996	1.000000	nontarget	12.000000	na
8.665895	0.049997	1.000000	nontarget	13.000000	na
8.715892	0.049998	1.000000	nontarget	14.000000	8.732850
8.765890	0.049997	1.000000	nontarget	15.000000	na
8.815886	0.049998	1.000000	nontarget	16.000000	na
8.865884	0.049996	2.000000	nontarget	1.000000	8.866757
8.915880	0.049998	2.000000	nontarget	2.000000	na
8.965878	0.049999	2.000000	nontarget	3.000000	na
9.015876	0.049993	2.000000	nontarget	4.000000	na
9.065869	0.050000	2.000000	nontarget	5.000000	na
9.115868	0.049994	2.000000	nontarget	6.000000	na
9.165862	0.049998	2.000000	nontarget	7.000000	na
9.215861	0.049997	2.000000	nontarget	8.000000	na
9.265858	0.049996	2.000000	nontarget	9.000000	na
9.315854	0.049997	2.000000	nontarget	10.000000	na
9.365850	0.049997	2.000000	nontarget	11.000000	na
9.415848	0.049996	2.000000	nontarget	12.000000	9.439790
9.465843	0.049997	2.000000	nontarget	13.000000	na
9.515840	0.049996	2.000000	nontarget	14.000000	na
9.565837	0.050001	2.000000	nontarget	15.000000	na
9.615838	0.049994	2.000000	nontarget	16.000000	na
9.665832	0.049996	3.000000	nontarget	1.000000	na
9.715828	0.049997	3.000000	nontarget	2.000000	na
9.765825	0.049997	3.000000	nontarget	3.000000	na
9.815822	0.049997	3.000000	nontarget	4.000000	na
9.865819	0.049998	3.000000	nontarget	5.000000	na
9.915817	0.049996	3.000000	nontarget	6.000000	9.916494
9.965813	0.050001	3.000000	nontarget	7.000000	na
10.015815	0.049991	3.000000	nontarget	8.000000	na
10.065806	0.049998	3.000000	nontarget	9.000000	na
10.115803	0.049996	3.000000	nontarget	10.000000	na
10.165799	0.049998	3.000000	nontarget	11.000000	na
10.215797	0.049998	3.000000	nontarget	12.000000	na
10.265794	0.049996	3.000000	nontarget	13.000000	na
10.315790	0.049997	3.000000	nontarget	14.000000	na
10.365787	0.049997	3.000000	nontarget	15.000000	10.393861
10.415784	0.049996	3.000000	nontarget	16.000000	na
10.465780	0.049998	4.000000	nontarget	1.000000	10.466504
10.515778	0.049998	4.000000	nontarget	2.000000	na
10.565776	0.049996	4.000000	nontarget	3.000000	na
10.615772	0.049993	4.000000	nontarget	4.000000	na
10.665765	0.050000	4.000000	nontarget	5.000000	na
10.715766	0.049996	4.000000	nontarget	6.000000	na
10.765761	0.049995	4.000000	nontarget	7.000000	na
10.815756	0.049998	4.000000	nontarget	8.000000	na
10.865754	0.049995	4.000000	nontarget	9.000000	na
10.915750	0.049998	4.000000	nontarget	10.000000	10.940890
10.965748	0.050000	4.000000	nontarget	11.000000	na
11.015748	0.049992	4.000000	nontarget	12.000000	na
11.065740	0.049998	4.000000	nontarget	13.000000	na
11.115737	0.049997	4.000000	nontarget	14.000000	na
11.165734	0.049996	4.000000	nontarget	15.000000	na
11.215730	0.050007	4.000000	nontarget	16.000000	na
11.265737	0.049999	5.000000	nontarget	1.000000	na
11.315736	0.049985	5.000000	nontarget	2.000000	na
11.365721	0.050006	5.000000	nontarget	3.000000	na
11.415727	0.049987	5.000000	nontarget	4.000000	na
11.465714	0.050025	5.000000	nontarget	5.000000	na
11.515739	0.049969	5.000000	nontarget	6.000000	11.516424
11.565709	0.050014	5.000000	nontarget	7.000000	na
11.615723	0.049972	5.000000	nontarget	8.000000	na
11.665695	0.050022	5.000000	nontarget	9.000000	na
11.715717	0.049982	5.000000	nontarget	10.000000	na
11.765699	0.049996	5.000000	nontarget	11.000000	na
11.815695	0.049992	5.000000	nontarget	12.000000	na
11.865687	0.050010	5.000000	nontarget	13.000000	na
11.915697	0.049996	5.000000	nontarget	14.000000	na
11.965693	0.050001	5.000000	nontarget	15.000000	na
12.015694	0.049993	5.000000	nontarget	16.000000	na
12.065688	0.049994	6.000000	nontarget	1.000000	na
12.115682	0.049988	6.000000	nontarget	2.000000	na
12.165670	0.049999	6.000000	nontarget	3.000000	12.185872
12.215669	0.049995	6.000000	nontarget	4.000000	na
12.265663	0.049997	6.000000	nontarget	5.000000	na
12.315661	0.049998	6.000000	nontarget	6.000000	na
12.365658	0.049999	6.000000	nontarget	7.000000	na
12.415657	0.049987	6.000000	nontarget	8.000000	na
12.465644	0.049997	6.000000	nontarget	9.000000	na
12.515641	0.049997	6.000000	nontarget	10.000000	na
12.565638	0.050003	6.000000	nontarget	11.000000	na
12.615641	0.049998	6.000000	nontarget	12.000000	na
12.665639	0.049998	6.000000	nontarget	13.000000	na
12.715638	0.049995	6.000000	nontarget	14.000000	na
12.765632	0.049994	6.000000	nontarget	15.000000	12.779803
12.815626	0.049998	6.000000	nontarget	16.000000	na
12.865624	0.050018	7.000000	nontarget	1.000000	12.866309
12.915642	0.049975	7.000000	nontarget	2.000000	na
12.965618	0.049999	7.000000	nontarget	3.000000	na
13.015617	0.049996	7.000000	nontarget	4.000000	na
13.065612	0.049996	7.000000	nontarget	5.000000	na
13.115608	0.049997	7.000000	nontarget	6.000000	na
13.165605	0.049996	7.000000	nontarget	7.000000	na
13.215601	0.049998	7.000000	nontarget	8.000000	na
13.265599	0.049996	7.000000	nontarget	9.000000	na
13.315596	0.049997	7.000000	nontarget	10.000000	na
13.365593	0.049997	7.000000	nontarget	11.000000	na
13.415590	0.049997	7.000000	nontarget	12.000000	na
13.465586	0.049996	7.000000	nontarget	13.000000	na
13.515583	0.049997	7.000000	nontarget	14.000000	na
13.565580	0.049996	7.000000	nontarget	15.000000	na
13.615576	0.049998	7.000000	nontarget	16.000000	na
13.665573	0.049997	8.000000	target	1.000000	na
13.715570	0.049996	8.000000	target	2.000000	na
13.765566	0.049997	8.000000	target	3.000000	na
13.815563	0.049997	8.000000	target	4.000000	na
13.865560	0.049997	8.000000	target	5.000000	na
13.915557	0.049996	8.000000	target	6.000000	na
13.965553	0.050001	8.000000	target	7.000000	na
14.015554	0.049994	8.000000	target	8.000000	na
14.065548	0.049999	8.000000	target	9.000000	na
14.115546	0.049994	8.000000	target	10.000000	na
14.165540	0.049997	8.000000	target	11.000000	na
14.215537	0.049997	8.000000	target	12.000000	na
14.265534	0.049998	8.000000	target	13.000000	na
14.315532	0.049996	8.000000	target	14.000000	14.341847
14.365529	0.049995	8.000000	target	15.000000	na
14.415524	0.049997	8.000000	target	16.000000	na
14.465521	0.049996	9.000000	nontarget	1.000000	14.466220
14.515518	0.049998	9.000000	nontarget	2.000000	na
14.565516	0.049996	9.000000	nontarget	3.000000	na
14.615512	0.049997	9.000000	nontarget	4.000000	na
14.665509	0.049996	9.000000	nontarget	5.000000	na
14.715505	0.050002	9.000000	nontarget	6.000000	na
14.765506	0.049992	9.000000	nontarget	7.000000	na
14.815499	0.049998	9.000000	nontarget	8.000000	na
14.865496	0.049996	9.000000	nontarget	9.000000	na
14.915492	0.049997	9.000000	nontarget	10.000000	na
14.965489	0.050001	9.000000	nontarget	11.000000	na
15.015490	0.049992	9.000000	nontarget	12.000000	na
15.065482	0.049997	9.000000	nontarget	13.000000	15.090610
15.115479	0.049996	9.000000	nontarget	14.000000	na
15.165476	0.049998	9.000000	nontarget	15.000000	na
15.215474	0.049997	9.000000	nontarget	16.000000	na
15.265470	0.049995	10.000000	nontarget	1.000000	na
15.315465	0.049998	10.000000	nontarget	2.000000	na
15.365463	0.049996	10.000000	nontarget	3.000000	na
15.415459	0.049997	10.000000	nontarget	4.000000	na
15.465456	0.049998	10.000000	nontarget	5.000000	na
15.515454	0.049997	10.000000	nontarget	6.000000	na
15.565451	0.049996	10.000000	nontarget	7.000000	na
15.615447	0.049997	10.000000	nontarget	8.000000	na
15.665444	0.049997	10.000000	nontarget	9.000000	na
15.715440	0.049998	10.000000	nontarget	10.000000	na
15.765438	0.049997	10.000000	nontarget	11.000000	na
15.815435	0.049995	10.000000	nontarget	12.000000	na
15.865431	0.049998	10.000000	nontarget	13.000000	15.894738
15.915428	0.049996	10.000000	nontarget	14.000000	na
15.965425	0.050000	10.000000	nontarget	15.000000	na
16.015424	0.049994	10.000000	nontarget	16.000000	na
16.065418	0.049996	11.000000	nontarget	1.000000	na
16.115414	0.049996	11.000000	nontarget	2.000000	na
16.165411	0.049997	11.000000	nontarget	3.000000	na
16.215408	0.049998	11.000000	nontarget	4.000000	na
16.265406	0.049997	11.000000	nontarget	5.000000	na
16.315402	0.049997	11.000000	nontarget	6.000000	na
16.365400	0.049997	11.000000	nontarget	7.000000	na
16.415397	0.049996	11.000000	nontarget	8.000000	16.425649
16.465393	0.049996	11.000000	nontarget	9.000000	na
16.515389	0.050000	11.000000	nontarget	10.000000	na
16.565389	0.049993	11.000000	nontarget	11.000000	na
16.615382	0.049996	11.000000	nontarget	12.000000	na
16.665378	0.049999	11.000000	nontarget	13.000000	na
16.715377	0.049999	11.000000	nontarget	14.000000	na
16.765375	0.049995	11.000000	nontarget	15.000000	na
16.815371	0.049996	11.000000	nontarget	16.000000	na
16.865366	0.049996	12.000000	nontarget	1.000000	na
16.915363	0.049998	12.000000	nontarget	2.000000	na
16.965361	0.050000	12.000000	nontarget	3.000000	na
17.015361	0.049994	12.000000	nontarget	4.000000	na
17.065355	0.049996	12.000000	nontarget	5.000000	na
17.115351	0.049996	12.000000	nontarget	6.000000	na
17.165347	0.049997	12.000000	nontarget	7.000000	na
17.215344	0.049996	12.000000	nontarget	8.000000	na
17.265340	0.049997	12.000000	nontarget	9.000000	na
17.315337	0.050000	12.000000	nontarget	10.000000	17.318674
17.365337	0.049995	12.000000	nontarget	11.000000	na
17.415332	0.049995	12.000000	nontarget	12.000000	na
17.465327	0.050000	12.000000	nontarget	13.000000	na
17.515326	0.049994	12.000000	nontarget	14.000000	na
17.565321	0.049992	12.000000	nontarget	15.000000	na
17.615313	0.050002	12.000000	nontarget	16.000000	na
17.665315	0.049997	13.000000	nontarget	1.000000	na
17.715312	0.049993	13.000000	nontarget	2.000000	na
17.765304	0.050001	13.000000	nontarget	3.000000	na
17.815305	0.049996	13.000000	nontarget	4.000000	na
17.865301	0.049998	13.000000	nontarget	5.000000	na
17.915299	0.049997	13.000000	nontarget	6.000000	na
17.965296	0.049994	13.000000	nontarget	7.000000	na
18.015290	0.049999	13.000000	nontarget	8.000000	na
18.065289	0.049998	13.000000	nontarget	9.000000	na
18.115287	0.049994	13.000000	nontarget	10.000000	na
18.165281	0.049999	13.000000	nontarget	11.000000	18.171669
18.215280	0.049997	13.000000	nontarget	12.000000	na
18.265277	0.049996	13.000000	nontarget	13.000000	na
18.315273	0.049999	13.000000	nontarget	14.000000	na
18.365271	0.049995	13.000000	nontarget	15.000000	na
18.415267	0.049996	13.000000	nontarget	16.000000	na
18.465263	0.049997	14.000000	nontarget	1.000000	na
18.515261	0.049998	14.000000	nontarget	2.000000	na
18.565258	0.049994	14.000000	nontarget	3.000000	na
18.615253	0.049998	14.000000	nontarget	4.000000	na
18.665250	0.049994	14.000000	nontarget	5.000000	na
18.715245	0.049996	14.000000	nontarget	6.000000	na
18.765241	0.049999	14.000000	nontarget	7.000000	na
18.815240	0.049997	14.000000	nontarget	8.000000	na
18.865238	0.049997	14.000000	nontarget	9.000000	na
18.915234	0.049996	14.000000	nontarget	10.000000	na
18.965231	0.050000	14.000000	nontarget	11.000000	18.967709
19.015231	0.049993	14.000000	nontarget	12.000000	na
19.065224	0.050001	14.000000	nontarget	13.000000	na
19.115225	0.049993	14.000000	nontarget	14.000000	na
19.165218	0.049997	14.000000	nontarget	15.000000	na
19.215215	0.049996	14.000000	nontarget	16.000000	na
19.265212	0.049997	15.000000	nontarget	1.000000	na
19.315208	0.050000	15.000000	nontarget	2.000000	na
19.365209	0.049993	15.000000	nontarget	3.000000	na
19.415202	0.049996	15.000000	nontarget	4.000000	na
19.465198	0.049998	15.000000	nontarget	5.000000	na
19.515196	0.049996	15.000000	nontarget	6.000000	na
19.565193	0.049997	15.000000	nontarget	7.000000	na
19.615190	0.050000	15.000000	nontarget	8.000000	na
19.665190	0.049995	15.000000	nontarget	9.000000	na
19.715184	0.049996	15.000000	nontarget	10.000000	19.720751
19.765180	0.049996	15.000000	nontarget	11.000000	na
19.815176	0.050000	15.000000	nontarget	12.000000	na
19.865176	0.049994	15.000000	nontarget	13.000000	na
19.915170	0.049997	15.000000	nontarget	14.000000	na
19.965167	0.050000	15.000000	nontarget	15.000000	na
20.015167	0.049994	15.000000	nontarget	16.000000	na
20.065161	0.049997	16.000000	nontarget	1.000000	na
20.115158	0.049996	16.000000	nontarget	2.000000	na
20.165154	0.049995	16.000000	nontarget	3.000000	na
20.215149	0.049997	16.000000	nontarget	4.000000	na
20.265147	0.049997	16.000000	nontarget	5.000000	na
20.315144	0.049996	16.000000	nontarget	6.000000	na
20.365140	0.049997	16.000000	nontarget	7.000000	na
20.415137	0.049997	16.000000	nontarget	8.000000	na
20.465134	0.049996	16.000000	nontarget	9.000000	na
20.515130	0.050001	16.000000	nontarget	10.000000	na
20.565132	0.049994	16.000000	nontarget	11.000000	20.565828
20.615126	0.049996	16.000000	nontarget	12.000000	na
20.665121	0.049995	16.000000	nontarget	13.000000	na
20.715117	0.050026	16.000000	nontarget	14.000000	na
20.765142	0.049970	16.000000	nontarget	15.000000	na
20.815112	0.049996	16.000000	nontarget	16.000000	na
20.865108	0.050008	17.000000	nontarget	1.000000	na
20.915116	0.050017	17.000000	nontarget	2.000000	na
20.965133	0.049983	17.000000	nontarget	3.000000	na
21.015116	0.049980	17.000000	nontarget	4.000000	na
21.065096	0.050021	17.000000	nontarget	5.000000	na
21.115117	0.049967	17.000000	nontarget	6.000000	na
21.165083	0.050023	17.000000	nontarget	7.000000	na
21.215107	0.049966	17.000000	nontarget	8.000000	na
21.265073	0.050015	17.000000	nontarget	9.000000	na
21.315088	0.049988	17.000000	nontarget	10.000000	na
21.365076	0.050008	17.000000	nontarget	11.000000	na
21.415084	0.049986	17.000000	nontarget	12.000000	na
21.465070	0.049999	17.000000	nontarget	13.000000	na
21.515069	0.049993	17.000000	nontarget	14.000000	na
21.565062	0.049999	17.000000	nontarget	15.000000	na
21.615061	0.049995	17.000000	nontarget	16.000000	na
21.665056	0.049995	18.000000	target	1.000000	na
21.715051	0.049998	18.000000	target	2.000000	na
21.765049	0.050000	18.000000	target	3.000000	na
21.815049	0.049989	18.000000	target	4.000000	na
21.865038	0.050008	18.000000	target	5.000000	na
21.915047	0.049987	18.000000	target	6.000000	na
21.965034	0.049997	18.000000	target	7.000000	na
22.015031	0.049999	18.000000	target	8.000000	na
22.065030	0.049998	18.000000	target	9.000000	na
22.115028	0.049997	18.000000	target	10.000000	na
22.165025	0.049997	18.000000	target	11.000000	na
22.215022	0.049996	18.000000	target	12.000000	na
22.265017	0.049998	18.000000	target	13.000000	na
22.315015	0.049995	18.000000	target	14.000000	na
22.365010	0.049999	18.000000	target	15.000000	na
22.415009	0.049996	18.000000	target	16.000000	22.420648
22.465005	0.049997	19.000000	nontarget	1.000000	22.465710
22.515002	0.049994	19.000000	nontarget	2.000000	na
22.564995	0.050001	19.000000	nontarget	3.000000	na
22.614997	0.049995	19.000000	nontarget	4.000000	na
22.664991	0.049999	19.000000	nontarget	5.000000	na
22.714990	0.049990	19.000000	nontarget	6.000000	na
22.764980	0.050001	19.000000	nontarget	7.000000	na
22.814981	0.049996	19.000000	nontarget	8.000000	na
22.864978	0.049998	19.000000	nontarget	9.000000	na
22.914976	0.049996	19.000000	nontarget	10.000000	na
22.964971	0.050000	19.000000	nontarget	11.000000	na
23.014971	0.049996	19.000000	nontarget	12.000000	na
23.064967	0.049996	19.000000	nontarget	13.000000	na
23.114963	0.049997	19.000000	nontarget	14.000000	na
23.164960	0.049996	19.000000	nontarget	15.000000	na
23.214956	0.049997	19.000000	nontarget	16.000000	23.216595
23.264953	0.049996	20.000000	nontarget	1.000000	23.265670
23.314950	0.049996	20.000000	nontarget	2.000000	na
23.364946	0.049998	20.000000	nontarget	3.000000	na
23.414944	0.049996	20.000000	nontarget	4.000000	na
23.464940	0.049997	20.000000	nontarget	5.000000	na
23.514937	0.049997	20.000000	nontarget	6.000000	na
23.564933	0.049997	20.000000	nontarget	7.000000	na
23.614930	0.049998	20.000000	nontarget	8.000000	na
23.664928	0.049996	20.000000	nontarget	9.000000	na
23.714924	0.049998	20.000000	nontarget	10.000000	na
23.764922	0.049996	20.000000	nontarget	11.000000	na
23.814917	0.050000	20.000000	nontarget	12.000000	na
23.864917	0.049993	20.000000	nontarget	13.000000	23.865614
23.914910	0.049999	20.000000	nontarget	14.000000	na
23.964909	0.049997	20.000000	nontarget	15.000000	na
24.014906	0.049995	20.000000	nontarget	16.000000	na
24.064901	0.049997	21.000000	nontarget	1.000000	24.065585
24.114898	0.049996	21.000000	nontarget	2.000000	na
24.164894	0.049999	21.000000	nontarget	3.000000	na
24.214893	0.049997	21.000000	nontarget	4.000000	na
24.264890	0.049995	21.000000	nontarget	5.000000	na
24.314885	0.049998	21.000000	nontarget	6.000000	na
24.364883	0.049997	21.000000	nontarget	7.000000	24.365561
24.414880	0.049996	21.000000	nontarget	8.000000	na
24.464875	0.049999	21.000000	nontarget	9.000000	na
24.514874	0.049996	21.000000	nontarget	10.000000	na
24.564870	0.049995	21.000000	nontarget	11.000000	na
24.614865	0.049998	21.000000	nontarget	12.000000	na
24.664863	0.049998	21.000000	nontarget	13.000000	24.665545
24.714861	0.049992	21.000000	nontarget	14.000000	na
24.764853	0.050000	21.000000	nontarget	15.000000	na
24.814853	0.049997	21.000000	nontarget	16.000000	na
24.864851	0.049995	22.000000	nontarget	1.000000	24.865528
24.914846	0.049998	22.000000	nontarget	2.000000	na
24.964844	0.049997	22.000000	nontarget	3.000000	na
25.014841	0.049996	22.000000	nontarget	4.000000	na
25.064837	0.049997	22.000000	nontarget	5.000000	na
25.114834	0.049998	22.000000	nontarget	6.000000	na
25.164832	0.049995	22.000000	nontarget	7.000000	na
25.214827	0.049997	22.000000	nontarget	8.000000	na
25.264824	0.049996	22.000000	nontarget	9.000000	na
25.314820	0.049997	22.000000	nontarget	10.000000	na
25.364817	0.049998	22.000000	nontarget	11.000000	na
25.414815	0.049996	22.000000	nontarget	12.000000	na
25.464811	0.049998	22.000000	nontarget	13.000000	na
25.514809	0.049991	22.000000	nontarget	14.000000	na
25.564800	0.050003	22.000000	nontarget	15.000000	na
25.614803	0.049996	22.000000	nontarget	16.000000	25.636640
25.664799	0.049999	23.000000	nontarget	1.000000	25.665500
25.714798	0.049993	23.000000	nontarget	2.000000	na
25.764791	0.049999	23.000000	nontarget	3.000000	na
25.814790	0.049997	23.000000	nontarget	4.000000	na
25.864787	0.049996	23.000000	nontarget	5.000000	na
25.914782	0.049997	23.000000	nontarget	6.000000	na
25.964779	0.049999	23.000000	nontarget	7.000000	na
26.014778	0.049994	23.000000	nontarget	8.000000	na
26.064772	0.049999	23.000000	nontarget	9.000000	na
26.114771	0.049996	23.000000	nontarget	10.000000	na
26.164766	0.049995	23.000000	nontarget	11.000000	na
26.214761	0.049999	23.000000	nontarget	12.000000	na
26.264760	0.049997	23.000000	nontarget	13.000000	na
26.314757	0.049996	23.000000	nontarget	14.000000	na
26.364753	0.050003	23.000000	nontarget	15.000000	na
26.414756	0.049991	23.000000	nontarget	16.000000	26.415437
26.464747	0.049996	24.000000	nontarget	1.000000	26.465462
26.514743	0.050000	24.000000	nontarget	2.000000	na
26.564744	0.049995	24.000000	nontarget	3.000000	na
26.614739	0.049995	24.000000	nontarget	4.000000	na
26.664733	0.049998	24.000000	nontarget	5.000000	na
26.714731	0.049997	24.000000	nontarget	6.000000	na
26.764728	0.049996	24.000000	nontarget	7.000000	na
26.814724	0.050000	24.000000	nontarget	8.000000	na
26.864724	0.049994	24.000000	nontarget	9.000000	na
26.914718	0.050000	24.000000	nontarget	10.000000	na
26.964718	0.049995	24.000000	nontarget	11.000000	na
27.014713	0.049996	24.000000	nontarget	12.000000	na
27.064709	0.049998	24.000000	nontarget	13.000000	na
27.114707	0.049995	24.000000	nontarget	14.000000	na
27.164702	0.049998	24.000000	nontarget	15.000000	27.176613
27.214700	0.049997	24.000000	nontarget	16.000000	na
27.264696	0.049996	25.000000	nontarget	1.000000	27.265406
27.314692	0.049997	25.000000	nontarget	2.000000	na
27.364689	0.049997	25.000000	nontarget	3.000000	na
27.414686	0.049996	25.000000	nontarget	4.000000	na
27.464683	0.049997	25.000000	nontarget	5.000000	na
27.514680	0.049996	25.000000	nontarget	6.000000	na
27.564676	0.049997	25.000000	nontarget	7.000000	na
27.614673	0.049997	25.000000	nontarget	8.000000	na
27.664670	0.049997	25.000000	nontarget	9.000000	na
27.714667	0.049996	25.000000	nontarget	10.000000	na
27.764663	0.049998	25.000000	nontarget	11.000000	na
27.814661	0.049994	25.000000	nontarget	12.000000	na
27.864656	0.049997	25.000000	nontarget	13.000000	na
27.914653	0.049998	25.000000	nontarget	14.000000	na
27.964651	0.049997	25.000000	nontarget	15.000000	27.965324
28.014648	0.049996	25.000000	nontarget	16.000000	na
28.064644	0.049999	26.000000	nontarget	1.000000	28.065327
28.114643	0.049996	26.000000	nontarget	2.000000	na
28.164638	0.049995	26.000000	nontarget	3.000000	na
28.214633	0.049997	26.000000	nontarget	4.000000	na
28.264630	0.049998	26.000000	nontarget	5.000000	na
28.314628	0.049997	26.000000	nontarget	6.000000	na
28.364625	0.049996	26.000000	nontarget	7.000000	na
28.414621	0.049996	26.000000	nontarget	8.000000	na
28.464617	0.049998	26.000000	nontarget	9.000000	na
28.514615	0.049996	26.000000	nontarget	10.000000	na
28.564611	0.049997	26.000000	nontarget	11.000000	na
28.614608	0.049997	26.000000	nontarget	12.000000	na
28.664605	0.049998	26.000000	nontarget	13.000000	na
28.714603	0.049996	26.000000	nontarget	14.000000	28.741557
28.764599	0.049996	26.000000	nontarget	15.000000	na
28.814595	0.049997	26.000000	nontarget	16.000000	na
28.864592	0.049999	27.000000	nontarget	1.000000	28.865273
28.914590	0.049996	27.000000	nontarget	2.000000	na
28.964586	0.049999	27.000000	nontarget	3.000000	na
29.014585	0.049993	27.000000	nontarget	4.000000	na
29.064578	0.049998	27.000000	nontarget	5.000000	na
29.114576	0.049997	27.000000	nontarget	6.000000	na
29.164573	0.049997	27.000000	nontarget	7.000000	na
29.214570	0.049995	27.000000	nontarget	8.000000	na
29.264565	0.049999	27.000000	nontarget	9.000000	na
29.314564	0.049995	27.000000	nontarget	10.000000	na
29.364558	0.049998	27.000000	nontarget	11.000000	na
29.414557	0.049995	27.000000	nontarget	12.000000	na
29.464552	0.049999	27.000000	nontarget	13.000000	na
29.514551	0.049997	27.000000	nontarget	14.000000	na
29.564548	0.049997	27.000000	nontarget	15.000000	29.565241
29.614544	0.049996	27.000000	nontarget	16.000000	na
29.664541	0.049996	28.000000	nontarget	1.000000	29.665229
29.714537	0.049996	28.000000	nontarget	2.000000	na
29.764533	0.049997	28.000000	nontarget	3.000000	na
29.814530	0.049996	28.000000	nontarget	4.000000	na
29.864526	0.049998	28.000000	nontarget	5.000000	na
29.914524	0.049996	28.000000	nontarget	6.000000	na
29.964520	0.050000	28.000000	nontarget	7.000000	na
30.014521	0.049994	28.000000	nontarget	8.000000	na
30.064515	0.049996	28.000000	nontarget	9.000000	na
30.114511	0.049996	28.000000	nontarget	10.000000	na
30.164507	0.049999	28.000000	nontarget	11.000000	na
30.214506	0.049995	28.000000	nontarget	12.000000	na
30.264501	0.049996	28.000000	nontarget	13.000000	na
30.314497	0.049999	28.000000	nontarget	14.000000	na
30.364497	0.049995	28.000000	nontarget	15.000000	na
30.414492	0.050034	28.000000	nontarget	16.000000	30.417481
30.464526	0.050012	29.000000	nontarget	1.000000	30.465209
30.514538	0.049946	29.000000	nontarget	2.000000	na
30.564484	0.050018	29.000000	nontarget	3.000000	na
30.614502	0.050013	29.000000	nontarget	4.000000	na
30.664515	0.049976	29.000000	nontarget	5.000000	na
30.714491	0.050002	29.000000	nontarget	6.000000	na
30.764493	0.050002	29.000000	nontarget	7.000000	na
30.814495	0.049978	29.000000	nontarget	8.000000	na
30.864473	0.050001	29.000000	nontarget	9.000000	na
30.914474	0.049994	29.000000	nontarget	10.000000	na
30.964468	0.050003	29.000000	nontarget	11.000000	na
31.014470	0.049980	29.000000	nontarget	12.000000	31.044468
31.064451	0.049998	29.000000	nontarget	13.000000	na
31.114449	0.049990	29.000000	nontarget	14.000000	na
31.164439	0.050002	29.000000	nontarget	15.000000	na
31.214441	0.050009	29.000000	nontarget	16.000000	na
31.264450	0.049988	30.000000	nontarget	1.000000	na
31.314438	0.049988	30.000000	nontarget	2.000000	na
31.364426	0.049996	30.000000	nontarget	3.000000	na
31.414422	0.049996	30.000000	nontarget	4.000000	na
31.464418	0.050004	30.000000	nontarget	5.000000	na
31.514422	0.049994	30.000000	nontarget	6.000000	na
31.564416	0.049999	30.000000	nontarget	7.000000	na
31.614415	0.049995	30.000000	nontarget	8.000000	na
31.664410	0.049999	30.000000	nontarget	9.000000	na
31.714409	0.049997	30.000000	nontarget	10.000000	na
31.764406	0.049998	30.000000	nontarget	11.000000	na
31.814404	0.049994	30.000000	nontarget	12.000000	31.815106
31.864398	0.049998	30.000000	nontarget	13.000000	na
31.914396	0.049998	30.000000	nontarget	14.000000	na
31.964394	0.049998	30.000000	nontarget	15.000000	na
32.014392	0.049993	30.000000	nontarget	16.000000	na
32.064385	0.049997	31.000000	nontarget	1.000000	na
32.114382	0.049997	31.000000	nontarget	2.000000	na
32.164379	0.049996	31.000000	nontarget	3.000000	na
32.214375	0.049997	31.000000	nontarget	4.000000	na
32.264372	0.049996	31.000000	nontarget	5.000000	na
32.314369	0.049997	31.000000	nontarget	6.000000	na
32.364366	0.049996	31.000000	nontarget	7.000000	na
32.414362	0.049996	31.000000	nontarget	8.000000	na
32.464358	0.049996	31.000000	nontarget	9.000000	na
32.514354	0.050000	31.000000	nontarget	10.000000	na
32.564354	0.049995	31.000000	nontarget	11.000000	na
32.614349	0.049998	31.000000	nontarget	12.000000	na
32.664347	0.049996	31.000000	nontarget	13.000000	na
32.714343	0.049997	31.000000	nontarget	14.000000	32.738805
32.764341	0.049995	31.000000	nontarget	15.000000	na
32.814336	0.049999	31.000000	nontarget	16.000000	na
32.864334	0.049998	32.000000	nontarget	1.000000	32.865014
32.914332	0.049995	32.000000	nontarget	2.000000	na
32.964327	0.050001	32.000000	nontarget	3.000000	na
33.014328	0.049991	32.000000	nontarget	4.000000	na
33.064319	0.049999	32.000000	nontarget	5.000000	na
33.114317	0.049997	32.000000	nontarget	6.000000	na
33.164314	0.049996	32.000000	nontarget	7.000000	na
33.214311	0.049997	32.000000	nontarget	8.000000	na
33.264307	0.049997	32.000000	nontarget	9.000000	na
33.314305	0.049998	32.000000	nontarget	10.000000	na
33.364302	0.049996	32.000000	nontarget	11.000000	na
33.414298	0.049996	32.000000	nontarget	12.000000	na
33.464295	0.049997	32.000000	nontarget	13.000000	33.467558
33.514292	0.049996	32.000000	nontarget	14.000000	na
33.564289	0.049997	32.000000	nontarget	15.000000	na
33.614286	0.049996	32.000000	nontarget	16.000000	na
33.664282	0.049994	33.000000	nontarget	1.000000	na
33.714276	0.050000	33.000000	nontarget	2.000000	na
33.764276	0.049997	33.000000	nontarget	3.000000	na
33.814273	0.049996	33.000000	nontarget	4.000000	na
33.864269	0.049996	33.000000	nontarget	5.000000	na
33.914265	0.049997	33.000000	nontarget	6.000000	na
33.964262	0.049999	33.000000	nontarget	7.000000	na
34.014262	0.049994	33.000000	nontarget	8.000000	na
34.064255	0.049998	33.000000	nontarget	9.000000	na
34.114253	0.049998	33.000000	nontarget	10.000000	na
34.164251	0.049995	33.000000	nontarget	11.000000	na
34.214246	0.049998	33.000000	nontarget	12.000000	na
34.264244	0.049995	33.000000	nontarget	13.000000	na
34.314239	0.049999	33.000000	nontarget	14.000000	na
34.364238	0.049996	33.000000	nontarget	15.000000	na
34.414234	0.049997	33.000000	nontarget	16.000000	na
34.464231	0.049996	34.000000	target	1.000000	na
34.514227	0.049998	34.000000	target	2.000000	na
34.564224	0.049996	34.000000	target	3.000000	na
34.614220	0.049996	34.000000	target	4.000000	na
34.664217	0.049998	34.000000	target	5.000000	na
34.714215	0.049995	34.000000	target	6.000000	na
34.764210	0.049996	34.000000	target	7.000000	na
34.814207	0.049999	34.000000	target	8.000000	na
34.864205	0.049996	34.000000	target	9.000000	na
34.914202	0.049995	34.000000	target	10.000000	na
34.964197	0.050002	34.000000	target	11.000000	na
35.014199	0.049991	34.000000	target	12.000000	na
35.064190	0.049998	34.000000	target	13.000000	na
35.114189	0.049996	34.000000	target	14.000000	na
35.164185	0.049998	34.000000	target	15.000000	na
35.214183	0.049996	34.000000	target	16.000000	na
35.264179	0.049997	35.000000	nontarget	1.000000	35.271493
35.314176	0.049996	35.000000	nontarget	2.000000	na
35.364172	0.049998	35.000000	nontarget	3.000000	na
35.414169	0.049997	35.000000	nontarget	4.000000	na
35.464166	0.049996	35.000000	nontarget	5.000000	na
35.514162	0.049999	35.000000	nontarget	6.000000	na
35.564161	0.049996	35.000000	nontarget	7.000000	na
35.614157	0.049996	35.000000	nontarget	8.000000	na
35.664153	0.049996	35.000000	nontarget	9.000000	na
35.714149	0.049998	35.000000	nontarget	10.000000	na
35.764147	0.049996	35.000000	nontarget	11.000000	na
35.814143	0.049997	35.000000	nontarget	12.000000	na
35.864140	0.049996	35.000000	nontarget	13.000000	na
35.914136	0.049998	35.000000	nontarget	14.000000	na
35.964134	0.049999	35.000000	nontarget	15.000000	na
36.014133	0.049995	35.000000	nontarget	16.000000	na
36.064128	0.049996	36.000000	nontarget	1.000000	36.085500
36.114124	0.049996	36.000000	nontarget	2.000000	na
36.164120	0.049996	36.000000	nontarget	3.000000	na
36.214116	0.050000	36.000000	nontarget	4.000000	na
36.264116	0.049994	36.000000	nontarget	5.000000	na
36.314110	0.049998	36.000000	nontarget	6.000000	na
36.364108	0.049996	36.000000	nontarget	7.000000	na
36.414104	0.049997	36.000000	nontarget	8.000000	na
36.464101	0.049995	36.000000	nontarget	9.000000	na
36.514096	0.049994	36.000000	nontarget	10.000000	na
36.564090	0.050002	36.000000	nontarget	11.000000	na
36.614092	0.049997	36.000000	nontarget	12.000000	na
36.664089	0.049996	36.000000	nontarget	13.000000	na
36.714085	0.049996	36.000000	nontarget	14.000000	na
36.764082	0.049997	36.000000	nontarget	15.000000	na
36.814079	0.049997	36.000000	nontarget	16.000000	na
36.864076	0.049997	37.000000	nontarget	1.000000	na
36.914073	0.049995	37.000000	nontarget	2.000000	na
36.964068	0.050002	37.000000	nontarget	3.000000	36.969413
37.014070	0.049993	37.000000	nontarget	4.000000	na
37.064062	0.049996	37.000000	nontarget	5.000000	na
37.114058	0.049997	37.000000	nontarget	6.000000	na
37.164056	0.049996	37.000000	nontarget	7.000000	na
37.214052	0.049997	37.000000	nontarget	8.000000	na
37.264048	0.049997	37.000000	nontarget	9.000000	na
37.314046	0.049998	37.000000	nontarget	10.000000	na
37.364044	0.049998	37.000000	nontarget	11.000000	na
37.414042	0.049993	37.000000	nontarget	12.000000	na
37.464035	0.049999	37.000000	nontarget	13.000000	na
37.514034	0.049997	37.000000	nontarget	14.000000	na
37.564031	0.049995	37.000000	nontarget	15.000000	na
37.614027	0.049998	37.000000	nontarget	16.000000	na
37.664024	0.049996	38.000000	nontarget	1.000000	na
37.714021	0.049991	38.000000	nontarget	2.000000	na
37.764012	0.050003	38.000000	nontarget	3.000000	na
37.814015	0.049997	38.000000	nontarget	4.000000	37.814706
37.864012	0.049997	38.000000	nontarget	5.000000	na
37.914009	0.049999	38.000000	nontarget	6.000000	na
37.964007	0.049997	38.000000	nontarget	7.000000	na
38.014004	0.049993	38.000000	nontarget	8.000000	na
38.063997	0.049998	38.000000	nontarget	9.000000	na
38.113995	0.049996	38.000000	nontarget	10.000000	na
38.163992	0.049999	38.000000	nontarget	11.000000	na
38.213990	0.049995	38.000000	nontarget	12.000000	na
38.263985	0.049997	38.000000	nontarget	13.000000	na
38.313982	0.049997	38.000000	nontarget	14.000000	na
38.363979	0.049997	38.000000	nontarget	15.000000	na
38.413976	0.049996	38.000000	nontarget	16.000000	38.445606
38.463971	0.049996	39.000000	nontarget	1.000000	38.464661
38.513968	0.049996	39.000000	nontarget	2.000000	na
38.563964	0.049998	39.000000	nontarget	3.000000	na
38.613963	0.049998	39.000000	nontarget	4.000000	na
38.663960	0.049996	39.000000	nontarget	5.000000	na
38.713956	0.049996	39.000000	nontarget	6.000000	na
38.763952	0.049997	39.000000	nontarget	7.000000	na
38.813949	0.049996	39.000000	nontarget	8.000000	na
38.863946	0.049998	39.000000	nontarget	9.000000	na
38.913943	0.049996	39.000000	nontarget	10.000000	na
38.963940	0.049999	39.000000	nontarget	11.000000	na
39.013939	0.049994	39.000000	nontarget	12.000000	na
39.063933	0.049998	39.000000	nontarget	13.000000	na
39.113931	0.049997	39.000000	nontarget	14.000000	na
39.163928	0.049995	39.000000	nontarget	15.000000	na
39.213923	0.049997	39.000000	nontarget	16.000000	na
39.263919	0.049998	40.000000	target	1.000000	na
39.313917	0.049999	40.000000	target	2.000000	na
39.363915	0.049995	40.000000	target	3.000000	na
39.413910	0.049997	40.000000	target	4.000000	na
39.463907	0.049997	40.000000	target	5.000000	na
39.513905	0.049997	40.000000	target	6.000000	na
39.563902	0.049996	40.000000	target	7.000000	na
39.613897	0.049998	40.000000	target	8.000000	na
39.663895	0.049996	40.000000	target	9.000000	na
39.713891	0.049997	40.000000	target	10.000000	na
39.763888	0.049997	40.000000	target	11.000000	na
39.813885	0.049996	40.000000	target	12.000000	na
39.863882	0.049996	40.000000	target	13.000000	na
39.913878	0.049997	40.000000	target	14.000000	na
39.963875	0.050000	40.000000	target	15.000000	na
40.013875	0.049989	40.000000	target	16.000000	na
40.063864	0.050000	41.000000	nontarget	1.000000	40.064575
40.113864	0.050001	41.000000	nontarget	2.000000	na
40.163865	0.049987	41.000000	nontarget	3.000000	na
40.213853	0.050002	41.000000	nontarget	4.000000	na
40.263855	0.050000	41.000000	nontarget	5.000000	na
40.313854	0.050006	41.000000	nontarget	6.000000	na
40.363860	0.049987	41.000000	nontarget	7.000000	na
40.413847	0.049997	41.000000	nontarget	8.000000	na
40.463844	0.049996	41.000000	nontarget	9.000000	na
40.513841	0.049995	41.000000	nontarget	10.000000	na
40.563836	0.049998	41.000000	nontarget	11.000000	na
40.613834	0.050006	41.000000	nontarget	12.000000	na
40.663840	0.049988	41.000000	nontarget	13.000000	na
40.713828	0.050002	41.000000	nontarget	14.000000	na
40.763830	0.049984	41.000000	nontarget	15.000000	na
40.813814	0.049997	41.000000	nontarget	16.000000	40.817380
40.863811	0.049994	42.000000	nontarget	1.000000	40.864501
40.913806	0.050004	42.000000	nontarget	2.000000	na
40.963810	0.050000	42.000000	nontarget	3.000000	na
41.013811	0.049993	42.000000	nontarget	4.000000	na
41.063803	0.049999	42.000000	nontarget	5.000000	na
41.113802	0.049997	42.000000	nontarget	6.000000	na
41.163799	0.049994	42.000000	nontarget	7.000000	na
41.213793	0.049997	42.000000	nontarget	8.000000	na
41.263790	0.049998	42.000000	nontarget	9.000000	na
41.313787	0.049997	42.000000	nontarget	10.000000	na
41.363785	0.049997	42.000000	nontarget	11.000000	na
41.413782	0.049996	42.000000	nontarget	12.000000	na
41.463778	0.049997	42.000000	nontarget	13.000000	na
41.513775	0.049996	42.000000	nontarget	14.000000	na
41.563771	0.049997	42.000000	nontarget	15.000000	na
41.613769	0.049997	42.000000	nontarget	16.000000	na
41.663766	0.049998	43.000000	nontarget	1.000000	na
41.713764	0.049997	43.000000	nontarget	2.000000	41.714449
41.763761	0.049995	43.000000	nontarget	3.000000	na
41.813756	0.049997	43.000000	nontarget	4.000000	na
41.863753	0.049997	43.000000	nontarget	5.000000	na
41.913750	0.049996	43.000000	nontarget	6.000000	na
41.963746	0.050001	43.000000	nontarget	7.000000	na
42.013746	0.049994	43.000000	nontarget	8.000000	na
42.063740	0.049999	43.000000	nontarget	9.000000	na
42.113739	0.049995	43.000000	nontarget	10.000000	na
42.163734	0.049996	43.000000	nontarget	11.000000	na
42.213730	0.049997	43.000000	nontarget	12.000000	na
42.263726	0.049997	43.000000	nontarget	13.000000	na
42.313723	0.049998	43.000000	nontarget	14.000000	na
42.363721	0.049996	43.000000	nontarget	15.000000	na
42.413717	0.049996	43.000000	nontarget	16.000000	na
42.463713	0.050000	44.000000	nontarget	1.000000	42.465358
42.513713	0.049995	44.000000	nontarget	2.000000	na
42.563708	0.049997	44.000000	nontarget	3.000000	na
42.613705	0.049995	44.000000	nontarget	4.000000	na
42.663699	0.049999	44.000000	nontarget	5.000000	na
42.713699	0.049995	44.000000	nontarget	6.000000	na
42.763694	0.049997	44.000000	nontarget	7.000000	na
42.813691	0.049998	44.000000	nontarget	8.000000	na
42.863689	0.049996	44.000000	nontarget	9.000000	na
42.913684	0.049997	44.000000	nontarget	10.000000	na
42.963682	0.049999	44.000000	nontarget	11.000000	na
43.013680	0.049995	44.000000	nontarget	12.000000	na
43.063675	0.049998	44.000000	nontarget	13.000000	na
43.113673	0.049998	44.000000	nontarget	14.000000	na
43.163671	0.049994	44.000000	nontarget	15.000000	43.164357
43.213665	0.049998	44.000000	nontarget	16.000000	na
43.263663	0.049996	45.000000	nontarget	1.000000	43.264368
43.313659	0.049997	45.000000	nontarget	2.000000	na
43.363656	0.049997	45.000000	nontarget	3.000000	na
43.413654	0.049996	45.000000	nontarget	4.000000	na
43.463649	0.049997	45.000000	nontarget	5.000000	na
43.513646	0.049997	45.000000	nontarget	6.000000	na
43.563643	0.049997	45.000000	nontarget	7.000000	na
43.613640	0.049997	45.000000	nontarget	8.000000	na
43.663637	0.049998	45.000000	nontarget	9.000000	na
43.713634	0.049996	45.000000	nontarget	10.000000	na
43.763631	0.049996	45.000000	nontarget	11.000000	na
43.813627	0.049997	45.000000	nontarget	12.000000	43.838300
43.863624	0.049995	45.000000	nontarget	13.000000	na
43.913619	0.049998	45.000000	nontarget	14.000000	na
43.963617	0.050000	45.000000	nontarget	15.000000	na
44.013617	0.049994	45.000000	nontarget	16.000000	na
44.063611	0.049996	46.000000	nontarget	1.000000	na
44.113607	0.049997	46.000000	nontarget	2.000000	na
44.163604	0.049998	46.000000	nontarget	3.000000	na
44.213603	0.049995	46.000000	nontarget	4.000000	na
44.263597	0.049999	46.000000	nontarget	5.000000	na
44.313596	0.049995	46.000000	nontarget	6.000000	na
44.363591	0.049997	46.000000	nontarget	7.000000	na
44.413588	0.049996	46.000000	nontarget	8.000000	na
44.463584	0.049999	46.000000	nontarget	9.000000	na
44.513583	0.049995	46.000000	nontarget	10.000000	na
44.563578	0.049997	46.000000	nontarget	11.000000	na
44.613575	0.049996	46.000000	nontarget	12.000000	na
44.663571	0.049997	46.000000	nontarget	13.000000	na
44.713568	0.049995	46.000000	nontarget	14.000000	44.729168
44.763563	0.049999	46.000000	nontarget	15.000000	na
44.813562	0.049993	46.000000	nontarget	16.000000	na
44.863555	0.050001	47.000000	nontarget	1.000000	44.864386
44.913556	0.049995	47.000000	nontarget	2.000000	na
44.963551	0.050002	47.000000	nontarget	3.000000	na
45.013552	0.049994	47.000000	nontarget	4.000000	na
45.063546	0.049996	47.000000	nontarget	5.000000	na
45.113543	0.049997	47.000000	nontarget	6.000000	na
45.163539	0.049998	47.000000	nontarget	7.000000	na
45.213537	0.049995	47.000000	nontarget	8.000000	na
45.263532	0.049998	47.000000	nontarget	9.000000	na
45.313530	0.049997	47.000000	nontarget	10.000000	na
45.363527	0.049995	47.000000	nontarget	11.000000	na
45.413522	0.049998	47.000000	nontarget	12.000000	na
45.463520	0.049998	47.000000	nontarget	13.000000	na
45.513517	0.049998	47.000000	nontarget	14.000000	na
45.563515	0.049996	47.000000	nontarget	15.000000	45.577286
45.613511	0.049998	47.000000	nontarget	16.000000	na
45.663508	0.049994	48.000000	nontarget	1.000000	45.664217
45.713502	0.049998	48.000000	nontarget	2.000000	na
45.763501	0.049997	48.000000	nontarget	3.000000	na
45.813498	0.049995	48.000000	nontarget	4.000000	na
45.863493	0.049998	48.000000	nontarget	5.000000	na
45.913491	0.049996	48.000000	nontarget	6.000000	na
45.963487	0.049999	48.000000	nontarget	7.000000	na
46.013485	0.049996	48.000000	nontarget	8.000000	na
46.063481	0.049998	48.000000	nontarget	9.000000	na
46.113479	0.049996	48.000000	nontarget	10.000000	na
46.163474	0.049999	48.000000	nontarget	11.000000	na
46.213473	0.049994	48.000000	nontarget	12.000000	na
46.263467	0.050001	48.000000	nontarget	13.000000	na
46.313468	0.049979	48.000000	nontarget	14.000000	46.329332
46.363447	0.050013	48.000000	nontarget	15.000000	na
46.413460	0.049996	48.000000	nontarget	16.000000	na
46.463456	0.049997	49.000000	nontarget	1.000000	46.464162
46.513454	0.049995	49.000000	nontarget	2.000000	na
46.563448	0.049997	49.000000	nontarget	3.000000	na
46.613445	0.049997	49.000000	nontarget	4.000000	na
46.663443	0.049998	49.000000	nontarget	5.000000	na
46.713440	0.049998	49.000000	nontarget	6.000000	na
46.763438	0.049994	49.000000	nontarget	7.000000	na
46.813432	0.049998	49.000000	nontarget	8.000000	na
46.863430	0.049996	49.000000	nontarget	9.000000	na
46.913426	0.049998	49.000000	nontarget	10.000000	na
46.963424	0.050000	49.000000	nontarget	11.000000	na
47.013424	0.049994	49.000000	nontarget	12.000000	na
47.063418	0.049996	49.000000	nontarget	13.000000	na
47.113413	0.049998	49.000000	nontarget	14.000000	na
47.163411	0.050001	49.000000	nontarget	15.000000	na
47.213412	0.049993	49.000000	nontarget	16.000000	47.214112
47.263405	0.049996	50.000000	nontarget	1.000000	47.264085
47.313400	0.049999	50.000000	nontarget	2.000000	na
47.363400	0.049995	50.000000	nontarget	3.000000	na
47.413395	0.049996	50.000000	nontarget	4.000000	na
47.463391	0.049997	50.000000	nontarget	5.000000	na
47.513388	0.049998	50.000000	nontarget	6.000000	na
47.563386	0.049996	50.000000	nontarget	7.000000	na
47.613382	0.049997	50.000000	nontarget	8.000000	na
47.663378	0.049996	50.000000	nontarget	9.000000	na
47.713375	0.049998	50.000000	nontarget	10.000000	na
47.763373	0.049995	50.000000	nontarget	11.000000	na
47.813367	0.049998	50.000000	nontarget	12.000000	na
47.863365	0.049998	50.000000	nontarget	13.000000	na
47.913363	0.049997	50.000000	nontarget	14.000000	na
47.963360	0.050001	50.000000	nontarget	15.000000	47.964042
48.013361	0.049991	50.000000	nontarget	16.000000	na
48.063352	0.049997	51.000000	nontarget	1.000000	48.064035
48.113349	0.049999	51.000000	nontarget	2.000000	na
48.163348	0.049996	51.000000	nontarget	3.000000	na
48.213344	0.049995	51.000000	nontarget	4.000000	na
48.263338	0.049998	51.000000	nontarget	5.000000	na
48.313336	0.049997	51.000000	nontarget	6.000000	na
48.363333	0.049996	51.000000	nontarget	7.000000	na
48.413330	0.049998	51.000000	nontarget	8.000000	na
48.463327	0.049996	51.000000	nontarget	9.000000	na
48.513323	0.049998	51.000000	nontarget	10.000000	na
48.563320	0.049996	51.000000	nontarget	11.000000	na
48.613316	0.049999	51.000000	nontarget	12.000000	na
48.663315	0.049995	51.000000	nontarget	13.000000	na
48.713310	0.049996	51.000000	nontarget	14.000000	na
48.763307	0.049997	51.000000	nontarget	15.000000	na
48.813304	0.049997	51.000000	nontarget	16.000000	48.813993
48.863301	0.049996	52.000000	nontarget	1.000000	48.863987
48.913297	0.049998	52.000000	nontarget	2.000000	na
48.963295	0.049999	52.000000	nontarget	3.000000	na
49.013293	0.049992	52.000000	nontarget	4.000000	na
49.063286	0.049999	52.000000	nontarget	5.000000	na
49.113285	0.049996	52.000000	nontarget	6.000000	na
49.163281	0.050000	52.000000	nontarget	7.000000	na
49.213281	0.050005	52.000000	nontarget	8.000000	na
49.263286	0.049994	52.000000	nontarget	9.000000	na
49.313280	0.049989	52.000000	nontarget	10.000000	na
49.363269	0.049995	52.000000	nontarget	11.000000	na
49.413264	0.049998	52.000000	nontarget	12.000000	na
49.463262	0.049990	52.000000	nontarget	13.000000	na
49.513251	0.050020	52.000000	nontarget	14.000000	na
49.563272	0.050002	52.000000	nontarget	15.000000	na
49.613274	0.049968	52.000000	nontarget	16.000000	na
49.663242	0.050003	53.000000	nontarget	1.000000	na
49.713245	0.049998	53.000000	nontarget	2.000000	na
49.763243	0.050007	53.000000	nontarget	3.000000	49.770157
49.813251	0.049999	53.000000	nontarget	4.000000	na
49.863249	0.049984	53.000000	nontarget	5.000000	na
49.913234	0.050002	53.000000	nontarget	6.000000	na
49.963236	0.049995	53.000000	nontarget	7.000000	na
50.013231	0.049989	53.000000	nontarget	8.000000	na
50.063220	0.050000	53.000000	nontarget	9.000000	na
50.113220	0.049998	53.000000	nontarget	10.000000	na
50.163218	0.050010	53.000000	nontarget	11.000000	na
50.213228	0.049976	53.000000	nontarget	12.000000	na
50.263204	0.049999	53.000000	nontarget	13.000000	na
50.313203	0.049994	53.000000	nontarget	14.000000	na
50.363197	0.049998	53.000000	nontarget	15.000000	na
50.413195	0.050002	53.000000	nontarget	16.000000	na
50.463197	0.049994	54.000000	nontarget	1.000000	na
50.513191	0.049999	54.000000	nontarget	2.000000	50.544411
50.563191	0.049998	54.000000	nontarget	3.000000	na
50.613188	0.049996	54.000000	nontarget	4.000000	na
50.663185	0.049996	54.000000	nontarget	5.000000	na
50.713181	0.049998	54.000000	nontarget	6.000000	na
50.763179	0.049996	54.000000	nontarget	7.000000	na
50.813175	0.049997	54.000000	nontarget	8.000000	na
50.863172	0.049998	54.000000	nontarget	9.000000	na
50.913170	0.049995	54.000000	nontarget	10.000000	na
50.963165	0.050000	54.000000	nontarget	11.000000	na
51.013166	0.049993	54.000000	nontarget	12.000000	na
51.063159	0.049997	54.000000	nontarget	13.000000	na
51.113155	0.049998	54.000000	nontarget	14.000000	na
51.163154	0.049995	54.000000	nontarget	15.000000	na
51.213148	0.049999	54.000000	nontarget	16.000000	na
51.263147	0.049995	55.000000	nontarget	1.000000	51.268062
51.313142	0.049999	55.000000	nontarget	2.000000	na
51.363140	0.049997	55.000000	nontarget	3.000000	na
51.413137	0.049997	55.000000	nontarget	4.000000	na
51.463134	0.049996	55.000000	nontarget	5.000000	na
51.513130	0.049995	55.000000	nontarget	6.000000	na
51.563125	0.049997	55.000000	nontarget	7.000000	na
51.613122	0.049998	55.000000	nontarget	8.000000	na
51.663121	0.049997	55.000000	nontarget	9.000000	na
51.713118	0.049997	55.000000	nontarget	10.000000	na
51.763115	0.049995	55.000000	nontarget	11.000000	na
51.813110	0.049996	55.000000	nontarget	12.000000	na
51.863106	0.049997	55.000000	nontarget	13.000000	na
51.913103	0.049997	55.000000	nontarget	14.000000	na
51.963100	0.050000	55.000000	nontarget	15.000000	na
52.013100	0.049993	55.000000	nontarget	16.000000	na
52.063093	0.049998	56.000000	nontarget	1.000000	na
52.113092	0.049997	56.000000	nontarget	2.000000	na
52.163088	0.049996	56.000000	nontarget	3.000000	52.174084
52.213085	0.049996	56.000000	nontarget	4.000000	na
52.263080	0.050001	56.000000	nontarget	5.000000	na
52.313081	0.049994	56.000000	nontarget	6.000000	na
52.363075	0.049998	56.000000	nontarget	7.000000	na
52.413073	0.049994	56.000000	nontarget	8.000000	na
52.463067	0.049998	56.000000	nontarget	9.000000	na
52.513065	0.049998	56.000000	nontarget	10.000000	na
52.563062	0.049996	56.000000	nontarget	11.000000	na
52.613059	0.049986	56.000000	nontarget	12.000000	na
52.663045	0.050009	56.000000	nontarget	13.000000	na
52.713054	0.049995	56.000000	nontarget	14.000000	na
52.763049	0.049996	56.000000	nontarget	15.000000	52.795216
52.813045	0.049998	56.000000	nontarget	16.000000	na
52.863043	0.049997	57.000000	nontarget	1.000000	52.863731
52.913039	0.049996	57.000000	nontarget	2.000000	na
52.963036	0.050000	57.000000	nontarget	3.000000	na
53.013036	0.049993	57.000000	nontarget	4.000000	na
53.063029	0.049998	57.000000	nontarget	5.000000	na
53.113027	0.049997	57.000000	nontarget	6.000000	na
53.163024	0.049995	57.000000	nontarget	7.000000	na
53.213020	0.049997	57.000000	nontarget	8.000000	na
53.263017	0.049996	57.000000	nontarget	9.000000	na
53.313013	0.049998	57.000000	nontarget	10.000000	na
53.363010	0.049996	57.000000	nontarget	11.000000	na
53.413007	0.049996	57.000000	nontarget	12.000000	na
53.463003	0.049996	57.000000	nontarget	13.000000	na
53.512999	0.049998	57.000000	nontarget	14.000000	na
53.562997	0.049998	57.000000	nontarget	15.000000	na
53.612995	0.049996	57.000000	nontarget	16.000000	53.613695
53.662991	0.049995	58.000000	nontarget	1.000000	53.663682
53.712986	0.050003	58.000000	nontarget	2.000000	na
53.762989	0.049993	58.000000	nontarget	3.000000	na
53.812982	0.049997	58.000000	nontarget	4.000000	na
53.862979	0.049996	58.000000	nontarget	5.000000	na
53.912975	0.049997	58.000000	nontarget	6.000000	na
53.962972	0.049999	58.000000	nontarget	7.000000	na
54.012971	0.049995	58.000000	nontarget	8.000000	na
54.062965	0.049996	58.000000	nontarget	9.000000	na
54.112962	0.049997	58.000000	nontarget	10.000000	na
54.162959	0.049996	58.000000	nontarget	11.000000	na
54.212955	0.049998	58.000000	nontarget	12.000000	na
54.262953	0.049995	58.000000	nontarget	13.000000	na
54.312948	0.049998	58.000000	nontarget	14.000000	na
54.362946	0.049996	58.000000	nontarget	15.000000	54.369395
54.412942	0.049997	58.000000	nontarget	16.000000	na
54.462939	0.049997	59.000000	nontarget	1.000000	54.463644
54.512936	0.049996	59.000000	nontarget	2.000000	na
54.562932	0.049998	59.000000	nontarget	3.000000	na
54.612930	0.049997	59.000000	nontarget	4.000000	na
54.662927	0.049996	59.000000	nontarget	5.000000	na
54.712922	0.049998	59.000000	nontarget	6.000000	na
54.762921	0.049996	59.000000	nontarget	7.000000	na
54.812917	0.049997	59.000000	nontarget	8.000000	na
54.862914	0.049996	59.000000	nontarget	9.000000	na
54.912910	0.049995	59.000000	nontarget	10.000000	na
54.962906	0.050001	59.000000	nontarget	11.000000	na
55.012906	0.049993	59.000000	nontarget	12.000000	na
55.062900	0.049998	59.000000	nontarget	13.000000	na
55.112898	0.049996	59.000000	nontarget	14.000000	na
55.162894	0.049996	59.000000	nontarget	15.000000	55.183054
55.212890	0.049998	59.000000	nontarget	16.000000	na
55.262888	0.049995	60.000000	nontarget	1.000000	55.263572
55.312884	0.049998	60.000000	nontarget	2.000000	na
55.362882	0.049996	60.000000	nontarget	3.000000	na
55.412877	0.049997	60.000000	nontarget	4.000000	na
55.462875	0.049996	60.000000	nontarget	5.000000	na
55.512871	0.049996	60.000000	nontarget	6.000000	na
55.562868	0.049997	60.000000	nontarget	7.000000	na
55.612865	0.049998	60.000000	nontarget	8.000000	na
55.662862	0.049996	60.000000	nontarget	9.000000	na
55.712859	0.049998	60.000000	nontarget	10.000000	na
55.762856	0.049996	60.000000	nontarget	11.000000	na
55.812852	0.050001	60.000000	nontarget	12.000000	na
55.862852	0.049991	60.000000	nontarget	13.000000	na
55.912844	0.049999	60.000000	nontarget	14.000000	na
55.962843	0.050000	60.000000	nontarget	15.000000	na
56.012843	0.049993	60.000000	nontarget	16.000000	na
56.062836	0.049999	61.000000	nontarget	1.000000	na
56.112834	0.049996	61.000000	nontarget	2.000000	56.117309
56.162831	0.049995	61.000000	nontarget	3.000000	na
56.212826	0.050002	61.000000	nontarget	4.000000	na
56.262827	0.049993	61.000000	nontarget	5.000000	na
56.312820	0.049997	61.000000	nontarget	6.000000	na
56.362817	0.049996	61.000000	nontarget	7.000000	na
56.412813	0.049998	61.000000	nontarget	8.000000	na
56.462810	0.049997	61.000000	nontarget	9.000000	na
56.512807	0.049997	61.000000	nontarget	10.000000	na
56.562804	0.049996	61.000000	nontarget	11.000000	na
56.612800	0.049997	61.000000	nontarget	12.000000	na
56.662798	0.049995	61.000000	nontarget	13.000000	na
56.712792	0.050000	61.000000	nontarget	14.000000	na
56.762792	0.049995	61.000000	nontarget	15.000000	56.793091
56.812787	0.049997	61.000000	nontarget	16.000000	na
56.862785	0.049995	62.000000	nontarget	1.000000	56.863464
56.912779	0.049999	62.000000	nontarget	2.000000	na
56.962778	0.050001	62.000000	nontarget	3.000000	na
57.012779	0.049993	62.000000	nontarget	4.000000	na
57.062772	0.049996	62.000000	nontarget	5.000000	na
57.112768	0.049997	62.000000	nontarget	6.000000	na
57.162765	0.049997	62.000000	nontarget	7.000000	na
57.212762	0.049999	62.000000	nontarget	8.000000	na
57.262761	0.049994	62.000000	nontarget	9.000000	na
57.312755	0.049998	62.000000	nontarget	10.000000	na
57.362753	0.049993	62.000000	nontarget	11.000000	na
57.412746	0.049999	62.000000	nontarget	12.000000	na
57.462745	0.049997	62.000000	nontarget	13.000000	na
57.512742	0.049997	62.000000	nontarget	14.000000	57.522082
57.562739	0.049998	62.000000	nontarget	15.000000	na
57.612737	0.049997	62.000000	nontarget	16.000000	na
57.662734	0.049996	63.000000	nontarget	1.000000	57.663417
57.712730	0.049997	63.000000	nontarget	2.000000	na
57.762727	0.049996	63.000000	nontarget	3.000000	na
57.812723	0.049997	63.000000	nontarget	4.000000	na
57.862720	0.049995	63.000000	nontarget	5.000000	na
57.912715	0.049998	63.000000	nontarget	6.000000	na
57.962713	0.050000	63.000000	nontarget	7.000000	na
58.012713	0.049994	63.000000	nontarget	8.000000	na
58.062707	0.050000	63.000000	nontarget	9.000000	na
58.112707	0.049995	63.000000	nontarget	10.000000	na
58.162702	0.050011	63.000000	nontarget	11.000000	na
58.212713	0.049989	63.000000	nontarget	12.000000	na
58.262702	0.049990	63.000000	nontarget	13.000000	na
58.312692	0.049999	63.000000	nontarget	14.000000	na
58.362692	0.049993	63.000000	nontarget	15.000000	58.363442
58.412685	0.049994	63.000000	nontarget	16.000000	na
58.462679	0.050002	64.000000	nontarget	1.000000	58.463392
58.512680	0.049995	64.000000	nontarget	2.000000	na
58.562676	0.049998	64.000000	nontarget	3.000000	na
58.612674	0.049993	64.000000	nontarget	4.000000	na
58.662667	0.050004	64.000000	nontarget	5.000000	na
58.712671	0.049987	64.000000	nontarget	6.000000	na
58.762658	0.050001	64.000000	nontarget	7.000000	na
58.812659	0.049997	64.000000	nontarget	8.000000	na
58.862656	0.050010	64.000000	nontarget	9.000000	na
58.912666	0.049986	64.000000	nontarget	10.000000	na
58.962652	0.050021	64.000000	nontarget	11.000000	na
59.012672	0.049999	64.000000	nontarget	12.000000	na
59.062671	0.049980	64.000000	nontarget	13.000000	na
59.112652	0.050008	64.000000	nontarget	14.000000	na
59.162660	0.049984	64.000000	nontarget	15.000000	na
59.212644	0.049996	64.000000	nontarget	16.000000	59.213392
59.262640	0.049997	65.000000	nontarget	1.000000	59.263343
59.312637	0.049997	65.000000	nontarget	2.000000	na
59.362634	0.049997	65.000000	nontarget	3.000000	na
59.412631	0.049988	65.000000	nontarget	4.000000	na
59.462619	0.049996	65.000000	nontarget	5.000000	na
59.512614	0.049993	65.000000	nontarget	6.000000	na
59.562607	0.050000	65.000000	nontarget	7.000000	na
59.612608	0.049999	65.000000	nontarget	8.000000	na
59.662607	0.049985	65.000000	nontarget	9.000000	na
59.712592	0.050000	65.000000	nontarget	10.000000	na
59.762592	0.049995	65.000000	nontarget	11.000000	na
59.812587	0.049998	65.000000	nontarget	12.000000	na
59.862585	0.050002	65.000000	nontarget	13.000000	na
59.912587	0.049996	65.000000	nontarget	14.000000	na
59.962583	0.050002	65.000000	nontarget	15.000000	na
60.012584	0.049994	65.000000	nontarget	16.000000	60.035041
60.062578	0.049995	66.000000	nontarget	1.000000	60.063282
60.112573	0.049998	66.000000	nontarget	2.000000	na
60.162571	0.049997	66.000000	nontarget	3.000000	na
60.212569	0.049996	66.000000	nontarget	4.000000	na
60.262564	0.049998	66.000000	nontarget	5.000000	na
60.312562	0.049996	66.000000	nontarget	6.000000	na
60.362559	0.049995	66.000000	nontarget	7.000000	na
60.412554	0.049996	66.000000	nontarget	8.000000	na
60.462550	0.049997	66.000000	nontarget	9.000000	na
60.512548	0.049997	66.000000	nontarget	10.000000	na
60.562545	0.049996	66.000000	nontarget	11.000000	na
60.612541	0.049999	66.000000	nontarget	12.000000	na
60.662539	0.049996	66.000000	nontarget	13.000000	na
60.712536	0.049998	66.000000	nontarget	14.000000	na
60.762534	0.049996	66.000000	nontarget	15.000000	na
60.812529	0.049995	66.000000	nontarget	16.000000	na
60.862525	0.049999	67.000000	nontarget	1.000000	na
60.912523	0.049996	67.000000	nontarget	2.000000	na
60.962519	0.049999	67.000000	nontarget	3.000000	60.987226
61.012519	0.049995	67.000000	nontarget	4.000000	na
61.062514	0.049996	67.000000	nontarget	5.000000	na
61.112510	0.049997	67.000000	nontarget	6.000000	na
61.162508	0.049996	67.000000	nontarget	7.000000	na
61.212503	0.049996	67.000000	nontarget	8.000000	na
61.262499	0.049998	67.000000	nontarget	9.000000	na
61.312497	0.049997	67.000000	nontarget	10.000000	na
61.362494	0.049997	67.000000	nontarget	11.000000	na
61.412491	0.049995	67.000000	nontarget	12.000000	na
61.462487	0.049996	67.000000	nontarget	13.000000	na
61.512483	0.049993	67.000000	nontarget	14.000000	na
61.562476	0.050003	67.000000	nontarget	15.000000	na
61.612479	0.049997	67.000000	nontarget	16.000000	na
61.662476	0.049996	68.000000	nontarget	1.000000	na
61.712472	0.049995	68.000000	nontarget	2.000000	na
61.762467	0.049997	68.000000	nontarget	3.000000	na
61.812464	0.049996	68.000000	nontarget	4.000000	61.826017
61.862460	0.049996	68.000000	nontarget	5.000000	na
61.912457	0.049998	68.000000	nontarget	6.000000	na
61.962455	0.050002	68.000000	nontarget	7.000000	na
62.012457	0.049992	68.000000	nontarget	8.000000	na
62.062449	0.049995	68.000000	nontarget	9.000000	na
62.112443	0.049998	68.000000	nontarget	10.000000	na
62.162442	0.049997	68.000000	nontarget	11.000000	na
62.212439	0.049997	68.000000	nontarget	12.000000	na
62.262436	0.049996	68.000000	nontarget	13.000000	na
62.312432	0.049998	68.000000	nontarget	14.000000	na
62.362430	0.049995	68.000000	nontarget	15.000000	na
62.412425	0.049997	68.000000	nontarget	16.000000	na
62.462422	0.049996	69.000000	nontarget	1.000000	na
62.512418	0.049999	69.000000	nontarget	2.000000	na
62.562417	0.049995	69.000000	nontarget	3.000000	na
62.612412	0.049999	69.000000	nontarget	4.000000	na
62.662411	0.049995	69.000000	nontarget	5.000000	na
62.712405	0.049998	69.000000	nontarget	6.000000	na
62.762403	0.049995	69.000000	nontarget	7.000000	na
62.812398	0.050000	69.000000	nontarget	8.000000	62.815249
62.862398	0.049996	69.000000	nontarget	9.000000	na
62.912394	0.049996	69.000000	nontarget	10.000000	na
62.962390	0.050001	69.000000	nontarget	11.000000	na
63.012391	0.049993	69.000000	nontarget	12.000000	na
63.062384	0.049998	69.000000	nontarget	13.000000	na
63.112382	0.049996	69.000000	nontarget	14.000000	na
63.162378	0.049996	69.000000	nontarget	15.000000	na
63.212375	0.049996	69.000000	nontarget	16.000000	na
63.262371	0.049996	70.000000	nontarget	1.000000	na
63.312367	0.049999	70.000000	nontarget	2.000000	na
63.362367	0.049995	70.000000	nontarget	3.000000	63.386967
63.412362	0.049995	70.000000	nontarget	4.000000	na
63.462357	0.049998	70.000000	nontarget	5.000000	na
63.512355	0.049997	70.000000	nontarget	6.000000	na
63.562352	0.049997	70.000000	nontarget	7.000000	na
63.612349	0.049997	70.000000	nontarget	8.000000	na
63.662346	0.049995	70.000000	nontarget	9.000000	na
63.712341	0.049997	70.000000	nontarget	10.000000	na
63.762338	0.049998	70.000000	nontarget	11.000000	na
63.812336	0.049996	70.000000	nontarget	12.000000	na
63.862332	0.049996	70.000000	nontarget	13.000000	na
63.912328	0.049998	70.000000	nontarget	14.000000	63.940990
63.962326	0.049997	70.000000	nontarget	15.000000	na
64.012323	0.049996	70.000000	nontarget	16.000000	na
64.062318	0.049998	71.000000	nontarget	1.000000	64.062998
64.112316	0.049997	71.000000	nontarget	2.000000	na
64.162313	0.049996	71.000000	nontarget	3.000000	na
64.212309	0.049997	71.000000	nontarget	4.000000	na
64.262306	0.049998	71.000000	nontarget	5.000000	na
64.312304	0.049998	71.000000	nontarget	6.000000	na
64.362302	0.049997	71.000000	nontarget	7.000000	na
64.412299	0.049984	71.000000	nontarget	8.000000	na
64.462283	0.050009	71.000000	nontarget	9.000000	na
64.512292	0.049997	71.000000	nontarget	10.000000	na
64.562289	0.049994	71.000000	nontarget	11.000000	na
64.612282	0.049996	71.000000	nontarget	12.000000	na
64.662279	0.049999	71.000000	nontarget	13.000000	64.670060
64.712278	0.049996	71.000000	nontarget	14.000000	na
64.762274	0.049996	71.000000	nontarget	15.000000	na
64.812270	0.049999	71.000000	nontarget	16.000000	na
64.862269	0.049996	72.000000	nontarget	1.000000	na
64.912264	0.049997	72.000000	nontarget	2.000000	na
64.962261	0.049999	72.000000	nontarget	3.000000	na
65.012260	0.049993	72.000000	nontarget	4.000000	na
65.062253	0.049999	72.000000	nontarget	5.000000	na
65.112252	0.049997	72.000000	nontarget	6.000000	na
65.162248	0.049997	72.000000	nontarget	7.000000	na
65.212245	0.049998	72.000000	nontarget	8.000000	na
65.262243	0.049997	72.000000	nontarget	9.000000	na
65.312239	0.049997	72.000000	nontarget	10.000000	65.326184
65.362236	0.049997	72.000000	nontarget	11.000000	na
65.412233	0.049996	72.000000	nontarget	12.000000	na
65.462229	0.049997	72.000000	nontarget	13.000000	na
65.512226	0.049996	72.000000	nontarget	14.000000	na
65.562223	0.049997	72.000000	nontarget	15.000000	na
65.612220	0.049996	72.000000	nontarget	16.000000	na
65.662216	0.049998	73.000000	nontarget	1.000000	na
65.712213	0.049998	73.000000	nontarget	2.000000	na
65.762211	0.049995	73.000000	nontarget	3.000000	na
65.812206	0.049997	73.000000	nontarget	4.000000	na
65.862203	0.049997	73.000000	nontarget	5.000000	na
65.912200	0.049996	73.000000	nontarget	6.000000	na
65.962197	0.050000	73.000000	nontarget	7.000000	na
66.012197	0.049993	73.000000	nontarget	8.000000	na
66.062191	0.049996	73.000000	nontarget	9.000000	na
66.112187	0.049996	73.000000	nontarget	10.000000	na
66.162184	0.049995	73.000000	nontarget	11.000000	66.169961
66.212179	0.049999	73.000000	nontarget	12.000000	na
66.262178	0.049996	73.000000	nontarget	13.000000	na
66.312175	0.049997	73.000000	nontarget	14.000000	na
66.362171	0.049997	73.000000	nontarget	15.000000	na
66.412168	0.049998	73.000000	nontarget	16.000000	na
66.462166	0.049995	74.000000	nontarget	1.000000	na
66.512161	0.049996	74.000000	nontarget	2.000000	na
66.562157	0.049997	74.000000	nontarget	3.000000	na
66.612154	0.049998	74.000000	nontarget	4.000000	na
66.662152	0.049996	74.000000	nontarget	5.000000	na
66.712148	0.049998	74.000000	nontarget	6.000000	na
66.762146	0.049996	74.000000	nontarget	7.000000	na
66.812142	0.049997	74.000000	nontarget	8.000000	na
66.862139	0.049996	74.000000	nontarget	9.000000	na
66.912135	0.049997	74.000000	nontarget	10.000000	na
66.962132	0.050001	74.000000	nontarget	11.000000	na
67.012133	0.049993	74.000000	nontarget	12.000000	67.037159
67.062126	0.050001	74.000000	nontarget	13.000000	na
67.112127	0.049993	74.000000	nontarget	14.000000	na
67.162121	0.049995	74.000000	nontarget	15.000000	na
67.212116	0.049997	74.000000	nontarget	16.000000	na
67.262113	0.049997	75.000000	nontarget	1.000000	na
67.312110	0.049998	75.000000	nontarget	2.000000	na
67.362108	0.049996	75.000000	nontarget	3.000000	na
67.412104	0.049995	75.000000	nontarget	4.000000	na
67.462099	0.049997	75.000000	nontarget	5.000000	na
67.512096	0.049999	75.000000	nontarget	6.000000	na
67.562096	0.049994	75.000000	nontarget	7.000000	na
67.612090	0.049997	75.000000	nontarget	8.000000	na
67.662087	0.049997	75.000000	nontarget	9.000000	na
67.712084	0.049999	75.000000	nontarget	10.000000	na
67.762083	0.049993	75.000000	nontarget	11.000000	na
67.812076	0.049999	75.000000	nontarget	12.000000	na
67.862075	0.049996	75.000000	nontarget	13.000000	67.879043
67.912071	0.049997	75.000000	nontarget	14.000000	na
67.962068	0.049999	75.000000	nontarget	15.000000	na
68.012068	0.049993	75.000000	nontarget	16.000000	na
68.062061	0.049997	76.000000	nontarget	1.000000	na
68.112058	0.049997	76.000000	nontarget	2.000000	na
68.162056	0.049996	76.000000	nontarget	3.000000	na
68.212052	0.049995	76.000000	nontarget	4.000000	na
68.262046	0.049999	76.000000	nontarget	5.000000	na
68.312045	0.050008	76.000000	nontarget	6.000000	na
68.362053	0.049984	76.000000	nontarget	7.000000	na
68.412037	0.050021	76.000000	nontarget	8.000000	na
68.462059	0.050001	76.000000	nontarget	9.000000	na
68.512060	0.050002	76.000000	nontarget	10.000000	na
68.562061	0.049986	76.000000	nontarget	11.000000	na
68.612047	0.050002	76.000000	nontarget	12.000000	na
68.662049	0.049979	76.000000	nontarget	13.000000	na
68.712028	0.049998	76.000000	nontarget	14.000000	68.741955
68.762026	0.049999	76.000000	nontarget	15.000000	na
68.812025	0.049994	76.000000	nontarget	16.000000	na
68.862019	0.049993	77.000000	nontarget	1.000000	68.862698
68.912012	0.049985	77.000000	nontarget	2.000000	na
68.961997	0.050006	77.000000	nontarget	3.000000	na
69.012002	0.050003	77.000000	nontarget	4.000000	na
69.062005	0.049988	77.000000	nontarget	5.000000	na
69.111993	0.049998	77.000000	nontarget	6.000000	na
69.161991	0.049990	77.000000	nontarget	7.000000	na
69.211982	0.049997	77.000000	nontarget	8.000000	na
69.261979	0.049996	77.000000	nontarget	9.000000	na
69.311975	0.050003	77.000000	nontarget	10.000000	na
69.361978	0.049997	77.000000	nontarget	11.000000	na
69.411975	0.049997	77.000000	nontarget	12.000000	na
69.461971	0.049997	77.000000	nontarget	13.000000	na
69.511968	0.049998	77.000000	nontarget	14.000000	na
69.561967	0.049995	77.000000	nontarget	15.000000	69.562687
69.611962	0.049997	77.000000	nontarget	16.000000	na
69.661958	0.049999	78.000000	nontarget	1.000000	69.662670
69.711957	0.049995	78.000000	nontarget	2.000000	na
69.761952	0.049996	78.000000	nontarget	3.000000	na
69.811949	0.049997	78.000000	nontarget	4.000000	na
69.861946	0.049997	78.000000	nontarget	5.000000	na
69.911943	0.049996	78.000000	nontarget	6.000000	na
69.961939	0.050000	78.000000	nontarget	7.000000	na
70.011939	0.049994	78.000000	nontarget	8.000000	na
70.061933	0.049997	78.000000	nontarget	9.000000	na
70.111930	0.049997	78.000000	nontarget	10.000000	na
70.161927	0.049995	78.000000	nontarget	11.000000	na
70.211921	0.049999	78.000000	nontarget	12.000000	na
70.261920	0.049996	78.000000	nontarget	13.000000	na
70.311916	0.049997	78.000000	nontarget	14.000000	na
70.361914	0.049997	78.000000	nontarget	15.000000	70.371132
70.411911	0.049996	78.000000	nontarget	16.000000	na
70.461907	0.049996	79.000000	nontarget	1.000000	70.462589
70.511903	0.049997	79.000000	nontarget	2.000000	na
70.561901	0.049996	79.000000	nontarget	3.000000	na
70.611897	0.049997	79.000000	nontarget	4.000000	na
70.661894	0.049997	79.000000	nontarget	5.000000	na
70.711891	0.049997	79.000000	nontarget	6.000000	na
70.761888	0.049992	79.000000	nontarget	7.000000	na
70.811880	0.050000	79.000000	nontarget	8.000000	na
70.861880	0.049998	79.000000	nontarget	9.000000	na
70.911878	0.049995	79.000000	nontarget	10.000000	na
70.961872	0.050001	79.000000	nontarget	11.000000	na
71.011873	0.049994	79.000000	nontarget	12.000000	na
71.061868	0.049997	79.000000	nontarget	13.000000	na
71.111865	0.049998	79.000000	nontarget	14.000000	na
71.161862	0.049995	79.000000	nontarget	15.000000	na
71.211857	0.049997	79.000000	nontarget	16.000000	na
71.261854	0.049998	80.000000	nontarget	1.000000	na
71.311852	0.049996	80.000000	nontarget	2.000000	71.327793
71.361848	0.050006	80.000000	nontarget	3.000000	na
71.411854	0.049988	80.000000	nontarget	4.000000	na
71.461842	0.049996	80.000000	nontarget	5.000000	na
71.511839	0.049996	80.000000	nontarget	6.000000	na
71.561834	0.049999	80.000000	nontarget	7.000000	na
71.611833	0.049994	80.000000	nontarget	8.000000	na
71.661827	0.049999	80.000000	nontarget	9.000000	na
71.711826	0.049991	80.000000	nontarget	10.000000	na
71.761817	0.050003	80.000000	nontarget	11.000000	na
71.811820	0.049997	80.000000	nontarget	12.000000	na
71.861817	0.049997	80.000000	nontarget	13.000000	na
71.911814	0.049995	80.000000	nontarget	14.000000	na
71.961809	0.050001	80.000000	nontarget	15.000000	na
72.011809	0.049993	80.000000	nontarget	16.000000	na
72.061803	0.050000	81.000000	nontarget	1.000000	na
72.111803	0.049995	81.000000	nontarget	2.000000	72.112480
72.161798	0.049996	81.000000	nontarget	3.000000	na
72.211793	0.050001	81.000000	nontarget	4.000000	na
72.261794	0.049992	81.000000	nontarget	5.000000	na
72.311786	0.049999	81.000000	nontarget	6.000000	na
72.361785	0.049998	81.000000	nontarget	7.000000	na
72.411782	0.049995	81.000000	nontarget	8.000000	na
72.461777	0.049997	81.000000	nontarget	9.000000	na
72.511774	0.049992	81.000000	nontarget	10.000000	na
72.561766	0.050005	81.000000	nontarget	11.000000	na
72.611770	0.049993	81.000000	nontarget	12.000000	na
72.661763	0.049998	81.000000	nontarget	13.000000	na
72.711761	0.049981	81.000000	nontarget	14.000000	na
72.761742	0.050013	81.000000	nontarget	15.000000	na
72.811755	0.049997	81.000000	nontarget	16.000000	72.843852
72.861752	0.049994	82.000000	nontarget	1.000000	72.862465
72.911746	0.049998	82.000000	nontarget	2.000000	na
72.961745	0.049999	82.000000	nontarget	3.000000	na
73.011743	0.049996	82.000000	nontarget	4.000000	na
73.061739	0.049996	82.000000	nontarget	5.000000	na
73.111735	0.049997	82.000000	nontarget	6.000000	na
73.161732	0.049996	82.000000	nontarget	7.000000	na
73.211728	0.049998	82.000000	nontarget	8.000000	na
73.261726	0.049995	82.000000	nontarget	9.000000	na
73.311721	0.049999	82.000000	nontarget	10.000000	na
73.361720	0.049997	82.000000	nontarget	11.000000	na
73.411717	0.049996	82.000000	nontarget	12.000000	na
73.461713	0.049996	82.000000	nontarget	13.000000	na
73.511708	0.049998	82.000000	nontarget	14.000000	73.527995
73.561706	0.049997	82.000000	nontarget	15.000000	na
73.611703	0.049997	82.000000	nontarget	16.000000	na
73.661700	0.049996	83.000000	nontarget	1.000000	73.662385
73.711696	0.049992	83.000000	nontarget	2.000000	na
73.761689	0.050001	83.000000	nontarget	3.000000	na
73.811690	0.049995	83.000000	nontarget	4.000000	na
73.861685	0.050001	83.000000	nontarget	5.000000	na
73.911686	0.049996	83.000000	nontarget	6.000000	na
73.961681	0.049998	83.000000	nontarget	7.000000	na
74.011679	0.049995	83.000000	nontarget	8.000000	na
74.061674	0.049996	83.000000	nontarget	9.000000	na
74.111670	0.049998	83.000000	nontarget	10.000000	na
74.161667	0.049996	83.000000	nontarget	11.000000	na
74.211664	0.049995	83.000000	nontarget	12.000000	na
74.261659	0.049999	83.000000	nontarget	13.000000	na
74.311658	0.049998	83.000000	nontarget	14.000000	74.342712
74.361657	0.049994	83.000000	nontarget	15.000000	na
74.411651	0.049999	83.000000	nontarget	16.000000	na
74.461650	0.049994	84.000000	nontarget	1.000000	74.462331
74.511645	0.049996	84.000000	nontarget	2.000000	na
74.561641	0.049996	84.000000	nontarget	3.000000	na
74.611637	0.049996	84.000000	nontarget	4.000000	na
74.661634	0.049998	84.000000	nontarget	5.000000	na
74.711632	0.049998	84.000000	nontarget	6.000000	na
74.761630	0.049997	84.000000	nontarget	7.000000	na
74.811627	0.049996	84.000000	nontarget	8.000000	na
74.861622	0.049997	84.000000	nontarget	9.000000	na
74.911620	0.049997	84.000000	nontarget	10.000000	na
74.961616	0.049996	84.000000	nontarget	11.000000	na
75.011613	0.049997	84.000000	nontarget	12.000000	75.012297
75.061609	0.049997	84.000000	nontarget	13.000000	na
75.111606	0.049997	84.000000	nontarget	14.000000	na
75.161603	0.049997	84.000000	nontarget	15.000000	na
75.211600	0.049997	84.000000	nontarget	16.000000	na
75.261598	0.049996	85.000000	nontarget	1.000000	na
75.311593	0.049998	85.000000	nontarget	2.000000	na
75.361591	0.049995	85.000000	nontarget	3.000000	na
75.411586	0.049998	85.000000	nontarget	4.000000	na
75.461584	0.049997	85.000000	nontarget	5.000000	na
75.511580	0.049995	85.000000	nontarget	6.000000	na
75.561575	0.049997	85.000000	nontarget	7.000000	na
75.611572	0.049998	85.000000	nontarget	8.000000	na
75.661570	0.049998	85.000000	nontarget	9.000000	na
75.711568	0.049996	85.000000	nontarget	10.000000	na
75.761564	0.049997	85.000000	nontarget	11.000000	na
75.811560	0.049998	85.000000	nontarget	12.000000	na
75.861559	0.049996	85.000000	nontarget	13.000000	na
75.911555	0.049998	85.000000	nontarget	14.000000	na
75.961552	0.049997	85.000000	nontarget	15.000000	75.968768
76.011550	0.049996	85.000000	nontarget	16.000000	na
76.061545	0.049996	86.000000	nontarget	1.000000	76.062226
76.111541	0.049996	86.000000	nontarget	2.000000	na
76.161537	0.049997	86.000000	nontarget	3.000000	na
76.211535	0.049997	86.000000	nontarget	4.000000	na
76.261532	0.049996	86.000000	nontarget	5.000000	na
76.311527	0.049999	86.000000	nontarget	6.000000	na
76.361526	0.049996	86.000000	nontarget	7.000000	na
76.411521	0.049998	86.000000	nontarget	8.000000	na
76.461519	0.049997	86.000000	nontarget	9.000000	na
76.511516	0.049997	86.000000	nontarget	10.000000	na
76.561513	0.049997	86.000000	nontarget	11.000000	na
76.611509	0.049996	86.000000	nontarget	12.000000	na
76.661505	0.049998	86.000000	nontarget	13.000000	na
76.711503	0.049996	86.000000	nontarget	14.000000	na
76.761499	0.049997	86.000000	nontarget	15.000000	na
76.811496	0.049997	86.000000	nontarget	16.000000	na
76.861493	0.049998	87.000000	nontarget	1.000000	na
76.911491	0.049996	87.000000	nontarget	2.000000	76.912171
76.961488	0.049999	87.000000	nontarget	3.000000	na
77.011487	0.049994	87.000000	nontarget	4.000000	na
77.061481	0.049994	87.000000	nontarget	5.000000	na
77.111475	0.049999	87.000000	nontarget	6.000000	na
77.161474	0.049996	87.000000	nontarget	7.000000	na
77.211470	0.049997	87.000000	nontarget	8.000000	na
77.261467	0.049997	87.000000	nontarget	9.000000	na
77.311465	0.050008	87.000000	nontarget	10.000000	na
77.361472	0.049991	87.000000	nontarget	11.000000	na
77.411464	0.049992	87.000000	nontarget	12.000000	na
77.461455	0.050005	87.000000	nontarget	13.000000	na
77.511461	0.050001	87.000000	nontarget	14.000000	na
77.561461	0.049992	87.000000	nontarget	15.000000	na
77.611454	0.050008	87.000000	nontarget	16.000000	na
77.661461	0.049985	88.000000	nontarget	1.000000	na
77.711447	0.049991	88.000000	nontarget	2.000000	na
77.761438	0.050002	88.000000	nontarget	3.000000	na
77.811440	0.050003	88.000000	nontarget	4.000000	na
77.861442	0.049998	88.000000	nontarget	5.000000	77.862119
77.911440	0.050001	88.000000	nontarget	6.000000	na
77.961441	0.050012	88.000000	nontarget	7.000000	na
78.011453	0.049987	88.000000	nontarget	8.000000	na
78.061440	0.050003	88.000000	nontarget	9.000000	na
78.111443	0.049988	88.000000	nontarget	10.000000	na
78.161431	0.049982	88.000000	nontarget	11.000000	na
78.211413	0.050012	88.000000	nontarget	12.000000	na
78.261425	0.049995	88.000000	nontarget	13.000000	na
78.311420	0.049982	88.000000	nontarget	14.000000	na
78.361402	0.049994	88.000000	nontarget	15.000000	na
78.411396	0.049987	88.000000	nontarget	16.000000	78.415867
78.461383	0.050002	89.000000	nontarget	1.000000	78.462087
78.511385	0.049999	89.000000	nontarget	2.000000	na
78.561383	0.050003	89.000000	nontarget	3.000000	na
78.611386	0.049998	89.000000	nontarget	4.000000	na
78.661385	0.049981	89.000000	nontarget	5.000000	na
78.711366	0.049998	89.000000	nontarget	6.000000	na
78.761364	0.050003	89.000000	nontarget	7.000000	na
78.811367	0.049996	89.000000	nontarget	8.000000	na
78.861363	0.049998	89.000000	nontarget	9.000000	na
78.911361	0.049996	89.000000	nontarget	10.000000	na
78.961357	0.050000	89.000000	nontarget	11.000000	na
79.011356	0.049995	89.000000	nontarget	12.000000	na
79.061351	0.049996	89.000000	nontarget	13.000000	na
79.111347	0.049999	89.000000	nontarget	14.000000	na
79.161346	0.049995	89.000000	nontarget	15.000000	79.162048
79.211342	0.049997	89.000000	nontarget	16.000000	na
79.261338	0.049994	90.000000	nontarget	1.000000	79.262045
79.311332	0.049999	90.000000	nontarget	2.000000	na
79.361331	0.049997	90.000000	nontarget	3.000000	na
79.411329	0.049996	90.000000	nontarget	4.000000	na
79.461325	0.049998	90.000000	nontarget	5.000000	na
79.511322	0.049997	90.000000	nontarget	6.000000	na
79.561319	0.049995	90.000000	nontarget	7.000000	na
79.611314	0.049999	90.000000	nontarget	8.000000	na
79.661314	0.049995	90.000000	nontarget	9.000000	na
79.711309	0.049997	90.000000	nontarget	10.000000	na
79.761306	0.049996	90.000000	nontarget	11.000000	na
79.811301	0.049999	90.000000	nontarget	12.000000	na
79.861301	0.049997	90.000000	nontarget	13.000000	na
79.911297	0.049995	90.000000	nontarget	14.000000	79.911999
79.961293	0.050000	90.000000	nontarget	15.000000	na
80.011293	0.049994	90.000000	nontarget	16.000000	na
80.061287	0.049996	91.000000	nontarget	1.000000	na
80.111283	0.049998	91.000000	nontarget	2.000000	na
80.161281	0.049995	91.000000	nontarget	3.000000	na
80.211276	0.049998	91.000000	nontarget	4.000000	na
80.261274	0.049997	91.000000	nontarget	5.000000	na
80.311271	0.049996	91.000000	nontarget	6.000000	na
80.361267	0.049997	91.000000	nontarget	7.000000	na
80.411264	0.049996	91.000000	nontarget	8.000000	na
80.461259	0.049996	91.000000	nontarget	9.000000	na
80.511256	0.049998	91.000000	nontarget	10.000000	na
80.561254	0.049998	91.000000	nontarget	11.000000	na
80.611252	0.049996	91.000000	nontarget	12.000000	na
80.661248	0.049995	91.000000	nontarget	13.000000	na
80.711244	0.049999	91.000000	nontarget	14.000000	80.740862
80.761243	0.049994	91.000000	nontarget	15.000000	na
80.811237	0.049997	91.000000	nontarget	16.000000	na
80.861234	0.049998	92.000000	nontarget	1.000000	80.861955
80.911231	0.049996	92.000000	nontarget	2.000000	na
80.961227	0.050001	92.000000	nontarget	3.000000	na
81.011228	0.049991	92.000000	nontarget	4.000000	na
81.061220	0.049999	92.000000	nontarget	5.000000	na
81.111219	0.049996	92.000000	nontarget	6.000000	na
81.161215	0.049998	92.000000	nontarget	7.000000	na
81.211212	0.049996	92.000000	nontarget	8.000000	na
81.261209	0.049996	92.000000	nontarget	9.000000	na
81.311204	0.049999	92.000000	nontarget	10.000000	na
81.361203	0.049998	92.000000	nontarget	11.000000	na
81.411201	0.049995	92.000000	nontarget	12.000000	na
81.461195	0.049999	92.000000	nontarget	13.000000	na
81.511194	0.049997	92.000000	nontarget	14.000000	na
81.561191	0.049995	92.000000	nontarget	15.000000	81.561919
81.611186	0.049996	92.000000	nontarget	16.000000	na
81.661182	0.049999	93.000000	nontarget	1.000000	81.661887
81.711180	0.049997	93.000000	nontarget	2.000000	na
81.761178	0.049996	93.000000	nontarget	3.000000	na
81.811173	0.049998	93.000000	nontarget	4.000000	na
81.861171	0.049996	93.000000	nontarget	5.000000	na
81.911166	0.049997	93.000000	nontarget	6.000000	na
81.961164	0.049999	93.000000	nontarget	7.000000	na
82.011163	0.049994	93.000000	nontarget	8.000000	na
82.061157	0.049996	93.000000	nontarget	9.000000	na
82.111154	0.049997	93.000000	nontarget	10.000000	na
82.161151	0.049996	93.000000	nontarget	11.000000	na
82.211147	0.049998	93.000000	nontarget	12.000000	na
82.261145	0.049994	93.000000	nontarget	13.000000	na
82.311139	0.049999	93.000000	nontarget	14.000000	na
82.361139	0.049997	93.000000	nontarget	15.000000	na
82.411136	0.049999	93.000000	nontarget	16.000000	na
82.461135	0.049993	94.000000	nontarget	1.000000	82.461850
82.511128	0.049998	94.000000	nontarget	2.000000	na
82.561127	0.049995	94.000000	nontarget	3.000000	na
82.611121	0.049998	94.000000	nontarget	4.000000	na
82.661119	0.049997	94.000000	nontarget	5.000000	na
82.711116	0.049996	94.000000	nontarget	6.000000	na
82.761112	0.049996	94.000000	nontarget	7.000000	na
82.811109	0.049997	94.000000	nontarget	8.000000	na
82.861106	0.049996	94.000000	nontarget	9.000000	na
82.911102	0.049997	94.000000	nontarget	10.000000	na
82.961099	0.050000	94.000000	nontarget	11.000000	na
83.011099	0.049994	94.000000	nontarget	12.000000	na
83.061093	0.049999	94.000000	nontarget	13.000000	na
83.111092	0.049995	94.000000	nontarget	14.000000	na
83.161087	0.049996	94.000000	nontarget	15.000000	na
83.211083	0.049997	94.000000	nontarget	16.000000	na
83.261080	0.049997	95.000000	nontarget	1.000000	83.269644
83.311077	0.049996	95.000000	nontarget	2.000000	na
83.361072	0.049998	95.000000	nontarget	3.000000	na
83.411070	0.049997	95.000000	nontarget	4.000000	na
83.461067	0.049996	95.000000	nontarget	5.000000	na
83.511063	0.049998	95.000000	nontarget	6.000000	na
83.561061	0.049997	95.000000	nontarget	7.000000	na
83.611058	0.049996	95.000000	nontarget	8.000000	na
83.661054	0.049995	95.000000	nontarget	9.000000	na
83.711049	0.049999	95.000000	nontarget	10.000000	na
83.761048	0.049996	95.000000	nontarget	11.000000	na
83.811044	0.049996	95.000000	nontarget	12.000000	na
83.861040	0.049998	95.000000	nontarget	13.000000	na
83.911038	0.049996	95.000000	nontarget	14.000000	na
83.961035	0.049999	95.000000	nontarget	15.000000	na
84.011034	0.049993	95.000000	nontarget	16.000000	na
84.061028	0.049997	96.000000	nontarget	1.000000	na
84.111024	0.049997	96.000000	nontarget	2.000000	na
84.161021	0.049997	96.000000	nontarget	3.000000	84.182677
84.211018	0.049996	96.000000	nontarget	4.000000	na
84.261014	0.049997	96.000000	nontarget	5.000000	na
84.311011	0.049984	96.000000	nontarget	6.000000	na
84.360995	0.050011	96.000000	nontarget	7.000000	na
84.411006	0.049996	96.000000	nontarget	8.000000	na
84.461002	0.049998	96.000000	nontarget	9.000000	na
84.511000	0.049995	96.000000	nontarget	10.000000	na
84.560995	0.049997	96.000000	nontarget	11.000000	na
84.610992	0.049998	96.000000	nontarget	12.000000	na
84.660990	0.049997	96.000000	nontarget	13.000000	na
84.710987	0.049997	96.000000	nontarget	14.000000	na
84.760984	0.049996	96.000000	nontarget	15.000000	na
84.810980	0.049996	96.000000	nontarget	16.000000	na
84.860976	0.049998	97.000000	nontarget	1.000000	na
84.910973	0.049997	97.000000	nontarget	2.000000	na
84.960971	0.050000	97.000000	nontarget	3.000000	na
85.010971	0.049993	97.000000	nontarget	4.000000	na
85.060964	0.049996	97.000000	nontarget	5.000000	85.063713
85.110960	0.049996	97.000000	nontarget	6.000000	na
85.160957	0.049996	97.000000	nontarget	7.000000	na
85.210953	0.049998	97.000000	nontarget	8.000000	na
85.260951	0.049996	97.000000	nontarget	9.000000	na
85.310947	0.049997	97.000000	nontarget	10.000000	na
85.360944	0.049998	97.000000	nontarget	11.000000	na
85.410942	0.049997	97.000000	nontarget	12.000000	na
85.460939	0.049996	97.000000	nontarget	13.000000	na
85.510935	0.049996	97.000000	nontarget	14.000000	na
85.560931	0.049996	97.000000	nontarget	15.000000	na
85.610928	0.049998	97.000000	nontarget	16.000000	na
85.660926	0.049995	98.000000	nontarget	1.000000	na
85.710921	0.049999	98.000000	nontarget	2.000000	na
85.760919	0.049996	98.000000	nontarget	3.000000	85.769862
85.810915	0.049996	98.000000	nontarget	4.000000	na
85.860911	0.049997	98.000000	nontarget	5.000000	na
85.910908	0.049998	98.000000	nontarget	6.000000	na
85.960906	0.050000	98.000000	nontarget	7.000000	na
86.010906	0.049994	98.000000	nontarget	8.000000	na
86.060900	0.049996	98.000000	nontarget	9.000000	na
86.110896	0.049998	98.000000	nontarget	10.000000	na
86.160893	0.049996	98.000000	nontarget	11.000000	na
86.210889	0.049996	98.000000	nontarget	12.000000	na
86.260885	0.049997	98.000000	nontarget	13.000000	na
86.310883	0.049997	98.000000	nontarget	14.000000	na
86.360880	0.049997	98.000000	nontarget	15.000000	na
86.410877	0.049998	98.000000	nontarget	16.000000	na
86.460875	0.049995	99.000000	nontarget	1.000000	na
86.510870	0.049998	99.000000	nontarget	2.000000	na
86.560868	0.049996	99.000000	nontarget	3.000000	na
86.610864	0.050002	99.000000	nontarget	4.000000	na
86.660866	0.049991	99.000000	nontarget	5.000000	86.661546
86.710857	0.049998	99.000000	nontarget	6.000000	na
86.760855	0.049998	99.000000	nontarget	7.000000	na
86.810853	0.049994	99.000000	nontarget	8.000000	na
86.860847	0.049997	99.000000	nontarget	9.000000	na
86.910844	0.049996	99.000000	nontarget	10.000000	na
86.960840	0.050002	99.000000	nontarget	11.000000	na
87.010843	0.049996	99.000000	nontarget	12.000000	na
87.060838	0.049993	99.000000	nontarget	13.000000	na
87.110831	0.049996	99.000000	nontarget	14.000000	na
87.160827	0.050009	99.000000	nontarget	15.000000	na
87.210836	0.049985	99.000000	nontarget	16.000000	na
87.260821	0.050018	100.000000	nontarget	1.000000	na
87.310840	0.049965	100.000000	nontarget	2.000000	na
87.360805	0.050003	100.000000	nontarget	3.000000	na
87.410809	0.050000	100.000000	nontarget	4.000000	na
87.460809	0.049992	100.000000	nontarget	5.000000	na
87.510801	0.049999	100.000000	nontarget	6.000000	na
87.560800	0.050002	100.000000	nontarget	7.000000	na
87.610802	0.050012	100.000000	nontarget	8.000000	87.611487
87.660814	0.049979	100.000000	nontarget	9.000000	na
87.710792	0.050012	100.000000	nontarget	10.000000	na
87.760804	0.049982	100.000000	nontarget	11.000000	na
87.810786	0.049998	100.000000	nontarget	12.000000	na
87.860784	0.049995	100.000000	nontarget	13.000000	na
87.910779	0.050009	100.000000	nontarget	14.000000	na
87.960788	0.049996	100.000000	nontarget	15.000000	na
88.010785	0.049986	100.000000	nontarget	16.000000	na
88.060770	0.050001	101.000000	nontarget	1.000000	na
88.110771	0.049986	101.000000	nontarget	2.000000	na
88.160757	0.049997	101.000000	nontarget	3.000000	88.189825
88.210754	0.049997	101.000000	nontarget	4.000000	na
88.260751	0.050002	101.000000	nontarget	5.000000	na
88.310753	0.049996	101.000000	nontarget	6.000000	na
88.360749	0.049999	101.000000	nontarget	7.000000	na
88.410748	0.049995	101.000000	nontarget	8.000000	na
88.460743	0.049997	101.000000	nontarget	9.000000	na
88.510740	0.049997	101.000000	nontarget	10.000000	na
88.560737	0.049997	101.000000	nontarget	11.000000	na
88.610734	0.049997	101.000000	nontarget	12.000000	na
88.660732	0.049998	101.000000	nontarget	13.000000	na
88.710729	0.049996	101.000000	nontarget	14.000000	na
88.760725	0.049996	101.000000	nontarget	15.000000	na
88.810721	0.049997	101.000000	nontarget	16.000000	88.818550
88.860719	0.049996	102.000000	nontarget	1.000000	88.861406
88.910714	0.049997	102.000000	nontarget	2.000000	na
88.960712	0.049998	102.000000	nontarget	3.000000	na
89.010710	0.049994	102.000000	nontarget	4.000000	na
89.060704	0.049998	102.000000	nontarget	5.000000	na
89.110702	0.049996	102.000000	nontarget	6.000000	na
89.160699	0.049997	102.000000	nontarget	7.000000	na
89.210696	0.049996	102.000000	nontarget	8.000000	na
89.260692	0.049997	102.000000	nontarget	9.000000	na
89.310690	0.049995	102.000000	nontarget	10.000000	na
89.360685	0.049998	102.000000	nontarget	11.000000	na
89.410683	0.049997	102.000000	nontarget	12.000000	na
89.460680	0.049996	102.000000	nontarget	13.000000	na
89.510676	0.049996	102.000000	nontarget	14.000000	na
89.560673	0.049999	102.000000	nontarget	15.000000	na
89.610672	0.049996	102.000000	nontarget	16.000000	89.611360
89.660668	0.049996	103.000000	nontarget	1.000000	89.661378
89.710664	0.049998	103.000000	nontarget	2.000000	na
89.760662	0.049994	103.000000	nontarget	3.000000	na
89.810657	0.049997	103.000000	nontarget	4.000000	na
89.860653	0.049997	103.000000	nontarget	5.000000	na
89.910650	0.049996	103.000000	nontarget	6.000000	na
89.960647	0.050002	103.000000	nontarget	7.000000	na
90.010648	0.049993	103.000000	nontarget	8.000000	na
90.060641	0.049996	103.000000	nontarget	9.000000	na
90.110637	0.049998	103.000000	nontarget	10.000000	na
90.160635	0.049996	103.000000	nontarget	11.000000	na
90.210630	0.049996	103.000000	nontarget	12.000000	na
90.260626	0.049998	103.000000	nontarget	13.000000	90.279514
90.310624	0.049998	103.000000	nontarget	14.000000	na
90.360622	0.049995	103.000000	nontarget	15.000000	na
90.410618	0.049998	103.000000	nontarget	16.000000	na
90.460615	0.049996	104.000000	nontarget	1.000000	na
90.510612	0.049997	104.000000	nontarget	2.000000	na
90.560609	0.049997	104.000000	nontarget	3.000000	na
90.610605	0.049996	104.000000	nontarget	4.000000	na
90.660601	0.049998	104.000000	nontarget	5.000000	na
90.710599	0.049997	104.000000	nontarget	6.000000	na
90.760596	0.049998	104.000000	nontarget	7.000000	na
90.810593	0.049996	104.000000	nontarget	8.000000	na
90.860589	0.049996	104.000000	nontarget	9.000000	na
90.910585	0.049997	104.000000	nontarget	10.000000	na
90.960583	0.049999	104.000000	nontarget	11.000000	na
91.010582	0.049993	104.000000	nontarget	12.000000	na
91.060575	0.049998	104.000000	nontarget	13.000000	na
91.110574	0.049997	104.000000	nontarget	14.000000	na
91.160571	0.049996	104.000000	nontarget	15.000000	na
91.210567	0.049995	104.000000	nontarget	16.000000	na
91.260562	0.049997	105.000000	nontarget	1.000000	91.273589
91.310559	0.049999	105.000000	nontarget	2.000000	na
91.360557	0.049996	105.000000	nontarget	3.000000	na
91.410554	0.049996	105.000000	nontarget	4.000000	na
91.460549	0.049999	105.000000	nontarget	5.000000	na
91.510548	0.049997	105.000000	nontarget	6.000000	na
91.560545	0.049996	105.000000	nontarget	7.000000	na
91.610541	0.049997	105.000000	nontarget	8.000000	na
91.660538	0.049996	105.000000	nontarget	9.000000	na
91.710534	0.049996	105.000000	nontarget	10.000000	na
91.760531	0.049997	105.000000	nontarget	11.000000	na
91.810528	0.049997	105.000000	nontarget	12.000000	na
91.860525	0.049997	105.000000	nontarget	13.000000	na
91.910522	0.049997	105.000000	nontarget	14.000000	na
91.960519	0.049999	105.000000	nontarget	15.000000	na
92.010517	0.049994	105.000000	nontarget	16.000000	na
92.060511	0.049996	106.000000	target	1.000000	na
92.110508	0.049997	106.000000	target	2.000000	na
92.160505	0.049998	106.000000	target	3.000000	na
92.210503	0.049996	106.000000	target	4.000000	na
92.260498	0.049998	106.000000	target	5.000000	na
92.310496	0.049998	106.000000	target	6.000000	na
92.360493	0.049994	106.000000	target	7.000000	na
92.410487	0.049998	106.000000	target	8.000000	na
92.460485	0.049998	106.000000	target	9.000000	na
92.510483	0.049998	106.000000	target	10.000000	na
92.560482	0.049995	106.000000	target	11.000000	na
92.610477	0.049986	106.000000	target	12.000000	na
92.660463	0.050007	106.000000	target	13.000000	na
92.710470	0.049996	106.000000	target	14.000000	na
92.760466	0.049997	106.000000	target	15.000000	na
92.810463	0.049996	106.000000	target	16.000000	na
92.860460	0.049998	107.000000	nontarget	1.000000	92.878797
92.910458	0.049994	107.000000	nontarget	2.000000	na
92.960452	0.050003	107.000000	nontarget	3.000000	na
93.010455	0.049992	107.000000	nontarget	4.000000	na
93.060447	0.049997	107.000000	nontarget	5.000000	na
93.110444	0.049997	107.000000	nontarget	6.000000	na
93.160441	0.049996	107.000000	nontarget	7.000000	na
93.210437	0.049998	107.000000	nontarget	8.000000	na
93.260435	0.049996	107.000000	nontarget	9.000000	na
93.310431	0.049998	107.000000	nontarget	10.000000	na
93.360428	0.049996	107.000000	nontarget	11.000000	na
93.410425	0.049996	107.000000	nontarget	12.000000	na
93.460421	0.049997	107.000000	nontarget	13.000000	na
93.510418	0.049997	107.000000	nontarget	14.000000	na
93.560415	0.049997	107.000000	nontarget	15.000000	na
93.610411	0.049998	107.000000	nontarget	16.000000	na
93.660409	0.049995	108.000000	nontarget	1.000000	na
93.710404	0.049997	108.000000	nontarget	2.000000	na
93.760401	0.049997	108.000000	nontarget	3.000000	na
93.810398	0.049997	108.000000	nontarget	4.000000	na
93.860395	0.049996	108.000000	nontarget	5.000000	93.866482
93.910391	0.049997	108.000000	nontarget	6.000000	na
93.960388	0.050000	108.000000	nontarget	7.000000	na
94.010388	0.049995	108.000000	nontarget	8.000000	na
94.060383	0.049997	108.000000	nontarget	9.000000	na
94.110380	0.049996	108.000000	nontarget	10.000000	na
94.160376	0.049996	108.000000	nontarget	11.000000	na
94.210373	0.049997	108.000000	nontarget	12.000000	na
94.260370	0.049994	108.000000	nontarget	13.000000	na
94.310365	0.049998	108.000000	nontarget	14.000000	na
94.360362	0.049997	108.000000	nontarget	15.000000	na
94.410360	0.050000	108.000000	nontarget	16.000000	na
94.460359	0.049995	109.000000	nontarget	1.000000	na
94.510354	0.049993	109.000000	nontarget	2.000000	94.542812
94.560347	0.050001	109.000000	nontarget	3.000000	na
94.610347	0.049999	109.000000	nontarget	4.000000	na
94.660346	0.049998	109.000000	nontarget	5.000000	na
94.710344	0.049993	109.000000	nontarget	6.000000	na
94.760337	0.049996	109.000000	nontarget	7.000000	na
94.810333	0.049999	109.000000	nontarget	8.000000	na
94.860332	0.049996	109.000000	nontarget	9.000000	na
94.910327	0.049996	109.000000	nontarget	10.000000	na
94.960323	0.050002	109.000000	nontarget	11.000000	na
95.010325	0.049994	109.000000	nontarget	12.000000	na
95.060319	0.049996	109.000000	nontarget	13.000000	na
95.110314	0.049997	109.000000	nontarget	14.000000	na
95.160312	0.049997	109.000000	nontarget	15.000000	na
95.210309	0.049999	109.000000	nontarget	16.000000	na
95.260308	0.049993	110.000000	nontarget	1.000000	95.260985
95.310301	0.049998	110.000000	nontarget	2.000000	na
95.360299	0.049997	110.000000	nontarget	3.000000	na
95.410296	0.049996	110.000000	nontarget	4.000000	na
95.460292	0.049998	110.000000	nontarget	5.000000	na
95.510291	0.049996	110.000000	nontarget	6.000000	na
95.560286	0.049997	110.000000	nontarget	7.000000	na
95.610283	0.049996	110.000000	nontarget	8.000000	na
95.660279	0.049996	110.000000	nontarget	9.000000	na
95.710275	0.049999	110.000000	nontarget	10.000000	na
95.760273	0.049998	110.000000	nontarget	11.000000	na
95.810271	0.049995	110.000000	nontarget	12.000000	na
95.860266	0.049998	110.000000	nontarget	13.000000	na
95.910264	0.049996	110.000000	nontarget	14.000000	na
95.960260	0.050000	110.000000	nontarget	15.000000	na
96.010259	0.049994	110.000000	nontarget	16.000000	96.010938
96.060254	0.049996	111.000000	nontarget	1.000000	96.060930
96.110250	0.050002	111.000000	nontarget	2.000000	na
96.160251	0.049994	111.000000	nontarget	3.000000	na
96.210245	0.049996	111.000000	nontarget	4.000000	na
96.260241	0.049996	111.000000	nontarget	5.000000	na
96.310237	0.049999	111.000000	nontarget	6.000000	na
96.360236	0.049994	111.000000	nontarget	7.000000	na
96.410230	0.049998	111.000000	nontarget	8.000000	na
96.460227	0.050001	111.000000	nontarget	9.000000	na
96.510229	0.049993	111.000000	nontarget	10.000000	na
96.560221	0.049997	111.000000	nontarget	11.000000	na
96.610218	0.050000	111.000000	nontarget	12.000000	na
96.660219	0.049993	111.000000	nontarget	13.000000	96.660900
96.710212	0.050041	111.000000	nontarget	14.000000	na
96.760253	0.049977	111.000000	nontarget	15.000000	na
96.810229	0.050005	111.000000	nontarget	16.000000	na
96.860234	0.049993	112.000000	nontarget	1.000000	na
96.910227	0.049990	112.000000	nontarget	2.000000	na
96.960217	0.050011	112.000000	nontarget	3.000000	na
97.010228	0.049970	112.000000	nontarget	4.000000	na
97.060198	0.049998	112.000000	nontarget	5.000000	na
97.110196	0.049999	112.000000	nontarget	6.000000	na
97.160194	0.049997	112.000000	nontarget	7.000000	na
97.210192	0.049994	112.000000	nontarget	8.000000	na
97.260186	0.049986	112.000000	nontarget	9.000000	na
97.310172	0.049990	112.000000	nontarget	10.000000	na
97.360163	0.050001	112.000000	nontarget	11.000000	na
97.410164	0.049997	112.000000	nontarget	12.000000	na
97.460161	0.050000	112.000000	nontarget	13.000000	97.472468
97.510162	0.050000	112.000000	nontarget	14.000000	na
97.560162	0.049986	112.000000	nontarget	15.000000	na
97.610148	0.049996	112.000000	nontarget	16.000000	na
97.660144	0.049997	113.000000	nontarget	1.000000	na
97.710141	0.050002	113.000000	nontarget	2.000000	na
97.760143	0.049997	113.000000	nontarget	3.000000	na
97.810140	0.049997	113.000000	nontarget	4.000000	na
97.860137	0.049997	113.000000	nontarget	5.000000	na
97.910134	0.049997	113.000000	nontarget	6.000000	na
97.960131	0.049999	113.000000	nontarget	7.000000	na
98.010131	0.049994	113.000000	nontarget	8.000000	na
98.060125	0.049996	113.000000	nontarget	9.000000	na
98.110121	0.049996	113.000000	nontarget	10.000000	na
98.160117	0.049998	113.000000	nontarget	11.000000	na
98.210115	0.049996	113.000000	nontarget	12.000000	98.242664
98.260111	0.049997	113.000000	nontarget	13.000000	na
98.310108	0.049997	113.000000	nontarget	14.000000	na
98.360105	0.049998	113.000000	nontarget	15.000000	na
98.410103	0.049996	113.000000	nontarget	16.000000	na
98.460098	0.049997	114.000000	nontarget	1.000000	na
98.510095	0.049996	114.000000	nontarget	2.000000	na
98.560091	0.049997	114.000000	nontarget	3.000000	na
98.610088	0.049996	114.000000	nontarget	4.000000	na
98.660085	0.049998	114.000000	nontarget	5.000000	na
98.710083	0.049996	114.000000	nontarget	6.000000	na
98.760079	0.049997	114.000000	nontarget	7.000000	na
98.810076	0.049996	114.000000	nontarget	8.000000	na
98.860072	0.049998	114.000000	nontarget	9.000000	na
98.910070	0.049995	114.000000	nontarget	10.000000	na
98.960065	0.050001	114.000000	nontarget	11.000000	na
99.010066	0.049992	114.000000	nontarget	12.000000	na
99.060058	0.049998	114.000000	nontarget	13.000000	na
99.110056	0.049998	114.000000	nontarget	14.000000	99.134321
99.160054	0.049996	114.000000	nontarget	15.000000	na
99.210050	0.049998	114.000000	nontarget	16.000000	na
99.260047	0.049997	115.000000	nontarget	1.000000	99.260716
99.310045	0.049995	115.000000	nontarget	2.000000	na
99.360039	0.049997	115.000000	nontarget	3.000000	na
99.410037	0.049997	115.000000	nontarget	4.000000	na
99.460033	0.049998	115.000000	nontarget	5.000000	na
99.510032	0.049995	115.000000	nontarget	6.000000	na
99.560027	0.049996	115.000000	nontarget	7.000000	na
99.610023	0.049999	115.000000	nontarget	8.000000	na
99.660022	0.049995	115.000000	nontarget	9.000000	na
99.710017	0.049998	115.000000	nontarget	10.000000	na
99.760015	0.049996	115.000000	nontarget	11.000000	na
99.810011	0.049996	115.000000	nontarget	12.000000	na
99.860007	0.049998	115.000000	nontarget	13.000000	na
99.910005	0.049996	115.000000	nontarget	14.000000	na
99.960000	0.050000	115.000000	nontarget	15.000000	na
100.010001	0.049994	115.000000	nontarget	16.000000	na
100.059995	0.049999	116.000000	nontarget	1.000000	na
100.109993	0.049996	116.000000	nontarget	2.000000	100.110693
100.159989	0.049997	116.000000	nontarget	3.000000	na
100.209986	0.049995	116.000000	nontarget	4.000000	na
100.259980	0.049998	116.000000	nontarget	5.000000	na
100.309978	0.049997	116.000000	nontarget	6.000000	na
100.359975	0.049997	116.000000	nontarget	7.000000	na
100.409972	0.049996	116.000000	nontarget	8.000000	na
100.459968	0.049996	116.000000	nontarget	9.000000	na
100.509964	0.049998	116.000000	nontarget	10.000000	na
100.559962	0.049998	116.000000	nontarget	11.000000	na
100.609960	0.049996	116.000000	nontarget	12.000000	na
100.659956	0.049996	116.000000	nontarget	13.000000	na
100.709952	0.049998	116.000000	nontarget	14.000000	na
100.759950	0.049996	116.000000	nontarget	15.000000	na
100.809946	0.049997	116.000000	nontarget	16.000000	na
100.859942	0.049996	117.000000	nontarget	1.000000	na
100.909939	0.050000	117.000000	nontarget	2.000000	na
100.959939	0.049998	117.000000	nontarget	3.000000	100.960633
101.009937	0.049993	117.000000	nontarget	4.000000	na
101.059930	0.049998	117.000000	nontarget	5.000000	na
101.109928	0.049997	117.000000	nontarget	6.000000	na
101.159925	0.049996	117.000000	nontarget	7.000000	na
101.209921	0.049998	117.000000	nontarget	8.000000	na
101.259919	0.049995	117.000000	nontarget	9.000000	na
101.309914	0.049985	117.000000	nontarget	10.000000	na
101.359899	0.050009	117.000000	nontarget	11.000000	na
101.409907	0.049997	117.000000	nontarget	12.000000	na
101.459904	0.049998	117.000000	nontarget	13.000000	na
101.509902	0.049996	117.000000	nontarget	14.000000	na
101.559898	0.049996	117.000000	nontarget	15.000000	na
101.609895	0.049998	117.000000	nontarget	16.000000	na
101.659892	0.049995	118.000000	nontarget	1.000000	na
101.709887	0.049993	118.000000	nontarget	2.000000	101.730785
101.759880	0.050002	118.000000	nontarget	3.000000	na
101.809882	0.049998	118.000000	nontarget	4.000000	na
101.859879	0.049996	118.000000	nontarget	5.000000	na
101.909875	0.049996	118.000000	nontarget	6.000000	na
101.959872	0.050002	118.000000	nontarget	7.000000	na
102.009874	0.049992	118.000000	nontarget	8.000000	na
102.059865	0.049996	118.000000	nontarget	9.000000	na
102.109862	0.049997	118.000000	nontarget	10.000000	na
102.159859	0.049998	118.000000	nontarget	11.000000	na
102.209857	0.049996	118.000000	nontarget	12.000000	na
102.259853	0.049997	118.000000	nontarget	13.000000	na
102.309850	0.049997	118.000000	nontarget	14.000000	na
102.359847	0.049996	118.000000	nontarget	15.000000	na
102.409843	0.049997	118.000000	nontarget	16.000000	na
102.459840	0.049997	119.000000	target	1.000000	na
102.509837	0.049997	119.000000	target	2.000000	na
102.559834	0.049996	119.000000	target	3.000000	na
102.609830	0.049997	119.000000	target	4.000000	na
102.659827	0.050000	119.000000	target	5.000000	na
102.709827	0.049994	119.000000	target	6.000000	na
102.759821	0.049996	119.000000	target	7.000000	na
102.809817	0.049998	119.000000	target	8.000000	na
102.859815	0.049996	119.000000	target	9.000000	na
102.909811	0.049997	119.000000	target	10.000000	na
102.959808	0.050000	119.000000	target	11.000000	na
103.009807	0.049996	119.000000	target	12.000000	na
103.059803	0.049994	119.000000	target	13.000000	na
103.109798	0.049997	119.000000	target	14.000000	na
103.159795	0.049996	119.000000	target	15.000000	na
103.209791	0.049998	119.000000	target	16.000000	na
103.259788	0.049997	120.000000	target	1.000000	na
103.309786	0.049996	120.000000	target	2.000000	na
103.359781	0.049998	120.000000	target	3.000000	na
103.409779	0.049996	120.000000	target	4.000000	na
103.459774	0.049997	120.000000	target	5.000000	na
103.509772	0.049997	120.000000	target	6.000000	na
103.559769	0.049998	120.000000	target	7.000000	na
103.609767	0.049995	120.000000	target	8.000000	na
103.659762	0.049997	120.000000	target	9.000000	na
103.709759	0.049996	120.000000	target	10.000000	na
103.759756	0.049998	120.000000	target	11.000000	na
103.809754	0.049996	120.000000	target	12.000000	na
103.859750	0.049996	120.000000	target	13.000000	na
103.909747	0.049998	120.000000	target	14.000000	na
103.959744	0.049998	120.000000	target	15.000000	na
104.009743	0.049994	120.000000	target	16.000000	na
104.059737	0.049997	121.000000	target	1.000000	na
104.109733	0.049994	121.000000	target	2.000000	na
