onset	duration	trial_number	trial_type	frame_number	time_of_response
8.066277	0.049726	1.000000	nontarget	1.000000	na
8.116003	0.049737	1.000000	nontarget	2.000000	na
8.165741	0.049753	1.000000	nontarget	3.000000	na
8.215493	0.049991	1.000000	nontarget	4.000000	na
8.265485	0.050750	1.000000	nontarget	5.000000	na
8.316235	0.049874	1.000000	nontarget	6.000000	na
8.366109	0.049715	1.000000	nontarget	7.000000	na
8.415824	0.049929	1.000000	nontarget	8.000000	na
8.465753	0.050689	1.000000	nontarget	9.000000	na
8.516442	0.049418	1.000000	nontarget	10.000000	na
8.565860	0.050565	1.000000	nontarget	11.000000	na
8.616425	0.049630	1.000000	nontarget	12.000000	na
8.666055	0.050379	1.000000	nontarget	13.000000	na
8.716434	0.050297	1.000000	nontarget	14.000000	na
8.766731	0.048838	1.000000	nontarget	15.000000	8.772637
8.815569	0.050847	1.000000	nontarget	16.000000	na
8.866416	0.049813	2.000000	nontarget	1.000000	8.873029
8.916229	0.049998	2.000000	nontarget	2.000000	na
8.966227	0.050039	2.000000	nontarget	3.000000	na
9.016266	0.050023	2.000000	nontarget	4.000000	na
9.066290	0.049764	2.000000	nontarget	5.000000	na
9.116053	0.049692	2.000000	nontarget	6.000000	na
9.165745	0.050431	2.000000	nontarget	7.000000	na
9.216177	0.050040	2.000000	nontarget	8.000000	na
9.266217	0.050003	2.000000	nontarget	9.000000	na
9.316220	0.049366	2.000000	nontarget	10.000000	na
9.365586	0.050618	2.000000	nontarget	11.000000	na
9.416203	0.050004	2.000000	nontarget	12.000000	na
9.466207	0.050016	2.000000	nontarget	13.000000	na
9.516224	0.049981	2.000000	nontarget	14.000000	na
9.566205	0.050323	2.000000	nontarget	15.000000	9.589951
9.616528	0.049668	2.000000	nontarget	16.000000	na
9.666196	0.049996	3.000000	nontarget	1.000000	9.672673
9.716191	0.050015	3.000000	nontarget	2.000000	na
9.766206	0.049244	3.000000	nontarget	3.000000	na
9.815450	0.050791	3.000000	nontarget	4.000000	na
9.866241	0.049969	3.000000	nontarget	5.000000	na
9.916210	0.050209	3.000000	nontarget	6.000000	na
9.966419	0.049878	3.000000	nontarget	7.000000	na
10.016297	0.049297	3.000000	nontarget	8.000000	na
10.065595	0.050805	3.000000	nontarget	9.000000	na
10.116400	0.049802	3.000000	nontarget	10.000000	na
10.166201	0.049441	3.000000	nontarget	11.000000	10.202109
10.215643	0.050633	3.000000	nontarget	12.000000	na
10.266276	0.049842	3.000000	nontarget	13.000000	na
10.316118	0.050288	3.000000	nontarget	14.000000	na
10.366406	0.050079	3.000000	nontarget	15.000000	na
10.416485	0.049633	3.000000	nontarget	16.000000	na
10.466117	0.050197	4.000000	nontarget	1.000000	na
10.516315	0.049406	4.000000	nontarget	2.000000	na
10.565721	0.049980	4.000000	nontarget	3.000000	na
10.615701	0.050156	4.000000	nontarget	4.000000	na
10.665857	0.050586	4.000000	nontarget	5.000000	na
10.716442	0.049733	4.000000	nontarget	6.000000	na
10.766176	0.050134	4.000000	nontarget	7.000000	na
10.816309	0.050102	4.000000	nontarget	8.000000	na
10.866411	0.049022	4.000000	nontarget	9.000000	na
10.915433	0.050732	4.000000	nontarget	10.000000	na
10.966165	0.049734	4.000000	nontarget	11.000000	na
11.015899	0.050310	4.000000	nontarget	12.000000	na
11.066208	0.049967	4.000000	nontarget	13.000000	11.097491
11.116175	0.050032	4.000000	nontarget	14.000000	na
11.166207	0.049901	4.000000	nontarget	15.000000	na
11.216107	0.050380	4.000000	nontarget	16.000000	na
11.266487	0.049674	5.000000	nontarget	1.000000	na
11.316161	0.049980	5.000000	nontarget	2.000000	na
11.366141	0.049999	5.000000	nontarget	3.000000	na
11.416140	0.050190	5.000000	nontarget	4.000000	na
11.466330	0.049826	5.000000	nontarget	5.000000	na
11.516156	0.050048	5.000000	nontarget	6.000000	na
11.566204	0.050008	5.000000	nontarget	7.000000	na
11.616212	0.050084	5.000000	nontarget	8.000000	na
11.666297	0.049797	5.000000	nontarget	9.000000	na
11.716094	0.049391	5.000000	nontarget	10.000000	na
11.765485	0.050411	5.000000	nontarget	11.000000	na
11.815896	0.050292	5.000000	nontarget	12.000000	na
11.866188	0.049285	5.000000	nontarget	13.000000	11.894537
11.915474	0.050666	5.000000	nontarget	14.000000	na
11.966140	0.049935	5.000000	nontarget	15.000000	na
12.016075	0.050092	5.000000	nontarget	16.000000	na
12.066167	0.050014	6.000000	nontarget	1.000000	12.072629
12.116182	0.049986	6.000000	nontarget	2.000000	na
12.166168	0.049952	6.000000	nontarget	3.000000	na
12.216120	0.049414	6.000000	nontarget	4.000000	na
12.265534	0.050642	6.000000	nontarget	5.000000	na
12.316176	0.049816	6.000000	nontarget	6.000000	na
12.365992	0.050115	6.000000	nontarget	7.000000	na
12.416106	0.050029	6.000000	nontarget	8.000000	na
12.466135	0.049860	6.000000	nontarget	9.000000	na
12.515995	0.050195	6.000000	nontarget	10.000000	na
12.566190	0.049798	6.000000	nontarget	11.000000	na
12.615988	0.050384	6.000000	nontarget	12.000000	na
12.666372	0.049986	6.000000	nontarget	13.000000	na
12.716358	0.049354	6.000000	nontarget	14.000000	na
12.765712	0.049750	6.000000	nontarget	15.000000	na
12.815462	0.050719	6.000000	nontarget	16.000000	12.821948
12.866181	0.050000	7.000000	nontarget	1.000000	12.872651
12.916182	0.050278	7.000000	nontarget	2.000000	na
12.966460	0.048962	7.000000	nontarget	3.000000	na
13.015422	0.050659	7.000000	nontarget	4.000000	na
13.066081	0.050094	7.000000	nontarget	5.000000	na
13.116176	0.049985	7.000000	nontarget	6.000000	na
13.166160	0.049991	7.000000	nontarget	7.000000	na
13.216151	0.049990	7.000000	nontarget	8.000000	na
13.266141	0.049736	7.000000	nontarget	9.000000	na
13.315877	0.050054	7.000000	nontarget	10.000000	na
13.365931	0.050175	7.000000	nontarget	11.000000	na
13.416106	0.049857	7.000000	nontarget	12.000000	na
13.465963	0.049519	7.000000	nontarget	13.000000	na
13.515483	0.050445	7.000000	nontarget	14.000000	na
13.565927	0.050242	7.000000	nontarget	15.000000	13.602101
13.616170	0.049980	7.000000	nontarget	16.000000	na
13.666150	0.049761	8.000000	nontarget	1.000000	13.672609
13.715911	0.050098	8.000000	nontarget	2.000000	na
13.766009	0.050131	8.000000	nontarget	3.000000	na
13.816140	0.050027	8.000000	nontarget	4.000000	na
13.866168	0.049973	8.000000	nontarget	5.000000	na
13.916141	0.049608	8.000000	nontarget	6.000000	na
13.965749	0.049893	8.000000	nontarget	7.000000	13.972208
14.015642	0.050060	8.000000	nontarget	8.000000	na
14.065701	0.050311	8.000000	nontarget	9.000000	na
14.116012	0.050433	8.000000	nontarget	10.000000	na
14.166446	0.049652	8.000000	nontarget	11.000000	na
14.216097	0.049862	8.000000	nontarget	12.000000	na
14.265960	0.050163	8.000000	nontarget	13.000000	na
14.316123	0.049382	8.000000	nontarget	14.000000	na
14.365505	0.050595	8.000000	nontarget	15.000000	na
14.416100	0.049841	8.000000	nontarget	16.000000	na
14.465941	0.049958	9.000000	nontarget	1.000000	na
14.515899	0.049944	9.000000	nontarget	2.000000	14.523083
14.565843	0.050050	9.000000	nontarget	3.000000	na
14.615893	0.050212	9.000000	nontarget	4.000000	na
14.666105	0.049659	9.000000	nontarget	5.000000	na
14.715764	0.049821	9.000000	nontarget	6.000000	na
14.765585	0.050497	9.000000	nontarget	7.000000	na
14.816081	0.050118	9.000000	nontarget	8.000000	na
14.866200	0.049843	9.000000	nontarget	9.000000	na
14.916043	0.049887	9.000000	nontarget	10.000000	na
14.965930	0.049380	9.000000	nontarget	11.000000	na
15.015310	0.050865	9.000000	nontarget	12.000000	na
15.066175	0.049836	9.000000	nontarget	13.000000	na
15.116011	0.050044	9.000000	nontarget	14.000000	15.150467
15.166055	0.049997	9.000000	nontarget	15.000000	na
15.216052	0.049788	9.000000	nontarget	16.000000	na
15.265840	0.050209	10.000000	nontarget	1.000000	15.272347
15.316049	0.049519	10.000000	nontarget	2.000000	na
15.365569	0.049808	10.000000	nontarget	3.000000	na
15.415377	0.050655	10.000000	nontarget	4.000000	na
15.466032	0.049491	10.000000	nontarget	5.000000	na
15.515523	0.050026	10.000000	nontarget	6.000000	na
15.565549	0.050132	10.000000	nontarget	7.000000	na
15.615681	0.050367	10.000000	nontarget	8.000000	na
15.666048	0.049914	10.000000	nontarget	9.000000	na
15.715962	0.050253	10.000000	nontarget	10.000000	na
15.766215	0.049908	10.000000	nontarget	11.000000	na
15.816123	0.049883	10.000000	nontarget	12.000000	na
15.866006	0.049616	10.000000	nontarget	13.000000	na
15.915622	0.050439	10.000000	nontarget	14.000000	15.926908
15.966061	0.049269	10.000000	nontarget	15.000000	na
16.015330	0.050695	10.000000	nontarget	16.000000	na
16.066025	0.050014	11.000000	nontarget	1.000000	16.072432
16.116039	0.049963	11.000000	nontarget	2.000000	na
16.166002	0.049394	11.000000	nontarget	3.000000	na
16.215396	0.050719	11.000000	nontarget	4.000000	na
16.266115	0.049898	11.000000	nontarget	5.000000	na
16.316013	0.049979	11.000000	nontarget	6.000000	na
16.365992	0.049257	11.000000	nontarget	7.000000	na
16.415249	0.050700	11.000000	nontarget	8.000000	na
16.465950	0.050098	11.000000	nontarget	9.000000	na
16.516048	0.049356	11.000000	nontarget	10.000000	na
16.565404	0.050421	11.000000	nontarget	11.000000	na
16.615825	0.050291	11.000000	nontarget	12.000000	na
16.666116	0.049779	11.000000	nontarget	13.000000	na
16.715895	0.050018	11.000000	nontarget	14.000000	na
16.765913	0.051807	11.000000	nontarget	15.000000	na
16.817719	0.047701	11.000000	nontarget	16.000000	16.823716
16.865421	0.050861	12.000000	nontarget	1.000000	16.871854
16.916281	0.049623	12.000000	nontarget	2.000000	na
16.965904	0.049952	12.000000	nontarget	3.000000	na
17.015856	0.050072	12.000000	nontarget	4.000000	na
17.065928	0.050108	12.000000	nontarget	5.000000	na
17.116036	0.050228	12.000000	nontarget	6.000000	na
17.166263	0.049245	12.000000	nontarget	7.000000	na
17.215509	0.050662	12.000000	nontarget	8.000000	na
17.266171	0.049434	12.000000	nontarget	9.000000	na
17.315605	0.050089	12.000000	nontarget	10.000000	na
17.365693	0.049793	12.000000	nontarget	11.000000	na
17.415487	0.050534	12.000000	nontarget	12.000000	na
17.466021	0.049575	12.000000	nontarget	13.000000	na
17.515596	0.050455	12.000000	nontarget	14.000000	na
17.566051	0.049640	12.000000	nontarget	15.000000	17.585665
17.615691	0.050158	12.000000	nontarget	16.000000	na
17.665848	0.050042	13.000000	nontarget	1.000000	17.672262
17.715891	0.049929	13.000000	nontarget	2.000000	na
17.765820	0.049552	13.000000	nontarget	3.000000	na
17.815371	0.049924	13.000000	nontarget	4.000000	na
17.865296	0.050390	13.000000	nontarget	5.000000	na
17.915686	0.050177	13.000000	nontarget	6.000000	na
17.965862	0.050010	13.000000	nontarget	7.000000	na
18.015872	0.049979	13.000000	nontarget	8.000000	na
18.065851	0.050388	13.000000	nontarget	9.000000	na
18.116239	0.049605	13.000000	nontarget	10.000000	na
18.165844	0.049589	13.000000	nontarget	11.000000	na
18.215433	0.050727	13.000000	nontarget	12.000000	na
18.266160	0.050032	13.000000	nontarget	13.000000	na
18.316192	0.049504	13.000000	nontarget	14.000000	na
18.365696	0.049776	13.000000	nontarget	15.000000	na
18.415472	0.050416	13.000000	nontarget	16.000000	18.431522
18.465888	0.049968	14.000000	nontarget	1.000000	18.472378
18.515855	0.050170	14.000000	nontarget	2.000000	na
18.566026	0.050230	14.000000	nontarget	3.000000	na
18.616256	0.049786	14.000000	nontarget	4.000000	na
18.666042	0.049683	14.000000	nontarget	5.000000	na
18.715724	0.050392	14.000000	nontarget	6.000000	na
18.766117	0.049523	14.000000	nontarget	7.000000	na
18.815640	0.049508	14.000000	nontarget	8.000000	na
18.865148	0.050239	14.000000	nontarget	9.000000	na
18.915387	0.049983	14.000000	nontarget	10.000000	na
18.965370	0.050437	14.000000	nontarget	11.000000	na
19.015807	0.050007	14.000000	nontarget	12.000000	na
19.065815	0.049892	14.000000	nontarget	13.000000	na
19.115707	0.050095	14.000000	nontarget	14.000000	na
19.165802	0.050710	14.000000	nontarget	15.000000	na
19.216512	0.049528	14.000000	nontarget	16.000000	19.222130
19.266040	0.049728	15.000000	nontarget	1.000000	19.272552
19.315768	0.050158	15.000000	nontarget	2.000000	na
19.365926	0.049836	15.000000	nontarget	3.000000	na
19.415762	0.049241	15.000000	nontarget	4.000000	na
19.465003	0.050535	15.000000	nontarget	5.000000	na
19.515538	0.050271	15.000000	nontarget	6.000000	na
19.565809	0.049865	15.000000	nontarget	7.000000	na
19.615673	0.049396	15.000000	nontarget	8.000000	na
19.665069	0.050272	15.000000	nontarget	9.000000	na
19.715341	0.050024	15.000000	nontarget	10.000000	na
19.765365	0.050050	15.000000	nontarget	11.000000	na
19.815415	0.050635	15.000000	nontarget	12.000000	na
19.866050	0.049468	15.000000	nontarget	13.000000	na
19.915518	0.049564	15.000000	nontarget	14.000000	na
19.965082	0.049748	15.000000	nontarget	15.000000	20.000855
20.014830	0.050862	15.000000	nontarget	16.000000	na
20.065691	0.049420	16.000000	nontarget	1.000000	20.072195
20.115111	0.050753	16.000000	nontarget	2.000000	na
20.165865	0.049397	16.000000	nontarget	3.000000	na
20.215262	0.049868	16.000000	nontarget	4.000000	na
20.265130	0.050718	16.000000	nontarget	5.000000	na
20.315848	0.050171	16.000000	nontarget	6.000000	na
20.366019	0.049424	16.000000	nontarget	7.000000	na
20.415443	0.050455	16.000000	nontarget	8.000000	na
20.465898	0.049295	16.000000	nontarget	9.000000	na
20.515193	0.050132	16.000000	nontarget	10.000000	na
20.565325	0.050350	16.000000	nontarget	11.000000	na
20.615674	0.050017	16.000000	nontarget	12.000000	na
20.665691	0.049565	16.000000	nontarget	13.000000	na
20.715256	0.050665	16.000000	nontarget	14.000000	na
20.765920	0.049114	16.000000	nontarget	15.000000	na
20.815034	0.050648	16.000000	nontarget	16.000000	na
20.865682	0.049058	17.000000	nontarget	1.000000	20.872975
20.914740	0.050497	17.000000	nontarget	2.000000	na
20.965237	0.050075	17.000000	nontarget	3.000000	na
21.015312	0.050185	17.000000	nontarget	4.000000	na
21.065497	0.049855	17.000000	nontarget	5.000000	na
21.115352	0.050274	17.000000	nontarget	6.000000	na
21.165626	0.050009	17.000000	nontarget	7.000000	na
21.215636	0.049987	17.000000	nontarget	8.000000	na
21.265623	0.050019	17.000000	nontarget	9.000000	na
21.315642	0.050169	17.000000	nontarget	10.000000	na
21.365810	0.049807	17.000000	nontarget	11.000000	na
21.415618	0.049062	17.000000	nontarget	12.000000	na
21.464679	0.050501	17.000000	nontarget	13.000000	na
21.515180	0.049937	17.000000	nontarget	14.000000	na
21.565117	0.049588	17.000000	nontarget	15.000000	na
21.614705	0.050062	17.000000	nontarget	16.000000	na
21.664767	0.050857	18.000000	nontarget	1.000000	21.672223
21.715624	0.049302	18.000000	nontarget	2.000000	na
21.764926	0.050492	18.000000	nontarget	3.000000	na
21.815418	0.049280	18.000000	nontarget	4.000000	na
21.864698	0.050880	18.000000	nontarget	5.000000	na
21.915578	0.050082	18.000000	nontarget	6.000000	na
21.965660	0.049104	18.000000	nontarget	7.000000	na
22.014765	0.049995	18.000000	nontarget	8.000000	na
22.064760	0.050816	18.000000	nontarget	9.000000	na
22.115577	0.050279	18.000000	nontarget	10.000000	na
22.165856	0.049490	18.000000	nontarget	11.000000	na
22.215346	0.049823	18.000000	nontarget	12.000000	na
22.265169	0.050430	18.000000	nontarget	13.000000	na
22.315599	0.049951	18.000000	nontarget	14.000000	na
22.365550	0.050014	18.000000	nontarget	15.000000	na
22.415564	0.049208	18.000000	nontarget	16.000000	na
22.464772	0.050186	19.000000	nontarget	1.000000	22.496431
22.514958	0.050578	19.000000	nontarget	2.000000	na
22.565536	0.049184	19.000000	nontarget	3.000000	na
22.614720	0.050286	19.000000	nontarget	4.000000	na
22.665007	0.050530	19.000000	nontarget	5.000000	na
22.715537	0.049985	19.000000	nontarget	6.000000	na
22.765522	0.050042	19.000000	nontarget	7.000000	na
22.815564	0.049372	19.000000	nontarget	8.000000	na
22.864936	0.050252	19.000000	nontarget	9.000000	na
22.915188	0.050352	19.000000	nontarget	10.000000	na
22.965540	0.049880	19.000000	nontarget	11.000000	na
23.015420	0.049772	19.000000	nontarget	12.000000	na
23.065191	0.049522	19.000000	nontarget	13.000000	na
23.114714	0.050786	19.000000	nontarget	14.000000	na
23.165500	0.050024	19.000000	nontarget	15.000000	na
23.215523	0.049880	19.000000	nontarget	16.000000	na
23.265403	0.049881	20.000000	nontarget	1.000000	na
23.315284	0.050372	20.000000	nontarget	2.000000	23.337990
23.365656	0.049669	20.000000	nontarget	3.000000	na
23.415325	0.050156	20.000000	nontarget	4.000000	na
23.465481	0.050002	20.000000	nontarget	5.000000	na
23.515483	0.049207	20.000000	nontarget	6.000000	na
23.564690	0.050821	20.000000	nontarget	7.000000	na
23.615512	0.049156	20.000000	nontarget	8.000000	na
23.664668	0.050007	20.000000	nontarget	9.000000	na
23.714675	0.049950	20.000000	nontarget	10.000000	na
23.764625	0.050833	20.000000	nontarget	11.000000	na
23.815457	0.049561	20.000000	nontarget	12.000000	na
23.865019	0.049652	20.000000	nontarget	13.000000	na
23.914671	0.049973	20.000000	nontarget	14.000000	na
23.964644	0.050684	20.000000	nontarget	15.000000	na
24.015328	0.049885	20.000000	nontarget	16.000000	na
24.065214	0.049898	21.000000	nontarget	1.000000	na
24.115111	0.050320	21.000000	nontarget	2.000000	na
24.165432	0.049905	21.000000	nontarget	3.000000	na
24.215337	0.049041	21.000000	nontarget	4.000000	na
24.264378	0.050552	21.000000	nontarget	5.000000	24.271482
24.314930	0.050543	21.000000	nontarget	6.000000	na
24.365472	0.049929	21.000000	nontarget	7.000000	na
24.415401	0.049553	21.000000	nontarget	8.000000	na
24.464955	0.049562	21.000000	nontarget	9.000000	na
24.514517	0.050131	21.000000	nontarget	10.000000	na
24.564648	0.050764	21.000000	nontarget	11.000000	na
24.615412	0.049114	21.000000	nontarget	12.000000	na
24.664526	0.050797	21.000000	nontarget	13.000000	na
24.715324	0.050098	21.000000	nontarget	14.000000	na
24.765422	0.049441	21.000000	nontarget	15.000000	na
24.814863	0.050145	21.000000	nontarget	16.000000	na
24.865009	0.050404	22.000000	nontarget	1.000000	na
24.915413	0.049224	22.000000	nontarget	2.000000	24.934899
24.964637	0.050638	22.000000	nontarget	3.000000	na
25.015275	0.049848	22.000000	nontarget	4.000000	na
25.065123	0.050206	22.000000	nontarget	5.000000	na
25.115329	0.050094	22.000000	nontarget	6.000000	na
25.165423	0.049438	22.000000	nontarget	7.000000	na
25.214861	0.050318	22.000000	nontarget	8.000000	na
25.265179	0.049380	22.000000	nontarget	9.000000	na
25.314560	0.050055	22.000000	nontarget	10.000000	na
25.364614	0.050362	22.000000	nontarget	11.000000	na
25.414976	0.050390	22.000000	nontarget	12.000000	na
25.465366	0.049989	22.000000	nontarget	13.000000	na
25.515355	0.049950	22.000000	nontarget	14.000000	na
25.565305	0.049441	22.000000	nontarget	15.000000	na
25.614746	0.050752	22.000000	nontarget	16.000000	na
25.665498	0.049889	23.000000	nontarget	1.000000	25.685905
25.715387	0.049576	23.000000	nontarget	2.000000	na
25.764963	0.049696	23.000000	nontarget	3.000000	na
25.814659	0.050334	23.000000	nontarget	4.000000	na
25.864993	0.050037	23.000000	nontarget	5.000000	na
25.915030	0.049715	23.000000	nontarget	6.000000	na
25.964745	0.049811	23.000000	nontarget	7.000000	na
26.014556	0.050419	23.000000	nontarget	8.000000	na
26.064976	0.049607	23.000000	nontarget	9.000000	na
26.114583	0.050055	23.000000	nontarget	10.000000	na
26.164638	0.050317	23.000000	nontarget	11.000000	na
26.214955	0.050523	23.000000	nontarget	12.000000	na
26.265478	0.049646	23.000000	nontarget	13.000000	na
26.315124	0.050209	23.000000	nontarget	14.000000	na
26.365332	0.049984	23.000000	nontarget	15.000000	na
26.415317	0.049254	23.000000	nontarget	16.000000	na
26.464571	0.050813	24.000000	nontarget	1.000000	26.496256
26.515384	0.049603	24.000000	nontarget	2.000000	na
26.564987	0.049662	24.000000	nontarget	3.000000	na
26.614649	0.050615	24.000000	nontarget	4.000000	na
26.665264	0.050041	24.000000	nontarget	5.000000	na
26.715304	0.049453	24.000000	nontarget	6.000000	na
26.764758	0.050164	24.000000	nontarget	7.000000	na
26.814922	0.050097	24.000000	nontarget	8.000000	na
26.865018	0.050274	24.000000	nontarget	9.000000	na
26.915292	0.050049	24.000000	nontarget	10.000000	na
26.965341	0.049940	24.000000	nontarget	11.000000	na
27.015281	0.049677	24.000000	nontarget	12.000000	na
27.064958	0.049997	24.000000	nontarget	13.000000	na
27.114955	0.050368	24.000000	nontarget	14.000000	na
27.165324	0.050090	24.000000	nontarget	15.000000	na
27.215414	0.049653	24.000000	nontarget	16.000000	na
27.265067	0.050064	25.000000	nontarget	1.000000	na
27.315131	0.050165	25.000000	nontarget	2.000000	27.330733
27.365296	0.049963	25.000000	nontarget	3.000000	na
27.415259	0.049950	25.000000	nontarget	4.000000	na
27.465209	0.050014	25.000000	nontarget	5.000000	na
27.515223	0.049379	25.000000	nontarget	6.000000	na
27.564602	0.050664	25.000000	nontarget	7.000000	na
27.615266	0.049108	25.000000	nontarget	8.000000	na
27.664374	0.050820	25.000000	nontarget	9.000000	na
27.715194	0.050054	25.000000	nontarget	10.000000	na
27.765248	0.049906	25.000000	nontarget	11.000000	na
27.815154	0.049420	25.000000	nontarget	12.000000	na
27.864574	0.050661	25.000000	nontarget	13.000000	na
27.915236	0.049312	25.000000	nontarget	14.000000	na
27.964548	0.050712	25.000000	nontarget	15.000000	na
28.015259	0.050022	25.000000	nontarget	16.000000	na
28.065282	0.051467	26.000000	nontarget	1.000000	na
28.116749	0.047863	26.000000	nontarget	2.000000	28.121909
28.164612	0.050691	26.000000	nontarget	3.000000	na
28.215303	0.049893	26.000000	nontarget	4.000000	na
28.265196	0.050011	26.000000	nontarget	5.000000	na
28.315207	0.049385	26.000000	nontarget	6.000000	na
28.364592	0.050337	26.000000	nontarget	7.000000	na
28.414928	0.049523	26.000000	nontarget	8.000000	na
28.464452	0.050479	26.000000	nontarget	9.000000	na
28.514930	0.050168	26.000000	nontarget	10.000000	na
28.565098	0.049498	26.000000	nontarget	11.000000	na
28.614596	0.050127	26.000000	nontarget	12.000000	na
28.664723	0.050760	26.000000	nontarget	13.000000	na
28.715482	0.049997	26.000000	nontarget	14.000000	na
28.765479	0.049928	26.000000	nontarget	15.000000	na
28.815407	0.049249	26.000000	nontarget	16.000000	na
28.864657	0.049935	27.000000	nontarget	1.000000	na
28.914592	0.050522	27.000000	nontarget	2.000000	na
28.965114	0.050116	27.000000	nontarget	3.000000	na
29.015230	0.049871	27.000000	nontarget	4.000000	na
29.065101	0.049468	27.000000	nontarget	5.000000	29.084292
29.114570	0.050498	27.000000	nontarget	6.000000	na
29.165067	0.049497	27.000000	nontarget	7.000000	na
29.214565	0.050548	27.000000	nontarget	8.000000	na
29.265113	0.049370	27.000000	nontarget	9.000000	na
29.314482	0.050658	27.000000	nontarget	10.000000	na
29.365140	0.049392	27.000000	nontarget	11.000000	na
29.414532	0.049893	27.000000	nontarget	12.000000	na
29.464426	0.050012	27.000000	nontarget	13.000000	na
29.514438	0.050016	27.000000	nontarget	14.000000	na
29.564454	0.050060	27.000000	nontarget	15.000000	na
29.614514	0.050037	27.000000	nontarget	16.000000	na
29.664551	0.049994	28.000000	target	1.000000	na
29.714545	0.050565	28.000000	target	2.000000	na
29.765110	0.050010	28.000000	target	3.000000	na
29.815120	0.049497	28.000000	target	4.000000	na
29.864617	0.050451	28.000000	target	5.000000	na
29.915067	0.050015	28.000000	target	6.000000	na
29.965082	0.049948	28.000000	target	7.000000	na
30.015030	0.049949	28.000000	target	8.000000	na
30.064979	0.050098	28.000000	target	9.000000	na
30.115077	0.050118	28.000000	target	10.000000	na
30.165195	0.049254	28.000000	target	11.000000	na
30.214449	0.050483	28.000000	target	12.000000	na
30.264931	0.050056	28.000000	target	13.000000	na
30.314987	0.050245	28.000000	target	14.000000	na
30.365232	0.049835	28.000000	target	15.000000	na
30.415067	0.049595	28.000000	target	16.000000	30.421647
30.464662	0.049893	29.000000	nontarget	1.000000	30.471410
30.514556	0.050573	29.000000	nontarget	2.000000	na
30.565129	0.049403	29.000000	nontarget	3.000000	na
30.614532	0.050407	29.000000	nontarget	4.000000	na
30.664939	0.050103	29.000000	nontarget	5.000000	na
30.715041	0.049486	29.000000	nontarget	6.000000	na
30.764527	0.049997	29.000000	nontarget	7.000000	na
30.814524	0.050064	29.000000	nontarget	8.000000	na
30.864588	0.050264	29.000000	nontarget	9.000000	na
30.914852	0.050153	29.000000	nontarget	10.000000	na
30.965004	0.050030	29.000000	nontarget	11.000000	na
31.015034	0.049973	29.000000	nontarget	12.000000	na
31.065008	0.049986	29.000000	nontarget	13.000000	na
31.114994	0.050060	29.000000	nontarget	14.000000	na
31.165054	0.049581	29.000000	nontarget	15.000000	na
31.214634	0.050784	29.000000	nontarget	16.000000	na
31.265418	0.049613	30.000000	nontarget	1.000000	31.271012
31.315032	0.050039	30.000000	nontarget	2.000000	na
31.365071	0.049308	30.000000	nontarget	3.000000	na
31.414378	0.050207	30.000000	nontarget	4.000000	na
31.464585	0.049956	30.000000	nontarget	5.000000	na
31.514541	0.050427	30.000000	nontarget	6.000000	na
31.564968	0.050248	30.000000	nontarget	7.000000	na
31.615216	0.049392	30.000000	nontarget	8.000000	na
31.664608	0.050318	30.000000	nontarget	9.000000	na
31.714926	0.050129	30.000000	nontarget	10.000000	na
31.765055	0.049914	30.000000	nontarget	11.000000	na
31.814968	0.049723	30.000000	nontarget	12.000000	na
31.864692	0.049760	30.000000	nontarget	13.000000	na
31.914452	0.050407	30.000000	nontarget	14.000000	na
31.964860	0.050058	30.000000	nontarget	15.000000	na
32.014918	0.050042	30.000000	nontarget	16.000000	na
32.064959	0.049983	31.000000	target	1.000000	na
32.114943	0.049646	31.000000	target	2.000000	na
32.164589	0.049955	31.000000	target	3.000000	na
32.214544	0.050377	31.000000	target	4.000000	na
32.264921	0.050188	31.000000	target	5.000000	na
32.315109	0.049733	31.000000	target	6.000000	na
32.364842	0.049477	31.000000	target	7.000000	na
32.414320	0.050197	31.000000	target	8.000000	na
32.464517	0.050245	31.000000	target	9.000000	na
32.514761	0.049966	31.000000	target	10.000000	na
32.564727	0.050341	31.000000	target	11.000000	na
32.615068	0.049453	31.000000	target	12.000000	na
32.664521	0.050413	31.000000	target	13.000000	na
32.714934	0.050091	31.000000	target	14.000000	na
32.765025	0.050117	31.000000	target	15.000000	32.788507
32.815142	0.049899	31.000000	target	16.000000	na
32.865041	0.049821	32.000000	nontarget	1.000000	32.871531
32.914862	0.049645	32.000000	nontarget	2.000000	na
32.964506	0.050052	32.000000	nontarget	3.000000	na
33.014558	0.049886	32.000000	nontarget	4.000000	na
33.064444	0.050387	32.000000	nontarget	5.000000	na
33.114831	0.049662	32.000000	nontarget	6.000000	na
33.164493	0.049761	32.000000	nontarget	7.000000	na
33.214254	0.050272	32.000000	nontarget	8.000000	na
33.264526	0.049980	32.000000	nontarget	9.000000	na
33.314506	0.050272	32.000000	nontarget	10.000000	na
33.364778	0.050024	32.000000	nontarget	11.000000	na
33.414802	0.050083	32.000000	nontarget	12.000000	na
33.464885	0.049880	32.000000	nontarget	13.000000	na
33.514765	0.049990	32.000000	nontarget	14.000000	na
33.564755	0.049753	32.000000	nontarget	15.000000	na
33.614509	0.050313	32.000000	nontarget	16.000000	na
33.664821	0.049664	33.000000	nontarget	1.000000	na
33.714485	0.049749	33.000000	nontarget	2.000000	na
33.764234	0.050533	33.000000	nontarget	3.000000	na
33.814768	0.049628	33.000000	nontarget	4.000000	na
33.864396	0.050128	33.000000	nontarget	5.000000	na
33.914524	0.050001	33.000000	nontarget	6.000000	33.930704
33.964525	0.050258	33.000000	nontarget	7.000000	na
34.014783	0.049697	33.000000	nontarget	8.000000	na
34.064481	0.050371	33.000000	nontarget	9.000000	na
34.114851	0.049439	33.000000	nontarget	10.000000	na
34.164290	0.050683	33.000000	nontarget	11.000000	na
34.214973	0.049899	33.000000	nontarget	12.000000	na
34.264872	0.049660	33.000000	nontarget	13.000000	na
34.314532	0.049793	33.000000	nontarget	14.000000	na
34.364326	0.049966	33.000000	nontarget	15.000000	na
34.414292	0.050182	33.000000	nontarget	16.000000	na
34.464473	0.049949	34.000000	nontarget	1.000000	na
34.514422	0.050510	34.000000	nontarget	2.000000	na
34.564932	0.049645	34.000000	nontarget	3.000000	na
34.614577	0.050207	34.000000	nontarget	4.000000	na
34.664785	0.049426	34.000000	nontarget	5.000000	na
34.714211	0.049928	34.000000	nontarget	6.000000	na
34.764138	0.050435	34.000000	nontarget	7.000000	34.794215
34.814574	0.049953	34.000000	nontarget	8.000000	na
34.864526	0.050236	34.000000	nontarget	9.000000	na
34.914762	0.049396	34.000000	nontarget	10.000000	na
34.964158	0.049929	34.000000	nontarget	11.000000	na
35.014087	0.050455	34.000000	nontarget	12.000000	na
35.064542	0.049960	34.000000	nontarget	13.000000	na
35.114502	0.050371	34.000000	nontarget	14.000000	na
35.164872	0.050076	34.000000	nontarget	15.000000	na
35.214949	0.049771	34.000000	nontarget	16.000000	na
35.264720	0.049714	35.000000	nontarget	1.000000	na
35.314434	0.050488	35.000000	nontarget	2.000000	na
35.364922	0.049609	35.000000	nontarget	3.000000	na
35.414531	0.050438	35.000000	nontarget	4.000000	na
35.464969	0.049218	35.000000	nontarget	5.000000	na
35.514187	0.050114	35.000000	nontarget	6.000000	na
35.564301	0.050195	35.000000	nontarget	7.000000	na
35.614496	0.049992	35.000000	nontarget	8.000000	na
35.664488	0.050007	35.000000	nontarget	9.000000	na
35.714496	0.050022	35.000000	nontarget	10.000000	35.720169
35.764518	0.050460	35.000000	nontarget	11.000000	na
35.814978	0.049503	35.000000	nontarget	12.000000	na
35.864481	0.050013	35.000000	nontarget	13.000000	na
35.914494	0.049413	35.000000	nontarget	14.000000	na
35.963907	0.050612	35.000000	nontarget	15.000000	na
36.014519	0.049891	35.000000	nontarget	16.000000	na
36.064410	0.049856	36.000000	nontarget	1.000000	na
36.114266	0.049956	36.000000	nontarget	2.000000	na
36.164222	0.050260	36.000000	nontarget	3.000000	na
36.214481	0.049737	36.000000	nontarget	4.000000	na
36.264218	0.050021	36.000000	nontarget	5.000000	na
36.314239	0.050363	36.000000	nontarget	6.000000	na
36.364602	0.049887	36.000000	nontarget	7.000000	na
36.414489	0.049997	36.000000	nontarget	8.000000	na
36.464486	0.049979	36.000000	nontarget	9.000000	na
36.514465	0.050020	36.000000	nontarget	10.000000	na
36.564485	0.049335	36.000000	nontarget	11.000000	na
36.613820	0.050691	36.000000	nontarget	12.000000	na
36.664511	0.049938	36.000000	nontarget	13.000000	36.670938
36.714449	0.050058	36.000000	nontarget	14.000000	na
36.764507	0.049985	36.000000	nontarget	15.000000	na
36.814492	0.050296	36.000000	nontarget	16.000000	na
36.864788	0.049112	37.000000	target	1.000000	na
36.913900	0.050584	37.000000	target	2.000000	na
36.964485	0.049989	37.000000	target	3.000000	na
37.014473	0.050031	37.000000	target	4.000000	na
37.064504	0.049963	37.000000	target	5.000000	na
37.114467	0.050015	37.000000	target	6.000000	na
37.164482	0.049570	37.000000	target	7.000000	na
37.214052	0.050443	37.000000	target	8.000000	na
37.264495	0.049957	37.000000	target	9.000000	na
37.314452	0.050149	37.000000	target	10.000000	na
37.364601	0.049403	37.000000	target	11.000000	na
37.414005	0.050464	37.000000	target	12.000000	na
37.464469	0.049981	37.000000	target	13.000000	na
37.514450	0.049978	37.000000	target	14.000000	na
37.564428	0.050026	37.000000	target	15.000000	na
37.614454	0.050396	37.000000	target	16.000000	na
37.664850	0.049618	38.000000	nontarget	1.000000	na
37.714468	0.050067	38.000000	nontarget	2.000000	37.741786
37.764535	0.049392	38.000000	nontarget	3.000000	na
37.813927	0.050224	38.000000	nontarget	4.000000	na
37.864151	0.050318	38.000000	nontarget	5.000000	na
37.914469	0.049996	38.000000	nontarget	6.000000	na
37.964465	0.050038	38.000000	nontarget	7.000000	na
38.014504	0.049650	38.000000	nontarget	8.000000	na
38.064154	0.050092	38.000000	nontarget	9.000000	na
38.114246	0.050215	38.000000	nontarget	10.000000	na
38.164461	0.049529	38.000000	nontarget	11.000000	na
38.213990	0.050492	38.000000	nontarget	12.000000	na
38.264483	0.049954	38.000000	nontarget	13.000000	na
38.314437	0.049410	38.000000	nontarget	14.000000	na
38.363846	0.050745	38.000000	nontarget	15.000000	na
38.414592	0.049803	38.000000	nontarget	16.000000	na
38.464394	0.050040	39.000000	nontarget	1.000000	na
38.514435	0.050061	39.000000	nontarget	2.000000	na
38.564496	0.049243	39.000000	nontarget	3.000000	na
38.613739	0.049974	39.000000	nontarget	4.000000	na
38.663713	0.050769	39.000000	nontarget	5.000000	na
38.714482	0.049974	39.000000	nontarget	6.000000	na
38.764455	0.049951	39.000000	nontarget	7.000000	na
38.814406	0.049399	39.000000	nontarget	8.000000	na
38.863805	0.050646	39.000000	nontarget	9.000000	38.870271
38.914450	0.049951	39.000000	nontarget	10.000000	na
38.964402	0.050080	39.000000	nontarget	11.000000	na
39.014481	0.050017	39.000000	nontarget	12.000000	na
39.064498	0.049945	39.000000	nontarget	13.000000	na
39.114443	0.049989	39.000000	nontarget	14.000000	na
39.164432	0.050249	39.000000	nontarget	15.000000	na
39.214681	0.049735	39.000000	nontarget	16.000000	na
39.264417	0.049997	40.000000	nontarget	1.000000	na
39.314414	0.049605	40.000000	nontarget	2.000000	na
39.364019	0.050354	40.000000	nontarget	3.000000	na
39.414373	0.049719	40.000000	nontarget	4.000000	na
39.464092	0.050332	40.000000	nontarget	5.000000	na
39.514424	0.049989	40.000000	nontarget	6.000000	na
39.564412	0.050005	40.000000	nontarget	7.000000	na
39.614417	0.049997	40.000000	nontarget	8.000000	na
39.664414	0.050023	40.000000	nontarget	9.000000	na
39.714437	0.050010	40.000000	nontarget	10.000000	na
39.764447	0.049518	40.000000	nontarget	11.000000	na
39.813965	0.050480	40.000000	nontarget	12.000000	na
39.864445	0.049550	40.000000	nontarget	13.000000	na
39.913995	0.050397	40.000000	nontarget	14.000000	na
39.964392	0.049777	40.000000	nontarget	15.000000	na
40.014169	0.049784	40.000000	nontarget	16.000000	na
40.063953	0.050235	41.000000	nontarget	1.000000	40.070075
40.114188	0.050220	41.000000	nontarget	2.000000	na
40.164408	0.050034	41.000000	nontarget	3.000000	na
40.214441	0.049900	41.000000	nontarget	4.000000	na
40.264341	0.050094	41.000000	nontarget	5.000000	na
40.314435	0.050073	41.000000	nontarget	6.000000	na
40.364508	0.049889	41.000000	nontarget	7.000000	na
40.414397	0.049554	41.000000	nontarget	8.000000	na
40.463950	0.050482	41.000000	nontarget	9.000000	na
40.514432	0.049993	41.000000	nontarget	10.000000	na
40.564425	0.049998	41.000000	nontarget	11.000000	na
40.614422	0.049974	41.000000	nontarget	12.000000	na
40.664397	0.050036	41.000000	nontarget	13.000000	na
40.714433	0.050003	41.000000	nontarget	14.000000	na
40.764436	0.049903	41.000000	nontarget	15.000000	na
40.814339	0.050050	41.000000	nontarget	16.000000	na
40.864388	0.049483	42.000000	nontarget	1.000000	na
40.913871	0.050548	42.000000	nontarget	2.000000	na
40.964419	0.050000	42.000000	nontarget	3.000000	na
41.014419	0.049305	42.000000	nontarget	4.000000	na
41.063724	0.050268	42.000000	nontarget	5.000000	na
41.113992	0.049810	42.000000	nontarget	6.000000	na
41.163802	0.050189	42.000000	nontarget	7.000000	na
41.213991	0.049859	42.000000	nontarget	8.000000	41.249536
41.263850	0.050539	42.000000	nontarget	9.000000	na
41.314389	0.050002	42.000000	nontarget	10.000000	na
41.364391	0.049986	42.000000	nontarget	11.000000	na
41.414377	0.050005	42.000000	nontarget	12.000000	na
41.464382	0.049412	42.000000	nontarget	13.000000	na
41.513794	0.050629	42.000000	nontarget	14.000000	na
41.564423	0.049683	42.000000	nontarget	15.000000	na
41.614106	0.050285	42.000000	nontarget	16.000000	na
41.664391	0.049821	43.000000	nontarget	1.000000	na
41.714212	0.050035	43.000000	nontarget	2.000000	na
41.764247	0.049486	43.000000	nontarget	3.000000	na
41.813734	0.050570	43.000000	nontarget	4.000000	na
41.864303	0.050108	43.000000	nontarget	5.000000	na
41.914411	0.049938	43.000000	nontarget	6.000000	na
41.964349	0.049886	43.000000	nontarget	7.000000	na
42.014235	0.050207	43.000000	nontarget	8.000000	na
42.064442	0.049942	43.000000	nontarget	9.000000	42.092834
42.114383	0.049950	43.000000	nontarget	10.000000	na
42.164333	0.050011	43.000000	nontarget	11.000000	na
42.214344	0.050062	43.000000	nontarget	12.000000	na
42.264405	0.049142	43.000000	nontarget	13.000000	na
42.313548	0.050746	43.000000	nontarget	14.000000	na
42.364294	0.049940	43.000000	nontarget	15.000000	na
42.414234	0.050081	43.000000	nontarget	16.000000	na
42.464315	0.049979	44.000000	nontarget	1.000000	na
42.514294	0.049216	44.000000	nontarget	2.000000	na
42.563510	0.050820	44.000000	nontarget	3.000000	na
42.614330	0.049004	44.000000	nontarget	4.000000	na
42.663334	0.051061	44.000000	nontarget	5.000000	na
42.714395	0.049581	44.000000	nontarget	6.000000	na
42.763976	0.050230	44.000000	nontarget	7.000000	na
42.814206	0.049455	44.000000	nontarget	8.000000	na
42.863661	0.050316	44.000000	nontarget	9.000000	na
42.913977	0.050097	44.000000	nontarget	10.000000	na
42.964075	0.049960	44.000000	nontarget	11.000000	42.989480
43.014035	0.049915	44.000000	nontarget	12.000000	na
43.063950	0.050159	44.000000	nontarget	13.000000	na
43.114109	0.050036	44.000000	nontarget	14.000000	na
43.164145	0.050164	44.000000	nontarget	15.000000	na
43.214308	0.050071	44.000000	nontarget	16.000000	na
43.264380	0.049159	45.000000	nontarget	1.000000	na
43.313538	0.050700	45.000000	nontarget	2.000000	na
43.364238	0.049024	45.000000	nontarget	3.000000	na
43.413262	0.051082	45.000000	nontarget	4.000000	na
43.464343	0.049907	45.000000	nontarget	5.000000	na
43.514250	0.049332	45.000000	nontarget	6.000000	na
43.563582	0.050679	45.000000	nontarget	7.000000	na
43.614261	0.049797	45.000000	nontarget	8.000000	na
43.664058	0.050151	45.000000	nontarget	9.000000	na
43.714209	0.049920	45.000000	nontarget	10.000000	na
43.764129	0.050013	45.000000	nontarget	11.000000	na
43.814142	0.050080	45.000000	nontarget	12.000000	na
43.864222	0.050035	45.000000	nontarget	13.000000	na
43.914257	0.049280	45.000000	nontarget	14.000000	na
43.963537	0.050596	45.000000	nontarget	15.000000	na
44.014133	0.049978	45.000000	nontarget	16.000000	44.020539
44.064112	0.050132	46.000000	nontarget	1.000000	44.070613
44.114244	0.049977	46.000000	nontarget	2.000000	na
44.164221	0.049999	46.000000	nontarget	3.000000	na
44.214219	0.049497	46.000000	nontarget	4.000000	na
44.263717	0.050437	46.000000	nontarget	5.000000	na
44.314154	0.050218	46.000000	nontarget	6.000000	na
44.364372	0.049702	46.000000	nontarget	7.000000	na
44.414074	0.050129	46.000000	nontarget	8.000000	na
44.464203	0.050160	46.000000	nontarget	9.000000	na
44.514363	0.049819	46.000000	nontarget	10.000000	na
44.564181	0.050194	46.000000	nontarget	11.000000	na
44.614376	0.049770	46.000000	nontarget	12.000000	na
44.664146	0.049320	46.000000	nontarget	13.000000	na
44.713466	0.050237	46.000000	nontarget	14.000000	na
44.763703	0.050051	46.000000	nontarget	15.000000	na
44.813754	0.050516	46.000000	nontarget	16.000000	na
44.864270	0.049805	47.000000	nontarget	1.000000	na
44.914075	0.049905	47.000000	nontarget	2.000000	na
44.963980	0.050181	47.000000	nontarget	3.000000	44.989307
45.014161	0.049536	47.000000	nontarget	4.000000	na
45.063697	0.049638	47.000000	nontarget	5.000000	na
45.113335	0.050411	47.000000	nontarget	6.000000	na
45.163746	0.049880	47.000000	nontarget	7.000000	na
45.213626	0.050732	47.000000	nontarget	8.000000	na
45.264357	0.049791	47.000000	nontarget	9.000000	na
45.314148	0.050108	47.000000	nontarget	10.000000	na
45.364256	0.049890	47.000000	nontarget	11.000000	na
45.414146	0.050267	47.000000	nontarget	12.000000	na
45.464413	0.049765	47.000000	nontarget	13.000000	na
45.514177	0.049952	47.000000	nontarget	14.000000	na
45.564129	0.050123	47.000000	nontarget	15.000000	na
45.614252	0.050085	47.000000	nontarget	16.000000	na
45.664337	0.049765	48.000000	nontarget	1.000000	na
45.714102	0.050125	48.000000	nontarget	2.000000	na
45.764227	0.050251	48.000000	nontarget	3.000000	na
45.814478	0.049206	48.000000	nontarget	4.000000	na
45.863684	0.050412	48.000000	nontarget	5.000000	na
45.914096	0.049383	48.000000	nontarget	6.000000	45.938277
45.963480	0.050126	48.000000	nontarget	7.000000	na
46.013606	0.050144	48.000000	nontarget	8.000000	na
46.063751	0.050534	48.000000	nontarget	9.000000	na
46.114285	0.049897	48.000000	nontarget	10.000000	na
46.164182	0.049496	48.000000	nontarget	11.000000	na
46.213678	0.050748	48.000000	nontarget	12.000000	na
46.264426	0.049547	48.000000	nontarget	13.000000	na
46.313973	0.049460	48.000000	nontarget	14.000000	na
46.363432	0.050920	48.000000	nontarget	15.000000	na
46.414353	0.049893	48.000000	nontarget	16.000000	na
46.464245	0.049793	49.000000	nontarget	1.000000	na
46.514038	0.050277	49.000000	nontarget	2.000000	na
46.564315	0.049887	49.000000	nontarget	3.000000	na
46.614202	0.050082	49.000000	nontarget	4.000000	na
46.664284	0.049224	49.000000	nontarget	5.000000	na
46.713508	0.050429	49.000000	nontarget	6.000000	na
46.763937	0.050374	49.000000	nontarget	7.000000	na
46.814312	0.049289	49.000000	nontarget	8.000000	na
46.863601	0.050433	49.000000	nontarget	9.000000	na
46.914034	0.050053	49.000000	nontarget	10.000000	na
46.964086	0.049491	49.000000	nontarget	11.000000	na
47.013578	0.049626	49.000000	nontarget	12.000000	na
47.063204	0.050371	49.000000	nontarget	13.000000	47.097462
47.113575	0.050681	49.000000	nontarget	14.000000	na
47.164256	0.049513	49.000000	nontarget	15.000000	na
47.213769	0.049883	49.000000	nontarget	16.000000	na
47.263652	0.050370	50.000000	nontarget	1.000000	na
47.314021	0.049833	50.000000	nontarget	2.000000	na
47.363854	0.049951	50.000000	nontarget	3.000000	na
47.413805	0.050290	50.000000	nontarget	4.000000	na
47.464095	0.049329	50.000000	nontarget	5.000000	na
47.513424	0.049984	50.000000	nontarget	6.000000	na
47.563408	0.050585	50.000000	nontarget	7.000000	na
47.613994	0.049974	50.000000	nontarget	8.000000	na
47.663968	0.049989	50.000000	nontarget	9.000000	na
47.713957	0.050308	50.000000	nontarget	10.000000	na
47.764265	0.049711	50.000000	nontarget	11.000000	na
47.813976	0.049209	50.000000	nontarget	12.000000	na
47.863185	0.050522	50.000000	nontarget	13.000000	na
47.913707	0.050288	50.000000	nontarget	14.000000	na
47.963995	0.049883	50.000000	nontarget	15.000000	47.985683
48.013878	0.049801	50.000000	nontarget	16.000000	na
48.063679	0.050345	51.000000	nontarget	1.000000	48.070179
48.114025	0.049587	51.000000	nontarget	2.000000	na
48.163612	0.050333	51.000000	nontarget	3.000000	na
48.213945	0.049729	51.000000	nontarget	4.000000	na
48.263673	0.050369	51.000000	nontarget	5.000000	na
48.314042	0.049931	51.000000	nontarget	6.000000	na
48.363973	0.049313	51.000000	nontarget	7.000000	na
48.413286	0.050757	51.000000	nontarget	8.000000	na
48.464043	0.049413	51.000000	nontarget	9.000000	na
48.513456	0.050447	51.000000	nontarget	10.000000	na
48.563903	0.050103	51.000000	nontarget	11.000000	na
48.614006	0.049905	51.000000	nontarget	12.000000	na
48.663911	0.049987	51.000000	nontarget	13.000000	na
48.713898	0.050028	51.000000	nontarget	14.000000	na
48.763926	0.049967	51.000000	nontarget	15.000000	na
48.813893	0.049917	51.000000	nontarget	16.000000	na
48.863810	0.050066	52.000000	target	1.000000	na
48.913875	0.049491	52.000000	target	2.000000	na
48.963366	0.050553	52.000000	target	3.000000	na
49.013919	0.049488	52.000000	target	4.000000	na
49.063407	0.050609	52.000000	target	5.000000	na
49.114016	0.049839	52.000000	target	6.000000	na
49.163855	0.050198	52.000000	target	7.000000	na
49.214054	0.049623	52.000000	target	8.000000	na
49.263677	0.049324	52.000000	target	9.000000	na
49.313001	0.050191	52.000000	target	10.000000	na
49.363192	0.049988	52.000000	target	11.000000	na
49.413180	0.049916	52.000000	target	12.000000	na
49.463096	0.050744	52.000000	target	13.000000	na
49.513840	0.049337	52.000000	target	14.000000	na
49.563177	0.050856	52.000000	target	15.000000	na
49.614033	0.049821	52.000000	target	16.000000	na
49.663854	0.049540	53.000000	nontarget	1.000000	na
49.713393	0.050417	53.000000	nontarget	2.000000	na
49.763811	0.049215	53.000000	nontarget	3.000000	49.769917
49.813026	0.050960	53.000000	nontarget	4.000000	na
49.863986	0.049822	53.000000	nontarget	5.000000	na
49.913808	0.049754	53.000000	nontarget	6.000000	na
49.963561	0.050305	53.000000	nontarget	7.000000	na
50.013866	0.049471	53.000000	nontarget	8.000000	na
50.063337	0.049920	53.000000	nontarget	9.000000	na
50.113257	0.050275	53.000000	nontarget	10.000000	na
50.163532	0.050226	53.000000	nontarget	11.000000	na
50.213758	0.049925	53.000000	nontarget	12.000000	na
50.263683	0.049453	53.000000	nontarget	13.000000	na
50.313136	0.050669	53.000000	nontarget	14.000000	na
50.363805	0.049240	53.000000	nontarget	15.000000	na
50.413045	0.050022	53.000000	nontarget	16.000000	na
50.463067	0.050344	54.000000	nontarget	1.000000	na
50.513411	0.049466	54.000000	nontarget	2.000000	na
50.562877	0.050726	54.000000	nontarget	3.000000	na
50.613603	0.049469	54.000000	nontarget	4.000000	na
50.663071	0.050700	54.000000	nontarget	5.000000	na
50.713772	0.050003	54.000000	nontarget	6.000000	na
50.763774	0.050049	54.000000	nontarget	7.000000	50.791885
50.813823	0.049991	54.000000	nontarget	8.000000	na
50.863815	0.049419	54.000000	nontarget	9.000000	na
50.913234	0.050698	54.000000	nontarget	10.000000	na
50.963932	0.049816	54.000000	nontarget	11.000000	na
51.013749	0.049310	54.000000	nontarget	12.000000	na
51.063059	0.050673	54.000000	nontarget	13.000000	na
51.113732	0.050095	54.000000	nontarget	14.000000	na
51.163827	0.049468	54.000000	nontarget	15.000000	na
51.213295	0.050391	54.000000	nontarget	16.000000	na
51.263687	0.049679	55.000000	nontarget	1.000000	na
51.313366	0.050346	55.000000	nontarget	2.000000	na
51.363712	0.050101	55.000000	nontarget	3.000000	na
51.413813	0.050073	55.000000	nontarget	4.000000	na
51.463886	0.048991	55.000000	nontarget	5.000000	na
51.512877	0.051003	55.000000	nontarget	6.000000	na
51.563880	0.049414	55.000000	nontarget	7.000000	na
51.613294	0.049583	55.000000	nontarget	8.000000	na
51.662877	0.050852	55.000000	nontarget	9.000000	na
51.713729	0.050003	55.000000	nontarget	10.000000	na
51.763733	0.049319	55.000000	nontarget	11.000000	na
51.813051	0.050069	55.000000	nontarget	12.000000	na
51.863120	0.050565	55.000000	nontarget	13.000000	na
51.913685	0.050008	55.000000	nontarget	14.000000	na
51.963693	0.050019	55.000000	nontarget	15.000000	na
52.013712	0.049515	55.000000	nontarget	16.000000	na
52.063227	0.050093	56.000000	target	1.000000	na
52.113320	0.050299	56.000000	target	2.000000	na
52.163619	0.050016	56.000000	target	3.000000	na
52.213635	0.050035	56.000000	target	4.000000	na
52.263671	0.049559	56.000000	target	5.000000	na
52.313230	0.050639	56.000000	target	6.000000	na
52.363868	0.049802	56.000000	target	7.000000	na
52.413670	0.049716	56.000000	target	8.000000	na
52.463386	0.050233	56.000000	target	9.000000	na
52.513619	0.050227	56.000000	target	10.000000	na
52.563846	0.049787	56.000000	target	11.000000	na
52.613632	0.049515	56.000000	target	12.000000	na
52.663147	0.050631	56.000000	target	13.000000	na
52.713778	0.049834	56.000000	target	14.000000	na
52.763612	0.049364	56.000000	target	15.000000	na
52.812977	0.050807	56.000000	target	16.000000	na
52.863783	0.049855	57.000000	nontarget	1.000000	na
52.913638	0.049881	57.000000	nontarget	2.000000	na
52.963519	0.049325	57.000000	nontarget	3.000000	na
53.012844	0.050049	57.000000	nontarget	4.000000	na
53.062893	0.049970	57.000000	nontarget	5.000000	53.087633
53.112863	0.050551	57.000000	nontarget	6.000000	na
53.163414	0.050517	57.000000	nontarget	7.000000	na
53.213931	0.048903	57.000000	nontarget	8.000000	na
53.262834	0.050737	57.000000	nontarget	9.000000	na
53.313572	0.049264	57.000000	nontarget	10.000000	na
53.362836	0.050750	57.000000	nontarget	11.000000	na
53.413586	0.050013	57.000000	nontarget	12.000000	na
53.463598	0.050194	57.000000	nontarget	13.000000	na
53.513792	0.049814	57.000000	nontarget	14.000000	na
53.563606	0.050033	57.000000	nontarget	15.000000	na
53.613639	0.050168	57.000000	nontarget	16.000000	na
53.663807	0.049759	58.000000	nontarget	1.000000	na
53.713566	0.050058	58.000000	nontarget	2.000000	na
53.763624	0.049779	58.000000	nontarget	3.000000	na
53.813403	0.050126	58.000000	nontarget	4.000000	na
53.863529	0.050042	58.000000	nontarget	5.000000	53.870402
53.913571	0.049532	58.000000	nontarget	6.000000	na
53.963103	0.050332	58.000000	nontarget	7.000000	na
54.013435	0.049687	58.000000	nontarget	8.000000	na
54.063121	0.050452	58.000000	nontarget	9.000000	na
54.113574	0.049989	58.000000	nontarget	10.000000	na
54.163563	0.050191	58.000000	nontarget	11.000000	na
54.213754	0.049343	58.000000	nontarget	12.000000	na
54.263097	0.049834	58.000000	nontarget	13.000000	na
54.312931	0.050686	58.000000	nontarget	14.000000	na
54.363617	0.049939	58.000000	nontarget	15.000000	na
54.413556	0.049454	58.000000	nontarget	16.000000	na
54.463010	0.050498	59.000000	nontarget	1.000000	na
54.513508	0.050030	59.000000	nontarget	2.000000	na
54.563538	0.049509	59.000000	nontarget	3.000000	na
54.613048	0.050282	59.000000	nontarget	4.000000	na
54.663330	0.049829	59.000000	nontarget	5.000000	na
54.713159	0.050162	59.000000	nontarget	6.000000	na
54.763322	0.049491	59.000000	nontarget	7.000000	54.770630
54.812813	0.049998	59.000000	nontarget	8.000000	na
54.862811	0.050679	59.000000	nontarget	9.000000	na
54.913490	0.049668	59.000000	nontarget	10.000000	na
54.963158	0.050322	59.000000	nontarget	11.000000	na
55.013480	0.049963	59.000000	nontarget	12.000000	na
55.063443	0.050024	59.000000	nontarget	13.000000	na
55.113467	0.050183	59.000000	nontarget	14.000000	na
55.163650	0.049837	59.000000	nontarget	15.000000	na
55.213487	0.050017	59.000000	nontarget	16.000000	na
55.263504	0.050051	60.000000	nontarget	1.000000	na
55.313556	0.049283	60.000000	nontarget	2.000000	na
55.362839	0.050064	60.000000	nontarget	3.000000	na
55.412903	0.049772	60.000000	nontarget	4.000000	na
55.462675	0.050333	60.000000	nontarget	5.000000	na
55.513008	0.050544	60.000000	nontarget	6.000000	na
55.563552	0.049643	60.000000	nontarget	7.000000	na
55.613195	0.049991	60.000000	nontarget	8.000000	na
55.663186	0.050058	60.000000	nontarget	9.000000	na
55.713244	0.049560	60.000000	nontarget	10.000000	55.744559
55.762804	0.050470	60.000000	nontarget	11.000000	na
55.813274	0.049909	60.000000	nontarget	12.000000	na
55.863184	0.050363	60.000000	nontarget	13.000000	na
55.913547	0.049352	60.000000	nontarget	14.000000	na
55.962899	0.050493	60.000000	nontarget	15.000000	na
56.013392	0.049604	60.000000	nontarget	16.000000	na
56.062996	0.049710	61.000000	nontarget	1.000000	na
56.112706	0.050577	61.000000	nontarget	2.000000	na
56.163283	0.049624	61.000000	nontarget	3.000000	na
56.212907	0.050194	61.000000	nontarget	4.000000	na
56.263102	0.049708	61.000000	nontarget	5.000000	na
56.312810	0.050653	61.000000	nontarget	6.000000	na
56.363463	0.049106	61.000000	nontarget	7.000000	na
56.412569	0.050223	61.000000	nontarget	8.000000	na
56.462792	0.050444	61.000000	nontarget	9.000000	na
56.513235	0.049752	61.000000	nontarget	10.000000	na
56.562987	0.050464	61.000000	nontarget	11.000000	na
56.613452	0.049715	61.000000	nontarget	12.000000	na
56.663167	0.050203	61.000000	nontarget	13.000000	na
56.713370	0.050063	61.000000	nontarget	14.000000	na
56.763434	0.049942	61.000000	nontarget	15.000000	56.770483
56.813376	0.049760	61.000000	nontarget	16.000000	na
56.863137	0.050143	62.000000	nontarget	1.000000	56.869596
56.913280	0.050097	62.000000	nontarget	2.000000	na
56.963377	0.049431	62.000000	nontarget	3.000000	na
57.012808	0.050407	62.000000	nontarget	4.000000	na
57.063214	0.050016	62.000000	nontarget	5.000000	na
57.113230	0.049817	62.000000	nontarget	6.000000	na
57.163047	0.049838	62.000000	nontarget	7.000000	na
57.212885	0.050439	62.000000	nontarget	8.000000	na
57.263325	0.049493	62.000000	nontarget	9.000000	na
57.312817	0.050509	62.000000	nontarget	10.000000	na
57.363326	0.049607	62.000000	nontarget	11.000000	na
57.412933	0.050184	62.000000	nontarget	12.000000	na
57.463117	0.049409	62.000000	nontarget	13.000000	na
57.512526	0.050770	62.000000	nontarget	14.000000	na
57.563296	0.050216	62.000000	nontarget	15.000000	na
57.613512	0.049930	62.000000	nontarget	16.000000	na
57.663442	0.049242	63.000000	nontarget	1.000000	na
57.712684	0.050618	63.000000	nontarget	2.000000	na
57.763302	0.049864	63.000000	nontarget	3.000000	57.774483
57.813165	0.050041	63.000000	nontarget	4.000000	na
57.863207	0.049340	63.000000	nontarget	5.000000	na
57.912547	0.050436	63.000000	nontarget	6.000000	na
57.962982	0.049390	63.000000	nontarget	7.000000	na
58.012372	0.050799	63.000000	nontarget	8.000000	na
58.063171	0.050119	63.000000	nontarget	9.000000	na
58.113290	0.050195	63.000000	nontarget	10.000000	na
58.163485	0.049142	63.000000	nontarget	11.000000	na
58.212627	0.050452	63.000000	nontarget	12.000000	na
58.263079	0.050091	63.000000	nontarget	13.000000	na
58.313170	0.050135	63.000000	nontarget	14.000000	na
58.363305	0.049928	63.000000	nontarget	15.000000	na
58.413233	0.049931	63.000000	nontarget	16.000000	na
58.463165	0.049496	64.000000	nontarget	1.000000	na
58.512661	0.050590	64.000000	nontarget	2.000000	na
58.563250	0.049979	64.000000	nontarget	3.000000	na
58.613230	0.050002	64.000000	nontarget	4.000000	na
58.663232	0.049429	64.000000	nontarget	5.000000	58.685013
58.712661	0.050608	64.000000	nontarget	6.000000	na
58.763268	0.049418	64.000000	nontarget	7.000000	na
58.812686	0.050548	64.000000	nontarget	8.000000	na
58.863234	0.049527	64.000000	nontarget	9.000000	na
58.912761	0.050509	64.000000	nontarget	10.000000	na
58.963270	0.050263	64.000000	nontarget	11.000000	na
59.013533	0.049183	64.000000	nontarget	12.000000	na
59.062716	0.050578	64.000000	nontarget	13.000000	na
59.113294	0.049867	64.000000	nontarget	14.000000	na
59.163161	0.050303	64.000000	nontarget	15.000000	na
59.213464	0.050044	64.000000	nontarget	16.000000	na
59.263508	0.050111	65.000000	nontarget	1.000000	na
59.313620	0.049476	65.000000	nontarget	2.000000	na
59.363095	0.049991	65.000000	nontarget	3.000000	na
59.413086	0.050090	65.000000	nontarget	4.000000	na
59.463176	0.049761	65.000000	nontarget	5.000000	na
59.512937	0.050253	65.000000	nontarget	6.000000	na
59.563190	0.049654	65.000000	nontarget	7.000000	na
59.612844	0.050341	65.000000	nontarget	8.000000	na
59.663185	0.049925	65.000000	nontarget	9.000000	na
59.713110	0.049980	65.000000	nontarget	10.000000	na
59.763090	0.049659	65.000000	nontarget	11.000000	59.794839
59.812749	0.049860	65.000000	nontarget	12.000000	na
59.862609	0.050607	65.000000	nontarget	13.000000	na
59.913216	0.050075	65.000000	nontarget	14.000000	na
59.963292	0.049944	65.000000	nontarget	15.000000	na
60.013236	0.049474	65.000000	nontarget	16.000000	na
60.062710	0.049846	66.000000	nontarget	1.000000	na
60.112555	0.050546	66.000000	nontarget	2.000000	na
60.163102	0.050399	66.000000	nontarget	3.000000	na
60.213501	0.049566	66.000000	nontarget	4.000000	na
60.263067	0.049980	66.000000	nontarget	5.000000	na
60.313047	0.050083	66.000000	nontarget	6.000000	na
60.363130	0.049788	66.000000	nontarget	7.000000	na
60.412918	0.050304	66.000000	nontarget	8.000000	na
60.463221	0.049954	66.000000	nontarget	9.000000	na
60.513175	0.049948	66.000000	nontarget	10.000000	na
60.563122	0.050100	66.000000	nontarget	11.000000	na
60.613222	0.049880	66.000000	nontarget	12.000000	na
60.663102	0.050003	66.000000	nontarget	13.000000	na
60.713105	0.049345	66.000000	nontarget	14.000000	na
60.762450	0.050922	66.000000	nontarget	15.000000	na
60.813372	0.049070	66.000000	nontarget	16.000000	na
60.862442	0.050411	67.000000	nontarget	1.000000	60.868871
60.912853	0.050315	67.000000	nontarget	2.000000	na
60.963168	0.050306	67.000000	nontarget	3.000000	na
61.013474	0.049434	67.000000	nontarget	4.000000	na
61.062909	0.049909	67.000000	nontarget	5.000000	na
61.112818	0.050372	67.000000	nontarget	6.000000	na
61.163190	0.049900	67.000000	nontarget	7.000000	na
61.213090	0.049259	67.000000	nontarget	8.000000	na
61.262348	0.050629	67.000000	nontarget	9.000000	na
61.312977	0.050197	67.000000	nontarget	10.000000	na
61.363173	0.049322	67.000000	nontarget	11.000000	na
61.412496	0.050547	67.000000	nontarget	12.000000	na
61.463043	0.049562	67.000000	nontarget	13.000000	na
61.512605	0.049939	67.000000	nontarget	14.000000	na
61.562545	0.050614	67.000000	nontarget	15.000000	na
61.613159	0.049930	67.000000	nontarget	16.000000	na
61.663090	0.050284	68.000000	nontarget	1.000000	na
61.713374	0.049277	68.000000	nontarget	2.000000	na
61.762651	0.050312	68.000000	nontarget	3.000000	61.771477
61.812964	0.050109	68.000000	nontarget	4.000000	na
61.863073	0.050119	68.000000	nontarget	5.000000	na
61.913192	0.049092	68.000000	nontarget	6.000000	na
61.962284	0.050774	68.000000	nontarget	7.000000	na
62.013058	0.049917	68.000000	nontarget	8.000000	na
62.062975	0.050068	68.000000	nontarget	9.000000	na
62.113043	0.049946	68.000000	nontarget	10.000000	na
62.162989	0.050030	68.000000	nontarget	11.000000	na
62.213019	0.049528	68.000000	nontarget	12.000000	na
62.262546	0.050533	68.000000	nontarget	13.000000	na
62.313079	0.050193	68.000000	nontarget	14.000000	na
62.363271	0.049741	68.000000	nontarget	15.000000	na
62.413013	0.049450	68.000000	nontarget	16.000000	na
62.462462	0.049977	69.000000	nontarget	1.000000	na
62.512439	0.050842	69.000000	nontarget	2.000000	na
62.563281	0.049732	69.000000	nontarget	3.000000	na
62.613013	0.049678	69.000000	nontarget	4.000000	na
62.662691	0.050264	69.000000	nontarget	5.000000	na
62.712955	0.050891	69.000000	nontarget	6.000000	na
62.763846	0.049098	69.000000	nontarget	7.000000	62.769475
62.812944	0.050208	69.000000	nontarget	8.000000	na
62.863152	0.050157	69.000000	nontarget	9.000000	na
62.913310	0.049859	69.000000	nontarget	10.000000	na
62.963168	0.049830	69.000000	nontarget	11.000000	na
63.012999	0.050102	69.000000	nontarget	12.000000	na
63.063100	0.049885	69.000000	nontarget	13.000000	na
63.112985	0.050008	69.000000	nontarget	14.000000	na
63.162993	0.049975	69.000000	nontarget	15.000000	na
63.212968	0.049631	69.000000	nontarget	16.000000	na
63.262599	0.049819	70.000000	nontarget	1.000000	na
63.312418	0.050797	70.000000	nontarget	2.000000	na
63.363215	0.049583	70.000000	nontarget	3.000000	na
63.412797	0.049438	70.000000	nontarget	4.000000	na
63.462235	0.050720	70.000000	nontarget	5.000000	na
63.512955	0.049366	70.000000	nontarget	6.000000	na
63.562320	0.050372	70.000000	nontarget	7.000000	na
63.612692	0.050518	70.000000	nontarget	8.000000	na
63.663210	0.049863	70.000000	nontarget	9.000000	na
63.713072	0.049466	70.000000	nontarget	10.000000	na
63.762539	0.050325	70.000000	nontarget	11.000000	na
63.812864	0.050186	70.000000	nontarget	12.000000	na
63.863049	0.049822	70.000000	nontarget	13.000000	na
63.912871	0.050065	70.000000	nontarget	14.000000	63.937949
63.962936	0.049987	70.000000	nontarget	15.000000	na
64.012923	0.049561	70.000000	nontarget	16.000000	na
64.062484	0.050183	71.000000	nontarget	1.000000	na
64.112667	0.050171	71.000000	nontarget	2.000000	na
64.162838	0.050053	71.000000	nontarget	3.000000	na
64.212891	0.049605	71.000000	nontarget	4.000000	na
64.262496	0.050166	71.000000	nontarget	5.000000	na
64.312661	0.050223	71.000000	nontarget	6.000000	na
64.362885	0.049782	71.000000	nontarget	7.000000	na
64.412667	0.050142	71.000000	nontarget	8.000000	na
64.462809	0.049843	71.000000	nontarget	9.000000	na
64.512652	0.050141	71.000000	nontarget	10.000000	na
64.562792	0.049850	71.000000	nontarget	11.000000	na
64.612643	0.050279	71.000000	nontarget	12.000000	na
64.662922	0.049849	71.000000	nontarget	13.000000	na
64.712770	0.049693	71.000000	nontarget	14.000000	na
64.762464	0.050335	71.000000	nontarget	15.000000	na
64.812798	0.049348	71.000000	nontarget	16.000000	na
64.862147	0.050768	72.000000	nontarget	1.000000	na
64.912915	0.049935	72.000000	nontarget	2.000000	na
64.962850	0.049276	72.000000	nontarget	3.000000	64.978254
65.012126	0.049973	72.000000	nontarget	4.000000	na
65.062099	0.050051	72.000000	nontarget	5.000000	na
65.112150	0.050620	72.000000	nontarget	6.000000	na
65.162770	0.049717	72.000000	nontarget	7.000000	na
65.212487	0.049930	72.000000	nontarget	8.000000	na
65.262416	0.049674	72.000000	nontarget	9.000000	na
65.312090	0.050671	72.000000	nontarget	10.000000	na
65.362761	0.049665	72.000000	nontarget	11.000000	na
65.412426	0.050463	72.000000	nontarget	12.000000	na
65.462889	0.049708	72.000000	nontarget	13.000000	na
65.512597	0.050065	72.000000	nontarget	14.000000	na
65.562662	0.050260	72.000000	nontarget	15.000000	na
65.612922	0.049811	72.000000	nontarget	16.000000	na
65.662733	0.050167	73.000000	nontarget	1.000000	na
65.712900	0.049767	73.000000	nontarget	2.000000	na
65.762667	0.050098	73.000000	nontarget	3.000000	na
65.812765	0.050014	73.000000	nontarget	4.000000	na
65.862779	0.049935	73.000000	nontarget	5.000000	na
65.912714	0.049957	73.000000	nontarget	6.000000	65.922139
65.962672	0.050091	73.000000	nontarget	7.000000	na
66.012763	0.049331	73.000000	nontarget	8.000000	na
66.062094	0.050653	73.000000	nontarget	9.000000	na
66.112747	0.050025	73.000000	nontarget	10.000000	na
66.162773	0.049294	73.000000	nontarget	11.000000	na
66.212067	0.050654	73.000000	nontarget	12.000000	na
66.262721	0.049394	73.000000	nontarget	13.000000	na
66.312115	0.049880	73.000000	nontarget	14.000000	na
66.361995	0.050904	73.000000	nontarget	15.000000	na
66.412898	0.049359	73.000000	nontarget	16.000000	na
66.462257	0.049883	74.000000	target	1.000000	na
66.512140	0.050608	74.000000	target	2.000000	na
66.562748	0.049974	74.000000	target	3.000000	na
66.612722	0.050043	74.000000	target	4.000000	na
66.662765	0.049574	74.000000	target	5.000000	na
66.712339	0.050321	74.000000	target	6.000000	na
66.762659	0.049997	74.000000	target	7.000000	na
66.812656	0.049173	74.000000	target	8.000000	na
66.861830	0.051070	74.000000	target	9.000000	na
66.912900	0.048925	74.000000	target	10.000000	na
66.961824	0.050573	74.000000	target	11.000000	na
67.012397	0.050244	74.000000	target	12.000000	na
67.062641	0.049593	74.000000	target	13.000000	na
67.112234	0.050658	74.000000	target	14.000000	na
67.162892	0.049657	74.000000	target	15.000000	na
67.212549	0.049663	74.000000	target	16.000000	na
67.262211	0.050440	75.000000	nontarget	1.000000	na
67.312651	0.049458	75.000000	nontarget	2.000000	67.344403
67.362109	0.050576	75.000000	nontarget	3.000000	na
67.412686	0.050191	75.000000	nontarget	4.000000	na
67.462877	0.049538	75.000000	nontarget	5.000000	na
67.512415	0.050282	75.000000	nontarget	6.000000	na
67.562697	0.049919	75.000000	nontarget	7.000000	na
67.612616	0.050002	75.000000	nontarget	8.000000	na
67.662618	0.049910	75.000000	nontarget	9.000000	na
67.712527	0.050059	75.000000	nontarget	10.000000	na
67.762586	0.050052	75.000000	nontarget	11.000000	na
67.812638	0.050008	75.000000	nontarget	12.000000	na
67.862645	0.049993	75.000000	nontarget	13.000000	na
67.912638	0.050191	75.000000	nontarget	14.000000	na
67.962829	0.049783	75.000000	nontarget	15.000000	na
68.012612	0.049486	75.000000	nontarget	16.000000	na
68.062098	0.049607	76.000000	target	1.000000	na
68.111705	0.050991	76.000000	target	2.000000	na
68.162697	0.049711	76.000000	target	3.000000	na
68.212408	0.049627	76.000000	target	4.000000	na
68.262035	0.050438	76.000000	target	5.000000	na
68.312473	0.049796	76.000000	target	6.000000	na
68.362269	0.050359	76.000000	target	7.000000	na
68.412628	0.049284	76.000000	target	8.000000	na
68.461913	0.050594	76.000000	target	9.000000	na
68.512507	0.050214	76.000000	target	10.000000	na
68.562721	0.049111	76.000000	target	11.000000	na
68.611832	0.050777	76.000000	target	12.000000	na
68.662609	0.050006	76.000000	target	13.000000	na
68.712615	0.050122	76.000000	target	14.000000	na
68.762737	0.049487	76.000000	target	15.000000	na
68.812224	0.050030	76.000000	target	16.000000	na
68.862254	0.050349	77.000000	nontarget	1.000000	na
68.912602	0.049923	77.000000	nontarget	2.000000	na
68.962526	0.050201	77.000000	nontarget	3.000000	na
69.012727	0.049834	77.000000	nontarget	4.000000	69.019222
69.062561	0.049110	77.000000	nontarget	5.000000	na
69.111670	0.050945	77.000000	nontarget	6.000000	na
69.162615	0.050015	77.000000	nontarget	7.000000	na
69.212631	0.049954	77.000000	nontarget	8.000000	na
69.262585	0.050013	77.000000	nontarget	9.000000	na
69.312598	0.049715	77.000000	nontarget	10.000000	na
69.362312	0.050468	77.000000	nontarget	11.000000	na
69.412780	0.049780	77.000000	nontarget	12.000000	na
69.462560	0.049884	77.000000	nontarget	13.000000	na
69.512444	0.050276	77.000000	nontarget	14.000000	na
69.562720	0.049293	77.000000	nontarget	15.000000	na
69.612013	0.050125	77.000000	nontarget	16.000000	na
69.662139	0.050116	78.000000	nontarget	1.000000	na
69.712255	0.050315	78.000000	nontarget	2.000000	na
69.762569	0.049780	78.000000	nontarget	3.000000	na
69.812349	0.049961	78.000000	nontarget	4.000000	na
69.862310	0.050255	78.000000	nontarget	5.000000	na
69.912565	0.049982	78.000000	nontarget	6.000000	69.918603
69.962547	0.049857	78.000000	nontarget	7.000000	na
70.012404	0.049673	78.000000	nontarget	8.000000	na
70.062077	0.049815	78.000000	nontarget	9.000000	na
70.111892	0.050705	78.000000	nontarget	10.000000	na
70.162597	0.050070	78.000000	nontarget	11.000000	na
70.212667	0.049882	78.000000	nontarget	12.000000	na
70.262549	0.050026	78.000000	nontarget	13.000000	na
70.312574	0.050007	78.000000	nontarget	14.000000	na
70.362582	0.049938	78.000000	nontarget	15.000000	na
70.412519	0.049988	78.000000	nontarget	16.000000	na
70.462508	0.049874	79.000000	nontarget	1.000000	na
70.512382	0.049983	79.000000	nontarget	2.000000	na
70.562364	0.049939	79.000000	nontarget	3.000000	na
70.612303	0.050160	79.000000	nontarget	4.000000	na
70.662464	0.049832	79.000000	nontarget	5.000000	na
70.712296	0.050161	79.000000	nontarget	6.000000	na
70.762456	0.050129	79.000000	nontarget	7.000000	na
70.812585	0.049899	79.000000	nontarget	8.000000	na
70.862484	0.049870	79.000000	nontarget	9.000000	na
70.912354	0.053888	79.000000	nontarget	10.000000	70.936723
70.966241	0.046216	79.000000	nontarget	11.000000	na
71.012458	0.049747	79.000000	nontarget	12.000000	na
71.062205	0.049743	79.000000	nontarget	13.000000	na
71.111947	0.050409	79.000000	nontarget	14.000000	na
71.162357	0.050155	79.000000	nontarget	15.000000	na
71.212512	0.049696	79.000000	nontarget	16.000000	na
71.262207	0.049918	80.000000	nontarget	1.000000	na
71.312125	0.049973	80.000000	nontarget	2.000000	na
71.362098	0.050351	80.000000	nontarget	3.000000	na
71.412449	0.049296	80.000000	nontarget	4.000000	na
71.461745	0.050522	80.000000	nontarget	5.000000	na
71.512267	0.050192	80.000000	nontarget	6.000000	na
71.562458	0.049735	80.000000	nontarget	7.000000	na
71.612193	0.050367	80.000000	nontarget	8.000000	na
71.662560	0.049611	80.000000	nontarget	9.000000	na
71.712171	0.050234	80.000000	nontarget	10.000000	na
71.762406	0.050135	80.000000	nontarget	11.000000	na
71.812541	0.049903	80.000000	nontarget	12.000000	na
71.862444	0.051242	80.000000	nontarget	13.000000	na
71.913686	0.048861	80.000000	nontarget	14.000000	71.918919
71.962547	0.049880	80.000000	nontarget	15.000000	na
72.012427	0.049620	80.000000	nontarget	16.000000	na
72.062047	0.050347	81.000000	nontarget	1.000000	na
72.112394	0.049762	81.000000	nontarget	2.000000	na
72.162156	0.049821	81.000000	nontarget	3.000000	na
72.211977	0.050546	81.000000	nontarget	4.000000	na
72.262523	0.049843	81.000000	nontarget	5.000000	na
72.312365	0.049441	81.000000	nontarget	6.000000	na
72.361807	0.050540	81.000000	nontarget	7.000000	na
72.412347	0.050127	81.000000	nontarget	8.000000	na
72.462474	0.049814	81.000000	nontarget	9.000000	na
72.512288	0.049786	81.000000	nontarget	10.000000	na
72.562074	0.050295	81.000000	nontarget	11.000000	na
72.612369	0.049525	81.000000	nontarget	12.000000	na
72.661893	0.050147	81.000000	nontarget	13.000000	na
72.712040	0.050110	81.000000	nontarget	14.000000	na
72.762151	0.049614	81.000000	nontarget	15.000000	na
72.811765	0.050526	81.000000	nontarget	16.000000	na
72.862291	0.049464	82.000000	nontarget	1.000000	na
72.911755	0.050762	82.000000	nontarget	2.000000	72.936501
72.962517	0.049401	82.000000	nontarget	3.000000	na
73.011918	0.050287	82.000000	nontarget	4.000000	na
73.062205	0.050168	82.000000	nontarget	5.000000	na
73.112374	0.050132	82.000000	nontarget	6.000000	na
73.162505	0.050019	82.000000	nontarget	7.000000	na
73.212524	0.049989	82.000000	nontarget	8.000000	na
73.262513	0.049140	82.000000	nontarget	9.000000	na
73.311653	0.050137	82.000000	nontarget	10.000000	na
73.361790	0.050527	82.000000	nontarget	11.000000	na
73.412317	0.049593	82.000000	nontarget	12.000000	na
73.461910	0.050386	82.000000	nontarget	13.000000	na
73.512296	0.049895	82.000000	nontarget	14.000000	na
73.562191	0.050085	82.000000	nontarget	15.000000	na
73.612277	0.049560	82.000000	nontarget	16.000000	na
73.661837	0.050027	83.000000	nontarget	1.000000	na
73.711864	0.050441	83.000000	nontarget	2.000000	na
73.762304	0.051932	83.000000	nontarget	3.000000	na
73.814236	0.047870	83.000000	nontarget	4.000000	73.819919
73.862106	0.049505	83.000000	nontarget	5.000000	na
73.911611	0.050373	83.000000	nontarget	6.000000	na
73.961984	0.050262	83.000000	nontarget	7.000000	na
74.012246	0.049771	83.000000	nontarget	8.000000	na
74.062017	0.050439	83.000000	nontarget	9.000000	na
74.112456	0.049867	83.000000	nontarget	10.000000	na
74.162323	0.049677	83.000000	nontarget	11.000000	na
74.212000	0.050536	83.000000	nontarget	12.000000	na
74.262536	0.049117	83.000000	nontarget	13.000000	na
74.311653	0.050609	83.000000	nontarget	14.000000	na
74.362262	0.050004	83.000000	nontarget	15.000000	na
74.412266	0.049960	83.000000	nontarget	16.000000	na
74.462226	0.049435	84.000000	nontarget	1.000000	na
74.511661	0.050520	84.000000	nontarget	2.000000	na
74.562181	0.050224	84.000000	nontarget	3.000000	na
74.612405	0.050049	84.000000	nontarget	4.000000	na
74.662454	0.049689	84.000000	nontarget	5.000000	na
74.712143	0.050028	84.000000	nontarget	6.000000	na
74.762171	0.050086	84.000000	nontarget	7.000000	na
74.812258	0.050280	84.000000	nontarget	8.000000	74.847670
74.862537	0.049160	84.000000	nontarget	9.000000	na
74.911698	0.050532	84.000000	nontarget	10.000000	na
74.962229	0.049785	84.000000	nontarget	11.000000	na
75.012015	0.050147	84.000000	nontarget	12.000000	na
75.062161	0.050009	84.000000	nontarget	13.000000	na
75.112170	0.049970	84.000000	nontarget	14.000000	na
75.162141	0.050006	84.000000	nontarget	15.000000	na
75.212147	0.050341	84.000000	nontarget	16.000000	na
75.262488	0.049739	85.000000	nontarget	1.000000	na
75.312227	0.049903	85.000000	nontarget	2.000000	na
75.362130	0.049970	85.000000	nontarget	3.000000	na
75.412100	0.050066	85.000000	nontarget	4.000000	na
75.462166	0.049488	85.000000	nontarget	5.000000	na
75.511654	0.050476	85.000000	nontarget	6.000000	na
75.562130	0.050036	85.000000	nontarget	7.000000	na
75.612166	0.050277	85.000000	nontarget	8.000000	na
75.662443	0.049691	85.000000	nontarget	9.000000	na
75.712133	0.050308	85.000000	nontarget	10.000000	na
75.762441	0.049851	85.000000	nontarget	11.000000	na
75.812292	0.049839	85.000000	nontarget	12.000000	na
75.862131	0.049527	85.000000	nontarget	13.000000	na
75.911658	0.050517	85.000000	nontarget	14.000000	75.931284
75.962175	0.050138	85.000000	nontarget	15.000000	na
76.012313	0.049671	85.000000	nontarget	16.000000	na
76.061984	0.049928	86.000000	nontarget	1.000000	76.068498
76.111912	0.050302	86.000000	nontarget	2.000000	na
76.162214	0.049475	86.000000	nontarget	3.000000	na
76.211689	0.050044	86.000000	nontarget	4.000000	na
76.261733	0.050582	86.000000	nontarget	5.000000	na
76.312315	0.050076	86.000000	nontarget	6.000000	na
76.362391	0.049939	86.000000	nontarget	7.000000	na
76.412330	0.049429	86.000000	nontarget	8.000000	na
76.461760	0.050112	86.000000	nontarget	9.000000	na
76.511872	0.049687	86.000000	nontarget	10.000000	na
76.561558	0.050798	86.000000	nontarget	11.000000	na
76.612357	0.049972	86.000000	nontarget	12.000000	na
76.662329	0.049789	86.000000	nontarget	13.000000	na
76.712118	0.049945	86.000000	nontarget	14.000000	na
76.762062	0.049800	86.000000	nontarget	15.000000	na
76.811862	0.050498	86.000000	nontarget	16.000000	na
76.862361	0.049487	87.000000	nontarget	1.000000	na
76.911847	0.050160	87.000000	nontarget	2.000000	na
76.962007	0.050093	87.000000	nontarget	3.000000	76.973294
77.012100	0.049877	87.000000	nontarget	4.000000	na
77.061976	0.049773	87.000000	nontarget	5.000000	na
77.111749	0.049548	87.000000	nontarget	6.000000	na
77.161297	0.050559	87.000000	nontarget	7.000000	na
77.211856	0.049559	87.000000	nontarget	8.000000	na
77.261414	0.050187	87.000000	nontarget	9.000000	na
77.311601	0.049958	87.000000	nontarget	10.000000	na
77.361559	0.050415	87.000000	nontarget	11.000000	na
77.411974	0.049862	87.000000	nontarget	12.000000	na
77.461836	0.050306	87.000000	nontarget	13.000000	na
77.512142	0.049978	87.000000	nontarget	14.000000	na
77.562120	0.049886	87.000000	nontarget	15.000000	na
77.612006	0.050302	87.000000	nontarget	16.000000	na
77.662308	0.049747	88.000000	nontarget	1.000000	na
77.712056	0.049769	88.000000	nontarget	2.000000	na
77.761825	0.049742	88.000000	nontarget	3.000000	na
77.811567	0.050484	88.000000	nontarget	4.000000	na
77.862051	0.050311	88.000000	nontarget	5.000000	77.889062
77.912361	0.049891	88.000000	nontarget	6.000000	na
77.962253	0.049092	88.000000	nontarget	7.000000	na
78.011344	0.050952	88.000000	nontarget	8.000000	na
78.062296	0.049542	88.000000	nontarget	9.000000	na
78.111838	0.050328	88.000000	nontarget	10.000000	na
78.162166	0.050074	88.000000	nontarget	11.000000	na
78.212240	0.049742	88.000000	nontarget	12.000000	na
78.261982	0.049978	88.000000	nontarget	13.000000	na
78.311960	0.050342	88.000000	nontarget	14.000000	na
78.362302	0.049690	88.000000	nontarget	15.000000	na
78.411992	0.050292	88.000000	nontarget	16.000000	na
78.462284	0.049955	89.000000	nontarget	1.000000	na
78.512238	0.049102	89.000000	nontarget	2.000000	na
78.561340	0.050453	89.000000	nontarget	3.000000	na
78.611793	0.050321	89.000000	nontarget	4.000000	na
78.662114	0.050177	89.000000	nontarget	5.000000	na
78.712291	0.049647	89.000000	nontarget	6.000000	na
78.761937	0.049710	89.000000	nontarget	7.000000	na
78.811647	0.049762	89.000000	nontarget	8.000000	na
78.861410	0.049932	89.000000	nontarget	9.000000	na
78.911341	0.050541	89.000000	nontarget	10.000000	na
78.961882	0.050110	89.000000	nontarget	11.000000	na
79.011992	0.049657	89.000000	nontarget	12.000000	na
79.061649	0.049465	89.000000	nontarget	13.000000	na
79.111113	0.050859	89.000000	nontarget	14.000000	79.118165
79.161972	0.049991	89.000000	nontarget	15.000000	na
79.211963	0.049545	89.000000	nontarget	16.000000	na
79.261508	0.050443	90.000000	nontarget	1.000000	na
79.311951	0.049913	90.000000	nontarget	2.000000	na
79.361864	0.049441	90.000000	nontarget	3.000000	na
79.411306	0.050118	90.000000	nontarget	4.000000	na
79.461424	0.049580	90.000000	nontarget	5.000000	na
79.511004	0.050916	90.000000	nontarget	6.000000	na
79.561919	0.049568	90.000000	nontarget	7.000000	na
79.611488	0.050381	90.000000	nontarget	8.000000	na
79.661869	0.049790	90.000000	nontarget	9.000000	na
79.711659	0.050365	90.000000	nontarget	10.000000	na
79.762024	0.049903	90.000000	nontarget	11.000000	na
79.811927	0.050114	90.000000	nontarget	12.000000	na
79.862041	0.049703	90.000000	nontarget	13.000000	na
79.911744	0.049932	90.000000	nontarget	14.000000	na
79.961676	0.051854	90.000000	nontarget	15.000000	na
80.013530	0.048457	90.000000	nontarget	16.000000	80.018685
80.061988	0.049944	91.000000	nontarget	1.000000	80.068459
80.111932	0.049989	91.000000	nontarget	2.000000	na
80.161920	0.049556	91.000000	nontarget	3.000000	na
80.211476	0.050527	91.000000	nontarget	4.000000	na
80.262003	0.049005	91.000000	nontarget	5.000000	na
80.311008	0.050757	91.000000	nontarget	6.000000	na
80.361765	0.049860	91.000000	nontarget	7.000000	na
80.411624	0.050262	91.000000	nontarget	8.000000	na
80.461886	0.049618	91.000000	nontarget	9.000000	na
80.511504	0.050070	91.000000	nontarget	10.000000	na
80.561574	0.049855	91.000000	nontarget	11.000000	na
80.611430	0.050595	91.000000	nontarget	12.000000	na
80.662025	0.049268	91.000000	nontarget	13.000000	na
80.711293	0.050635	91.000000	nontarget	14.000000	na
80.761928	0.049936	91.000000	nontarget	15.000000	na
80.811864	0.049909	91.000000	nontarget	16.000000	na
80.861773	0.049125	92.000000	nontarget	1.000000	80.883973
80.910899	0.050872	92.000000	nontarget	2.000000	na
80.961771	0.050076	92.000000	nontarget	3.000000	na
81.011847	0.049449	92.000000	nontarget	4.000000	na
81.061295	0.049736	92.000000	nontarget	5.000000	na
81.111031	0.050799	92.000000	nontarget	6.000000	na
81.161830	0.049988	92.000000	nontarget	7.000000	na
81.211819	0.049897	92.000000	nontarget	8.000000	na
81.261716	0.049514	92.000000	nontarget	9.000000	na
81.311230	0.049907	92.000000	nontarget	10.000000	na
81.361137	0.050716	92.000000	nontarget	11.000000	na
81.411853	0.049755	92.000000	nontarget	12.000000	na
81.461608	0.049687	92.000000	nontarget	13.000000	na
81.511295	0.050607	92.000000	nontarget	14.000000	na
81.561902	0.050001	92.000000	nontarget	15.000000	na
81.611903	0.049924	92.000000	nontarget	16.000000	na
81.661827	0.049995	93.000000	nontarget	1.000000	na
81.711822	0.049215	93.000000	nontarget	2.000000	na
81.761037	0.049983	93.000000	nontarget	3.000000	na
81.811021	0.050723	93.000000	nontarget	4.000000	na
81.861744	0.050039	93.000000	nontarget	5.000000	na
81.911783	0.049685	93.000000	nontarget	6.000000	na
81.961468	0.050326	93.000000	nontarget	7.000000	na
82.011795	0.050072	93.000000	nontarget	8.000000	82.028415
82.061867	0.049599	93.000000	nontarget	9.000000	na
82.111466	0.050357	93.000000	nontarget	10.000000	na
82.161823	0.049889	93.000000	nontarget	11.000000	na
82.211712	0.049963	93.000000	nontarget	12.000000	na
82.261675	0.049975	93.000000	nontarget	13.000000	na
82.311650	0.050330	93.000000	nontarget	14.000000	na
82.361979	0.048947	93.000000	nontarget	15.000000	na
82.410926	0.050487	93.000000	nontarget	16.000000	na
82.461414	0.050316	94.000000	nontarget	1.000000	na
82.511729	0.050324	94.000000	nontarget	2.000000	na
82.562053	0.049842	94.000000	nontarget	3.000000	na
82.611895	0.049891	94.000000	nontarget	4.000000	na
82.661786	0.049205	94.000000	nontarget	5.000000	na
82.710990	0.050700	94.000000	nontarget	6.000000	na
82.761691	0.050123	94.000000	nontarget	7.000000	na
82.811814	0.049284	94.000000	nontarget	8.000000	na
82.861097	0.050587	94.000000	nontarget	9.000000	na
82.911684	0.049158	94.000000	nontarget	10.000000	na
82.960842	0.050840	94.000000	nontarget	11.000000	na
83.011682	0.049761	94.000000	nontarget	12.000000	na
83.061443	0.050246	94.000000	nontarget	13.000000	na
83.111690	0.049996	94.000000	nontarget	14.000000	na
83.161685	0.049882	94.000000	nontarget	15.000000	na
83.211568	0.049702	94.000000	nontarget	16.000000	83.218163
83.261270	0.050372	95.000000	nontarget	1.000000	83.267772
83.311642	0.050225	95.000000	nontarget	2.000000	na
83.361867	0.049916	95.000000	nontarget	3.000000	na
83.411783	0.049566	95.000000	nontarget	4.000000	na
83.461349	0.050364	95.000000	nontarget	5.000000	na
83.511714	0.050159	95.000000	nontarget	6.000000	na
83.561873	0.049234	95.000000	nontarget	7.000000	na
83.611108	0.050550	95.000000	nontarget	8.000000	na
83.661658	0.049888	95.000000	nontarget	9.000000	na
83.711546	0.049717	95.000000	nontarget	10.000000	na
83.761264	0.050340	95.000000	nontarget	11.000000	na
83.811604	0.049987	95.000000	nontarget	12.000000	na
83.861591	0.050103	95.000000	nontarget	13.000000	na
83.911694	0.050157	95.000000	nontarget	14.000000	na
83.961851	0.049475	95.000000	nontarget	15.000000	na
84.011326	0.050420	95.000000	nontarget	16.000000	na
84.061745	0.049318	96.000000	target	1.000000	na
84.111064	0.050533	96.000000	target	2.000000	na
84.161597	0.049668	96.000000	target	3.000000	na
84.211265	0.050382	96.000000	target	4.000000	na
84.261647	0.049348	96.000000	target	5.000000	na
84.310995	0.050437	96.000000	target	6.000000	na
84.361432	0.050403	96.000000	target	7.000000	na
84.411835	0.049693	96.000000	target	8.000000	na
84.461529	0.050105	96.000000	target	9.000000	na
84.511634	0.049963	96.000000	target	10.000000	na
84.561596	0.049226	96.000000	target	11.000000	na
84.610822	0.050768	96.000000	target	12.000000	na
84.661591	0.050128	96.000000	target	13.000000	na
84.711719	0.049996	96.000000	target	14.000000	na
84.761715	0.049113	96.000000	target	15.000000	na
84.810827	0.050677	96.000000	target	16.000000	na
84.861505	0.049946	97.000000	nontarget	1.000000	na
84.911451	0.049867	97.000000	nontarget	2.000000	na
84.961318	0.050244	97.000000	nontarget	3.000000	84.968014
85.011562	0.049652	97.000000	nontarget	4.000000	na
85.061214	0.049656	97.000000	nontarget	5.000000	na
85.110870	0.050753	97.000000	nontarget	6.000000	na
85.161623	0.049924	97.000000	nontarget	7.000000	na
85.211546	0.049503	97.000000	nontarget	8.000000	na
85.261050	0.050502	97.000000	nontarget	9.000000	na
85.311552	0.049979	97.000000	nontarget	10.000000	na
85.361531	0.049412	97.000000	nontarget	11.000000	na
85.410943	0.049921	97.000000	nontarget	12.000000	na
85.460863	0.050018	97.000000	nontarget	13.000000	na
85.510881	0.050826	97.000000	nontarget	14.000000	na
85.561707	0.050116	97.000000	nontarget	15.000000	na
85.611822	0.049717	97.000000	nontarget	16.000000	na
85.661539	0.049888	98.000000	nontarget	1.000000	na
85.711427	0.049658	98.000000	nontarget	2.000000	na
85.761085	0.050452	98.000000	nontarget	3.000000	na
85.811537	0.049080	98.000000	nontarget	4.000000	na
85.860617	0.050395	98.000000	nontarget	5.000000	85.867888
85.911012	0.050124	98.000000	nontarget	6.000000	na
85.961136	0.050173	98.000000	nontarget	7.000000	na
86.011310	0.049383	98.000000	nontarget	8.000000	na
86.060692	0.050731	98.000000	nontarget	9.000000	na
86.111423	0.049543	98.000000	nontarget	10.000000	na
86.160966	0.050304	98.000000	nontarget	11.000000	na
86.211269	0.050371	98.000000	nontarget	12.000000	na
86.261640	0.049657	98.000000	nontarget	13.000000	na
86.311297	0.049462	98.000000	nontarget	14.000000	na
86.360759	0.050603	98.000000	nontarget	15.000000	na
86.411362	0.050119	98.000000	nontarget	16.000000	na
86.461481	0.049972	99.000000	nontarget	1.000000	na
86.511453	0.049886	99.000000	nontarget	2.000000	na
86.561339	0.050029	99.000000	nontarget	3.000000	na
86.611368	0.049811	99.000000	nontarget	4.000000	na
86.661179	0.049589	99.000000	nontarget	5.000000	na
86.710769	0.050671	99.000000	nontarget	6.000000	na
86.761440	0.049948	99.000000	nontarget	7.000000	na
86.811388	0.050055	99.000000	nontarget	8.000000	na
86.861443	0.050030	99.000000	nontarget	9.000000	na
86.911473	0.049493	99.000000	nontarget	10.000000	na
86.960966	0.050309	99.000000	nontarget	11.000000	na
87.011274	0.049662	99.000000	nontarget	12.000000	na
87.060936	0.050494	99.000000	nontarget	13.000000	87.083579
87.111431	0.049868	99.000000	nontarget	14.000000	na
87.161298	0.050070	99.000000	nontarget	15.000000	na
87.211368	0.050288	99.000000	nontarget	16.000000	na
87.261655	0.049666	100.000000	nontarget	1.000000	na
87.311322	0.050084	100.000000	nontarget	2.000000	na
87.361406	0.050038	100.000000	nontarget	3.000000	na
87.411444	0.049463	100.000000	nontarget	4.000000	na
87.460907	0.050495	100.000000	nontarget	5.000000	na
87.511403	0.049506	100.000000	nontarget	6.000000	na
87.560909	0.050249	100.000000	nontarget	7.000000	na
87.611158	0.050399	100.000000	nontarget	8.000000	na
87.661557	0.049520	100.000000	nontarget	9.000000	na
87.711077	0.050351	100.000000	nontarget	10.000000	na
87.761428	0.049846	100.000000	nontarget	11.000000	na
87.811275	0.050146	100.000000	nontarget	12.000000	na
87.861421	0.049993	100.000000	nontarget	13.000000	na
87.911414	0.049717	100.000000	nontarget	14.000000	na
87.961132	0.049166	100.000000	nontarget	15.000000	na
88.010298	0.050925	100.000000	nontarget	16.000000	na
88.061222	0.050373	101.000000	nontarget	1.000000	88.080805
88.111595	0.049786	101.000000	nontarget	2.000000	na
88.161381	0.050215	101.000000	nontarget	3.000000	na
88.211596	0.049764	101.000000	nontarget	4.000000	na
88.261360	0.049960	101.000000	nontarget	5.000000	na
88.311320	0.050015	101.000000	nontarget	6.000000	na
88.361335	0.050233	101.000000	nontarget	7.000000	na
88.411568	0.049350	101.000000	nontarget	8.000000	na
88.460918	0.050463	101.000000	nontarget	9.000000	na
88.511381	0.049982	101.000000	nontarget	10.000000	na
88.561363	0.049900	101.000000	nontarget	11.000000	na
88.611262	0.049764	101.000000	nontarget	12.000000	na
88.661026	0.050336	101.000000	nontarget	13.000000	na
88.711362	0.049941	101.000000	nontarget	14.000000	na
88.761303	0.050043	101.000000	nontarget	15.000000	na
88.811345	0.049487	101.000000	nontarget	16.000000	na
88.860832	0.050489	102.000000	nontarget	1.000000	88.876712
88.911322	0.049681	102.000000	nontarget	2.000000	na
88.961003	0.050356	102.000000	nontarget	3.000000	na
89.011359	0.050011	102.000000	nontarget	4.000000	na
89.061370	0.049482	102.000000	nontarget	5.000000	na
89.110851	0.050111	102.000000	nontarget	6.000000	na
89.160962	0.050414	102.000000	nontarget	7.000000	na
89.211376	0.050257	102.000000	nontarget	8.000000	na
89.261633	0.049687	102.000000	nontarget	9.000000	na
89.311319	0.049472	102.000000	nontarget	10.000000	na
89.360791	0.050542	102.000000	nontarget	11.000000	na
89.411333	0.050069	102.000000	nontarget	12.000000	na
89.461403	0.049862	102.000000	nontarget	13.000000	na
89.511265	0.050276	102.000000	nontarget	14.000000	na
89.561541	0.049733	102.000000	nontarget	15.000000	na
89.611275	0.049399	102.000000	nontarget	16.000000	na
89.660673	0.050521	103.000000	target	1.000000	na
89.711194	0.050141	103.000000	target	2.000000	na
89.761335	0.049935	103.000000	target	3.000000	na
89.811270	0.050136	103.000000	target	4.000000	na
89.861406	0.049247	103.000000	target	5.000000	na
89.910653	0.050457	103.000000	target	6.000000	na
89.961110	0.050517	103.000000	target	7.000000	na
90.011627	0.049706	103.000000	target	8.000000	na
90.061333	0.049444	103.000000	target	9.000000	na
90.110777	0.050217	103.000000	target	10.000000	na
90.160993	0.050075	103.000000	target	11.000000	na
90.211069	0.050155	103.000000	target	12.000000	na
90.261223	0.050263	103.000000	target	13.000000	na
90.311487	0.049862	103.000000	target	14.000000	na
90.361348	0.050220	103.000000	target	15.000000	na
90.411568	0.049909	103.000000	target	16.000000	na
90.461478	0.048952	104.000000	nontarget	1.000000	na
90.510430	0.050633	104.000000	nontarget	2.000000	90.525841
90.561063	0.050004	104.000000	nontarget	3.000000	na
90.611067	0.049863	104.000000	nontarget	4.000000	na
90.660929	0.050062	104.000000	nontarget	5.000000	na
90.710991	0.049912	104.000000	nontarget	6.000000	na
90.760904	0.050372	104.000000	nontarget	7.000000	na
90.811275	0.050256	104.000000	nontarget	8.000000	na
90.861531	0.049667	104.000000	nontarget	9.000000	na
90.911199	0.049690	104.000000	nontarget	10.000000	na
90.960888	0.050540	104.000000	nontarget	11.000000	na
91.011429	0.049655	104.000000	nontarget	12.000000	na
91.061084	0.050488	104.000000	nontarget	13.000000	na
91.111572	0.049710	104.000000	nontarget	14.000000	na
91.161282	0.049344	104.000000	nontarget	15.000000	na
91.210625	0.050703	104.000000	nontarget	16.000000	na
91.261329	0.050220	105.000000	nontarget	1.000000	na
91.311549	0.049775	105.000000	nontarget	2.000000	na
91.361324	0.050084	105.000000	nontarget	3.000000	91.372689
91.411408	0.049311	105.000000	nontarget	4.000000	na
91.460718	0.049870	105.000000	nontarget	5.000000	na
91.510589	0.050362	105.000000	nontarget	6.000000	na
91.560951	0.050318	105.000000	nontarget	7.000000	na
91.611269	0.050205	105.000000	nontarget	8.000000	na
91.661474	0.049057	105.000000	nontarget	9.000000	na
91.710530	0.050526	105.000000	nontarget	10.000000	na
91.761056	0.049445	105.000000	nontarget	11.000000	na
91.810501	0.050565	105.000000	nontarget	12.000000	na
91.861067	0.049986	105.000000	nontarget	13.000000	na
91.911052	0.050361	105.000000	nontarget	14.000000	na
91.961414	0.049735	105.000000	nontarget	15.000000	na
92.011149	0.049343	105.000000	nontarget	16.000000	na
92.060492	0.037160	106.000000	nontarget	1.000000	na
92.097651	0.046574	106.000000	nontarget	2.000000	na
92.144225	0.050222	106.000000	nontarget	3.000000	na
92.194447	0.050219	106.000000	nontarget	4.000000	na
92.244666	0.049807	106.000000	nontarget	5.000000	92.251955
92.294473	0.049752	106.000000	nontarget	6.000000	na
92.344225	0.050243	106.000000	nontarget	7.000000	na
92.394468	0.050283	106.000000	nontarget	8.000000	na
92.444751	0.049788	106.000000	nontarget	9.000000	na
92.494539	0.049695	106.000000	nontarget	10.000000	na
92.544234	0.049552	106.000000	nontarget	11.000000	na
92.593787	0.050841	106.000000	nontarget	12.000000	na
92.644628	0.049815	106.000000	nontarget	13.000000	na
92.694443	0.049744	106.000000	nontarget	14.000000	na
92.744187	0.049799	106.000000	nontarget	15.000000	na
92.793986	0.050389	106.000000	nontarget	16.000000	na
92.844374	0.049377	107.000000	nontarget	1.000000	na
92.893751	0.050532	107.000000	nontarget	2.000000	na
92.944283	0.050296	107.000000	nontarget	3.000000	na
92.994578	0.049809	107.000000	nontarget	4.000000	na
93.044388	0.049686	107.000000	nontarget	5.000000	na
93.094074	0.050610	107.000000	nontarget	6.000000	93.101286
93.144684	0.048975	107.000000	nontarget	7.000000	na
93.193659	0.050275	107.000000	nontarget	8.000000	na
93.243934	0.050502	107.000000	nontarget	9.000000	na
93.294436	0.049785	107.000000	nontarget	10.000000	na
93.344221	0.050443	107.000000	nontarget	11.000000	na
93.394664	0.049725	107.000000	nontarget	12.000000	na
93.444390	0.050011	107.000000	nontarget	13.000000	na
93.494401	0.049306	107.000000	nontarget	14.000000	na
93.543707	0.050653	107.000000	nontarget	15.000000	na
93.594360	0.049920	107.000000	nontarget	16.000000	na
93.644280	0.050057	108.000000	nontarget	1.000000	na
93.694338	0.049444	108.000000	nontarget	2.000000	na
93.743782	0.050547	108.000000	nontarget	3.000000	na
93.794330	0.050108	108.000000	nontarget	4.000000	na
93.844438	0.049960	108.000000	nontarget	5.000000	na
93.894397	0.049831	108.000000	nontarget	6.000000	na
93.944228	0.049865	108.000000	nontarget	7.000000	93.971091
93.994094	0.049729	108.000000	nontarget	8.000000	na
94.043823	0.050674	108.000000	nontarget	9.000000	na
94.094496	0.049139	108.000000	nontarget	10.000000	na
94.143635	0.050559	108.000000	nontarget	11.000000	na
94.194194	0.049755	108.000000	nontarget	12.000000	na
94.243949	0.050214	108.000000	nontarget	13.000000	na
94.294163	0.050130	108.000000	nontarget	14.000000	na
94.344293	0.050019	108.000000	nontarget	15.000000	na
94.394312	0.050068	108.000000	nontarget	16.000000	na
94.444380	0.049669	109.000000	nontarget	1.000000	na
94.494050	0.049666	109.000000	nontarget	2.000000	na
94.543716	0.050550	109.000000	nontarget	3.000000	na
94.594266	0.049848	109.000000	nontarget	4.000000	na
94.644115	0.050239	109.000000	nontarget	5.000000	na
94.694354	0.049809	109.000000	nontarget	6.000000	na
94.744163	0.050120	109.000000	nontarget	7.000000	na
94.794283	0.050016	109.000000	nontarget	8.000000	na
94.844299	0.049873	109.000000	nontarget	9.000000	na
94.894172	0.049795	109.000000	nontarget	10.000000	na
94.943967	0.049555	109.000000	nontarget	11.000000	94.955483
94.993522	0.050790	109.000000	nontarget	12.000000	na
95.044313	0.049985	109.000000	nontarget	13.000000	na
95.094298	0.049259	109.000000	nontarget	14.000000	na
95.143557	0.050375	109.000000	nontarget	15.000000	na
95.193931	0.050426	109.000000	nontarget	16.000000	na
95.244358	0.049782	110.000000	nontarget	1.000000	na
95.294140	0.050095	110.000000	nontarget	2.000000	na
95.344235	0.049952	110.000000	nontarget	3.000000	na
95.394187	0.050075	110.000000	nontarget	4.000000	na
95.444262	0.050004	110.000000	nontarget	5.000000	na
95.494267	0.049980	110.000000	nontarget	6.000000	na
95.544246	0.049522	110.000000	nontarget	7.000000	na
95.593768	0.049963	110.000000	nontarget	8.000000	na
95.643731	0.050509	110.000000	nontarget	9.000000	na
95.694240	0.049966	110.000000	nontarget	10.000000	na
95.744206	0.049294	110.000000	nontarget	11.000000	na
95.793500	0.050073	110.000000	nontarget	12.000000	na
95.843573	0.050173	110.000000	nontarget	13.000000	na
95.893746	0.050165	110.000000	nontarget	14.000000	na
95.943911	0.050183	110.000000	nontarget	15.000000	95.974853
95.994094	0.050211	110.000000	nontarget	16.000000	na
96.044305	0.049838	111.000000	nontarget	1.000000	96.050830
96.094142	0.050058	111.000000	nontarget	2.000000	na
96.144201	0.049862	111.000000	nontarget	3.000000	na
96.194063	0.050197	111.000000	nontarget	4.000000	na
96.244260	0.049959	111.000000	nontarget	5.000000	na
96.294219	0.050027	111.000000	nontarget	6.000000	na
96.344245	0.049924	111.000000	nontarget	7.000000	na
96.394170	0.049972	111.000000	nontarget	8.000000	na
96.444141	0.050060	111.000000	nontarget	9.000000	na
96.494202	0.049782	111.000000	nontarget	10.000000	na
96.543984	0.049977	111.000000	nontarget	11.000000	na
96.593961	0.049470	111.000000	nontarget	12.000000	na
96.643432	0.050660	111.000000	nontarget	13.000000	na
96.694092	0.049648	111.000000	nontarget	14.000000	na
96.743739	0.049761	111.000000	nontarget	15.000000	na
96.793501	0.050512	111.000000	nontarget	16.000000	na
96.844013	0.050135	112.000000	nontarget	1.000000	na
96.894148	0.049669	112.000000	nontarget	2.000000	na
96.943816	0.051963	112.000000	nontarget	3.000000	na
96.995779	0.048407	112.000000	nontarget	4.000000	97.000496
97.044187	0.050007	112.000000	nontarget	5.000000	na
97.094194	0.050039	112.000000	nontarget	6.000000	na
97.144233	0.049830	112.000000	nontarget	7.000000	na
97.194063	0.049746	112.000000	nontarget	8.000000	na
97.243809	0.049504	112.000000	nontarget	9.000000	na
97.293313	0.050818	112.000000	nontarget	10.000000	na
97.344130	0.049113	112.000000	nontarget	11.000000	na
97.393243	0.050865	112.000000	nontarget	12.000000	na
97.444109	0.050018	112.000000	nontarget	13.000000	na
97.494127	0.049950	112.000000	nontarget	14.000000	na
97.544077	0.050211	112.000000	nontarget	15.000000	na
97.594288	0.049940	112.000000	nontarget	16.000000	na
97.644228	0.049860	113.000000	nontarget	1.000000	na
97.694088	0.050153	113.000000	nontarget	2.000000	na
97.744241	0.048741	113.000000	nontarget	3.000000	na
97.792982	0.050873	113.000000	nontarget	4.000000	na
97.843855	0.050252	113.000000	nontarget	5.000000	na
97.894107	0.050010	113.000000	nontarget	6.000000	na
97.944116	0.049404	113.000000	nontarget	7.000000	na
97.993520	0.037622	113.000000	nontarget	8.000000	98.012804
98.031143	0.046163	113.000000	nontarget	9.000000	na
98.077306	0.049512	113.000000	nontarget	10.000000	na
98.126818	0.050258	113.000000	nontarget	11.000000	na
98.177077	0.050324	113.000000	nontarget	12.000000	na
98.227401	0.049824	113.000000	nontarget	13.000000	na
98.277225	0.050152	113.000000	nontarget	14.000000	na
98.327377	0.049593	113.000000	nontarget	15.000000	na
98.376971	0.049672	113.000000	nontarget	16.000000	na
98.426643	0.037460	114.000000	nontarget	1.000000	na
98.464103	0.046612	114.000000	nontarget	2.000000	na
98.510715	0.049066	114.000000	nontarget	3.000000	na
98.559781	0.037505	114.000000	nontarget	4.000000	na
98.597286	0.046166	114.000000	nontarget	5.000000	na
98.643453	0.037609	114.000000	nontarget	6.000000	na
98.681062	0.045782	114.000000	nontarget	7.000000	na
98.726844	0.037536	114.000000	nontarget	8.000000	na
98.764379	0.045628	114.000000	nontarget	9.000000	na
98.810007	0.037473	114.000000	nontarget	10.000000	na
98.847480	0.045772	114.000000	nontarget	11.000000	na
98.893252	0.050556	114.000000	nontarget	12.000000	na
98.943808	0.049986	114.000000	nontarget	13.000000	na
98.993794	0.049711	114.000000	nontarget	14.000000	na
99.043505	0.050623	114.000000	nontarget	15.000000	na
99.094128	0.049551	114.000000	nontarget	16.000000	na
99.143679	0.037271	115.000000	target	1.000000	na
99.180950	0.045706	115.000000	target	2.000000	na
99.226656	0.037593	115.000000	target	3.000000	na
99.264249	0.046640	115.000000	target	4.000000	na
99.310889	0.050064	115.000000	target	5.000000	na
99.360952	0.049605	115.000000	target	6.000000	na
99.410558	0.050139	115.000000	target	7.000000	na
99.460697	0.049536	115.000000	target	8.000000	na
99.510233	0.037363	115.000000	target	9.000000	na
99.547596	0.046701	115.000000	target	10.000000	na
99.594297	0.049702	115.000000	target	11.000000	na
99.643999	0.050336	115.000000	target	12.000000	na
99.694335	0.049322	115.000000	target	13.000000	na
99.743657	0.050683	115.000000	target	14.000000	na
99.794340	0.048743	115.000000	target	15.000000	99.831464
99.843083	0.051015	115.000000	target	16.000000	na
99.894098	0.049733	116.000000	nontarget	1.000000	99.900621
99.943831	0.050495	116.000000	nontarget	2.000000	na
99.994326	0.049903	116.000000	nontarget	3.000000	na
100.044229	0.049878	116.000000	nontarget	4.000000	na
100.094108	0.049805	116.000000	nontarget	5.000000	na
100.143912	0.049973	116.000000	nontarget	6.000000	na
100.193885	0.050046	116.000000	nontarget	7.000000	na
100.243931	0.050315	116.000000	nontarget	8.000000	na
100.294245	0.049996	116.000000	nontarget	9.000000	na
100.344242	0.049302	116.000000	nontarget	10.000000	na
100.393544	0.050298	116.000000	nontarget	11.000000	na
100.443842	0.049410	116.000000	nontarget	12.000000	na
100.493252	0.050277	116.000000	nontarget	13.000000	na
100.543529	0.050047	116.000000	nontarget	14.000000	na
100.593575	0.050285	116.000000	nontarget	15.000000	na
100.643861	0.050024	116.000000	nontarget	16.000000	na
100.693885	0.049426	117.000000	nontarget	1.000000	na
100.743310	0.050698	117.000000	nontarget	2.000000	na
100.794009	0.049972	117.000000	nontarget	3.000000	na
100.843980	0.049873	117.000000	nontarget	4.000000	na
100.893853	0.049474	117.000000	nontarget	5.000000	100.900758
100.943328	0.050521	117.000000	nontarget	6.000000	na
100.993849	0.050227	117.000000	nontarget	7.000000	na
101.044076	0.049709	117.000000	nontarget	8.000000	na
101.093785	0.050385	117.000000	nontarget	9.000000	na
101.144170	0.049684	117.000000	nontarget	10.000000	na
101.193854	0.050028	117.000000	nontarget	11.000000	na
101.243882	0.050197	117.000000	nontarget	12.000000	na
101.294079	0.049807	117.000000	nontarget	13.000000	na
101.343886	0.049733	117.000000	nontarget	14.000000	na
101.393618	0.050453	117.000000	nontarget	15.000000	na
101.444071	0.049756	117.000000	nontarget	16.000000	na
101.493827	0.049811	118.000000	nontarget	1.000000	na
101.543638	0.050101	118.000000	nontarget	2.000000	na
101.593739	0.050430	118.000000	nontarget	3.000000	na
101.644169	0.049920	118.000000	nontarget	4.000000	na
101.694089	0.049499	118.000000	nontarget	5.000000	na
101.743588	0.050284	118.000000	nontarget	6.000000	na
101.793871	0.050268	118.000000	nontarget	7.000000	na
101.844139	0.049676	118.000000	nontarget	8.000000	na
101.893816	0.050390	118.000000	nontarget	9.000000	101.918524
101.944206	0.049833	118.000000	nontarget	10.000000	na
101.994039	0.049411	118.000000	nontarget	11.000000	na
102.043450	0.050303	118.000000	nontarget	12.000000	na
102.093753	0.049924	118.000000	nontarget	13.000000	na
102.143677	0.037192	118.000000	nontarget	14.000000	na
102.180869	0.046226	118.000000	nontarget	15.000000	na
102.227095	0.049799	118.000000	nontarget	16.000000	na
102.276893	0.049995	119.000000	nontarget	1.000000	na
102.326888	0.050325	119.000000	nontarget	2.000000	na
102.377213	0.049942	119.000000	nontarget	3.000000	na
102.427156	0.050002	119.000000	nontarget	4.000000	na
102.477158	0.049682	119.000000	nontarget	5.000000	na
102.526840	0.050309	119.000000	nontarget	6.000000	na
102.577149	0.049961	119.000000	nontarget	7.000000	na
102.627109	0.049963	119.000000	nontarget	8.000000	na
102.677072	0.049672	119.000000	nontarget	9.000000	na
102.726744	0.050380	119.000000	nontarget	10.000000	na
102.777124	0.049965	119.000000	nontarget	11.000000	na
102.827089	0.050014	119.000000	nontarget	12.000000	na
102.877103	0.050295	119.000000	nontarget	13.000000	102.883599
102.927397	0.049193	119.000000	nontarget	14.000000	na
102.976590	0.050494	119.000000	nontarget	15.000000	na
103.027084	0.050161	119.000000	nontarget	16.000000	na
103.077245	0.049642	120.000000	nontarget	1.000000	na
103.126887	0.049789	120.000000	nontarget	2.000000	na
103.176676	0.050754	120.000000	nontarget	3.000000	na
103.227431	0.050088	120.000000	nontarget	4.000000	na
103.277519	0.049571	120.000000	nontarget	5.000000	na
103.327090	0.049578	120.000000	nontarget	6.000000	na
103.376668	0.050751	120.000000	nontarget	7.000000	na
103.427419	0.049168	120.000000	nontarget	8.000000	na
103.476587	0.050223	120.000000	nontarget	9.000000	na
103.526809	0.050462	120.000000	nontarget	10.000000	na
103.577271	0.049802	120.000000	nontarget	11.000000	na
103.627074	0.049966	120.000000	nontarget	12.000000	na
103.677040	0.049782	120.000000	nontarget	13.000000	na
103.726821	0.050246	120.000000	nontarget	14.000000	na
103.777068	0.049168	120.000000	nontarget	15.000000	na
103.826236	0.050950	120.000000	nontarget	16.000000	103.833423
103.877186	0.049524	121.000000	nontarget	1.000000	103.883602
103.926710	0.050119	121.000000	nontarget	2.000000	na
103.976829	0.049978	121.000000	nontarget	3.000000	na
104.026807	0.050093	121.000000	nontarget	4.000000	na
104.076899	0.050285	121.000000	nontarget	5.000000	na
104.127184	0.049500	121.000000	nontarget	6.000000	na
104.176684	0.050358	121.000000	nontarget	7.000000	na
104.227042	0.049927	121.000000	nontarget	8.000000	na
104.276969	0.049980	121.000000	nontarget	9.000000	na
104.326949	0.050093	121.000000	nontarget	10.000000	na
104.377041	0.049923	121.000000	nontarget	11.000000	na
