onset	duration	trial_number	trial_type	frame_number	time_of_response
8.065884	0.049997	1.000000	nontarget	1.000000	na
8.115881	0.049993	1.000000	nontarget	2.000000	na
8.165875	0.049999	1.000000	nontarget	3.000000	na
8.215873	0.049998	1.000000	nontarget	4.000000	na
8.265871	0.049997	1.000000	nontarget	5.000000	na
8.315868	0.049995	1.000000	nontarget	6.000000	na
8.365864	0.049996	1.000000	nontarget	7.000000	na
8.415860	0.049997	1.000000	nontarget	8.000000	na
8.465857	0.050008	1.000000	nontarget	9.000000	na
8.515865	0.049987	1.000000	nontarget	10.000000	na
8.565853	0.049997	1.000000	nontarget	11.000000	na
8.615850	0.049993	1.000000	nontarget	12.000000	na
8.665843	0.050000	1.000000	nontarget	13.000000	na
8.715843	0.049996	1.000000	nontarget	14.000000	8.716740
8.765839	0.049999	1.000000	nontarget	15.000000	na
8.815838	0.049996	1.000000	nontarget	16.000000	na
8.865834	0.049994	2.000000	nontarget	1.000000	na
8.915829	0.049998	2.000000	nontarget	2.000000	na
8.965827	0.049998	2.000000	nontarget	3.000000	na
9.015824	0.049996	2.000000	nontarget	4.000000	na
9.065820	0.049995	2.000000	nontarget	5.000000	na
9.115815	0.049998	2.000000	nontarget	6.000000	na
9.165814	0.049996	2.000000	nontarget	7.000000	na
9.215809	0.049993	2.000000	nontarget	8.000000	na
9.265802	0.050000	2.000000	nontarget	9.000000	na
9.315802	0.049998	2.000000	nontarget	10.000000	na
9.365800	0.049995	2.000000	nontarget	11.000000	na
9.415796	0.049998	2.000000	nontarget	12.000000	na
9.465793	0.049996	2.000000	nontarget	13.000000	na
9.515790	0.049998	2.000000	nontarget	14.000000	9.526700
9.565788	0.049996	2.000000	nontarget	15.000000	na
9.615783	0.050000	2.000000	nontarget	16.000000	na
9.665784	0.049995	3.000000	nontarget	1.000000	na
9.715779	0.049995	3.000000	nontarget	2.000000	na
9.765774	0.049999	3.000000	nontarget	3.000000	na
9.815773	0.049996	3.000000	nontarget	4.000000	na
9.865769	0.049996	3.000000	nontarget	5.000000	na
9.915765	0.049996	3.000000	nontarget	6.000000	na
9.965761	0.049998	3.000000	nontarget	7.000000	na
10.015758	0.050008	3.000000	nontarget	8.000000	na
10.065766	0.049986	3.000000	nontarget	9.000000	na
10.115752	0.050014	3.000000	nontarget	10.000000	na
10.165767	0.050012	3.000000	nontarget	11.000000	na
10.215778	0.049999	3.000000	nontarget	12.000000	na
10.265777	0.050015	3.000000	nontarget	13.000000	na
10.315792	0.049960	3.000000	nontarget	14.000000	10.338090
10.365752	0.049994	3.000000	nontarget	15.000000	na
10.415746	0.050001	3.000000	nontarget	16.000000	na
10.465747	0.050003	4.000000	nontarget	1.000000	10.466459
10.515751	0.049975	4.000000	nontarget	2.000000	na
10.565726	0.049992	4.000000	nontarget	3.000000	na
10.615718	0.050009	4.000000	nontarget	4.000000	na
10.665727	0.049998	4.000000	nontarget	5.000000	na
10.715725	0.049997	4.000000	nontarget	6.000000	na
10.765722	0.049985	4.000000	nontarget	7.000000	na
10.815707	0.050007	4.000000	nontarget	8.000000	na
10.865714	0.049980	4.000000	nontarget	9.000000	na
10.915694	0.050005	4.000000	nontarget	10.000000	na
10.965698	0.049994	4.000000	nontarget	11.000000	na
11.015692	0.049996	4.000000	nontarget	12.000000	na
11.065689	0.050004	4.000000	nontarget	13.000000	na
11.115693	0.049997	4.000000	nontarget	14.000000	na
11.165690	0.049984	4.000000	nontarget	15.000000	na
11.215675	0.049998	4.000000	nontarget	16.000000	na
11.265673	0.049997	5.000000	nontarget	1.000000	11.291403
11.315670	0.050003	5.000000	nontarget	2.000000	na
11.365673	0.049995	5.000000	nontarget	3.000000	na
11.415668	0.049996	5.000000	nontarget	4.000000	na
11.465664	0.049998	5.000000	nontarget	5.000000	na
11.515662	0.049998	5.000000	nontarget	6.000000	na
11.565660	0.049995	5.000000	nontarget	7.000000	na
11.615655	0.049996	5.000000	nontarget	8.000000	na
11.665651	0.050000	5.000000	nontarget	9.000000	na
11.715651	0.049994	5.000000	nontarget	10.000000	na
11.765645	0.049998	5.000000	nontarget	11.000000	na
11.815643	0.049995	5.000000	nontarget	12.000000	na
11.865638	0.049998	5.000000	nontarget	13.000000	na
11.915636	0.049997	5.000000	nontarget	14.000000	na
11.965633	0.049996	5.000000	nontarget	15.000000	na
12.015629	0.049998	5.000000	nontarget	16.000000	12.047627
12.065627	0.049996	6.000000	nontarget	1.000000	12.066377
12.115622	0.049999	6.000000	nontarget	2.000000	na
12.165621	0.049997	6.000000	nontarget	3.000000	na
12.215619	0.049994	6.000000	nontarget	4.000000	na
12.265612	0.049998	6.000000	nontarget	5.000000	na
12.315611	0.049997	6.000000	nontarget	6.000000	na
12.365607	0.049996	6.000000	nontarget	7.000000	na
12.415603	0.049996	6.000000	nontarget	8.000000	na
12.465599	0.049998	6.000000	nontarget	9.000000	na
12.515597	0.049997	6.000000	nontarget	10.000000	na
12.565594	0.049998	6.000000	nontarget	11.000000	na
12.615592	0.049995	6.000000	nontarget	12.000000	na
12.665587	0.050001	6.000000	nontarget	13.000000	na
12.715587	0.049995	6.000000	nontarget	14.000000	na
12.765582	0.049997	6.000000	nontarget	15.000000	na
12.815579	0.049996	6.000000	nontarget	16.000000	na
12.865575	0.049997	7.000000	nontarget	1.000000	12.898485
12.915572	0.049998	7.000000	nontarget	2.000000	na
12.965570	0.049996	7.000000	nontarget	3.000000	na
13.015566	0.049996	7.000000	nontarget	4.000000	na
13.065562	0.049996	7.000000	nontarget	5.000000	na
13.115558	0.049997	7.000000	nontarget	6.000000	na
13.165555	0.049997	7.000000	nontarget	7.000000	na
13.215552	0.049998	7.000000	nontarget	8.000000	na
13.265550	0.049996	7.000000	nontarget	9.000000	na
13.315546	0.049996	7.000000	nontarget	10.000000	na
13.365542	0.049997	7.000000	nontarget	11.000000	na
13.415539	0.049998	7.000000	nontarget	12.000000	na
13.465537	0.049996	7.000000	nontarget	13.000000	na
13.515534	0.049995	7.000000	nontarget	14.000000	na
13.565528	0.049999	7.000000	nontarget	15.000000	na
13.615527	0.049996	7.000000	nontarget	16.000000	13.616258
13.665523	0.049996	8.000000	nontarget	1.000000	13.666239
13.715520	0.049999	8.000000	nontarget	2.000000	na
13.765518	0.049998	8.000000	nontarget	3.000000	na
13.815516	0.049995	8.000000	nontarget	4.000000	na
13.865511	0.049995	8.000000	nontarget	5.000000	na
13.915506	0.049999	8.000000	nontarget	6.000000	na
13.965505	0.049996	8.000000	nontarget	7.000000	na
14.015500	0.049996	8.000000	nontarget	8.000000	na
14.065497	0.049999	8.000000	nontarget	9.000000	na
14.115495	0.049996	8.000000	nontarget	10.000000	na
14.165492	0.049996	8.000000	nontarget	11.000000	na
14.215487	0.049996	8.000000	nontarget	12.000000	na
14.265484	0.050000	8.000000	nontarget	13.000000	na
14.315484	0.049996	8.000000	nontarget	14.000000	na
14.365481	0.049995	8.000000	nontarget	15.000000	14.366180
14.415476	0.049995	8.000000	nontarget	16.000000	na
14.465471	0.049999	9.000000	nontarget	1.000000	14.466168
14.515470	0.049996	9.000000	nontarget	2.000000	na
14.565466	0.049997	9.000000	nontarget	3.000000	na
14.615463	0.049996	9.000000	nontarget	4.000000	na
14.665459	0.049998	9.000000	nontarget	5.000000	na
14.715457	0.049997	9.000000	nontarget	6.000000	na
14.765454	0.049997	9.000000	nontarget	7.000000	na
14.815451	0.049996	9.000000	nontarget	8.000000	na
14.865447	0.049997	9.000000	nontarget	9.000000	na
14.915444	0.049996	9.000000	nontarget	10.000000	na
14.965440	0.049997	9.000000	nontarget	11.000000	na
15.015437	0.049999	9.000000	nontarget	12.000000	na
15.065436	0.049993	9.000000	nontarget	13.000000	15.066156
15.115430	0.049999	9.000000	nontarget	14.000000	na
15.165429	0.049995	9.000000	nontarget	15.000000	na
15.215424	0.049998	9.000000	nontarget	16.000000	na
15.265421	0.049996	10.000000	nontarget	1.000000	na
15.315418	0.049996	10.000000	nontarget	2.000000	na
15.365413	0.049998	10.000000	nontarget	3.000000	na
15.415411	0.049995	10.000000	nontarget	4.000000	na
15.465407	0.049998	10.000000	nontarget	5.000000	na
15.515405	0.049999	10.000000	nontarget	6.000000	na
15.565404	0.049994	10.000000	nontarget	7.000000	na
15.615398	0.049996	10.000000	nontarget	8.000000	na
15.665395	0.049997	10.000000	nontarget	9.000000	na
15.715392	0.049996	10.000000	nontarget	10.000000	na
15.765388	0.049999	10.000000	nontarget	11.000000	na
15.815387	0.049994	10.000000	nontarget	12.000000	na
15.865382	0.049998	10.000000	nontarget	13.000000	15.895255
15.915380	0.049995	10.000000	nontarget	14.000000	na
15.965375	0.049993	10.000000	nontarget	15.000000	na
16.015368	0.050003	10.000000	nontarget	16.000000	na
16.065370	0.049996	11.000000	nontarget	1.000000	na
16.115366	0.049997	11.000000	nontarget	2.000000	na
16.165364	0.049995	11.000000	nontarget	3.000000	na
16.215359	0.049997	11.000000	nontarget	4.000000	na
16.265356	0.049998	11.000000	nontarget	5.000000	na
16.315354	0.049996	11.000000	nontarget	6.000000	na
16.365351	0.049994	11.000000	nontarget	7.000000	na
16.415345	0.050000	11.000000	nontarget	8.000000	na
16.465345	0.049996	11.000000	nontarget	9.000000	na
16.515341	0.049997	11.000000	nontarget	10.000000	na
16.565338	0.049998	11.000000	nontarget	11.000000	na
16.615336	0.049995	11.000000	nontarget	12.000000	na
16.665331	0.049997	11.000000	nontarget	13.000000	na
16.715328	0.049996	11.000000	nontarget	14.000000	16.727083
16.765324	0.049996	11.000000	nontarget	15.000000	na
16.815320	0.049997	11.000000	nontarget	16.000000	na
16.865317	0.049995	12.000000	nontarget	1.000000	na
16.915312	0.049999	12.000000	nontarget	2.000000	na
16.965312	0.049997	12.000000	nontarget	3.000000	na
17.015309	0.049996	12.000000	nontarget	4.000000	na
17.065305	0.049997	12.000000	nontarget	5.000000	na
17.115301	0.049997	12.000000	nontarget	6.000000	na
17.165298	0.049995	12.000000	nontarget	7.000000	na
17.215293	0.049999	12.000000	nontarget	8.000000	na
17.265292	0.049998	12.000000	nontarget	9.000000	na
17.315290	0.049995	12.000000	nontarget	10.000000	na
17.365285	0.049998	12.000000	nontarget	11.000000	na
17.415283	0.049996	12.000000	nontarget	12.000000	na
17.465279	0.050001	12.000000	nontarget	13.000000	na
17.515279	0.049993	12.000000	nontarget	14.000000	17.515996
17.565273	0.049997	12.000000	nontarget	15.000000	na
17.615270	0.049995	12.000000	nontarget	16.000000	na
17.665265	0.050000	13.000000	nontarget	1.000000	na
17.715265	0.049996	13.000000	nontarget	2.000000	na
17.765262	0.049998	13.000000	nontarget	3.000000	na
17.815259	0.049994	13.000000	nontarget	4.000000	na
17.865253	0.049998	13.000000	nontarget	5.000000	na
17.915251	0.049998	13.000000	nontarget	6.000000	na
17.965249	0.049994	13.000000	nontarget	7.000000	na
18.015243	0.049998	13.000000	nontarget	8.000000	na
18.065241	0.049997	13.000000	nontarget	9.000000	na
18.115238	0.049996	13.000000	nontarget	10.000000	na
18.165234	0.049997	13.000000	nontarget	11.000000	na
18.215231	0.049997	13.000000	nontarget	12.000000	na
18.265228	0.049997	13.000000	nontarget	13.000000	na
18.315225	0.049996	13.000000	nontarget	14.000000	18.329220
18.365221	0.049997	13.000000	nontarget	15.000000	na
18.415218	0.050000	13.000000	nontarget	16.000000	na
18.465218	0.049996	14.000000	nontarget	1.000000	na
18.515213	0.049996	14.000000	nontarget	2.000000	na
18.565209	0.049996	14.000000	nontarget	3.000000	na
18.615205	0.049997	14.000000	nontarget	4.000000	na
18.665202	0.050001	14.000000	nontarget	5.000000	na
18.715203	0.049994	14.000000	nontarget	6.000000	na
18.765197	0.049997	14.000000	nontarget	7.000000	na
18.815194	0.049997	14.000000	nontarget	8.000000	na
18.865191	0.049995	14.000000	nontarget	9.000000	na
18.915185	0.049998	14.000000	nontarget	10.000000	na
18.965183	0.049998	14.000000	nontarget	11.000000	na
19.015181	0.049996	14.000000	nontarget	12.000000	na
19.065177	0.049997	14.000000	nontarget	13.000000	na
19.115174	0.049996	14.000000	nontarget	14.000000	na
19.165170	0.049996	14.000000	nontarget	15.000000	na
19.215167	0.049996	14.000000	nontarget	16.000000	na
19.265162	0.049998	15.000000	target	1.000000	na
19.315160	0.049996	15.000000	target	2.000000	na
19.365156	0.050001	15.000000	target	3.000000	na
19.415157	0.050002	15.000000	target	4.000000	na
19.465159	0.049988	15.000000	target	5.000000	na
19.515147	0.049997	15.000000	target	6.000000	na
19.565144	0.050004	15.000000	target	7.000000	na
19.615148	0.049999	15.000000	target	8.000000	na
19.665147	0.050023	15.000000	target	9.000000	na
19.715170	0.049998	15.000000	target	10.000000	na
19.765168	0.050003	15.000000	target	11.000000	na
19.815171	0.049954	15.000000	target	12.000000	19.823387
19.865125	0.050011	15.000000	target	13.000000	na
19.915136	0.050003	15.000000	target	14.000000	na
19.965139	0.049978	15.000000	target	15.000000	na
20.015117	0.050002	15.000000	target	16.000000	na
20.065118	0.049991	16.000000	nontarget	1.000000	na
20.115109	0.050008	16.000000	nontarget	2.000000	na
20.165117	0.049999	16.000000	nontarget	3.000000	na
20.215116	0.049999	16.000000	nontarget	4.000000	na
20.265115	0.049982	16.000000	nontarget	5.000000	na
20.315097	0.049996	16.000000	nontarget	6.000000	na
20.365093	0.049999	16.000000	nontarget	7.000000	na
20.415091	0.049997	16.000000	nontarget	8.000000	na
20.465088	0.050004	16.000000	nontarget	9.000000	na
20.515092	0.049990	16.000000	nontarget	10.000000	na
20.565082	0.049989	16.000000	nontarget	11.000000	na
20.615071	0.050009	16.000000	nontarget	12.000000	na
20.665079	0.049986	16.000000	nontarget	13.000000	na
20.715065	0.049998	16.000000	nontarget	14.000000	na
20.765063	0.049997	16.000000	nontarget	15.000000	20.793061
20.815060	0.050001	16.000000	nontarget	16.000000	na
20.865061	0.049997	17.000000	nontarget	1.000000	20.865760
20.915058	0.049997	17.000000	nontarget	2.000000	na
20.965055	0.049996	17.000000	nontarget	3.000000	na
21.015051	0.049997	17.000000	nontarget	4.000000	na
21.065048	0.049997	17.000000	nontarget	5.000000	na
21.115045	0.049997	17.000000	nontarget	6.000000	na
21.165041	0.049998	17.000000	nontarget	7.000000	na
21.215039	0.049995	17.000000	nontarget	8.000000	na
21.265035	0.049997	17.000000	nontarget	9.000000	na
21.315031	0.049997	17.000000	nontarget	10.000000	na
21.365029	0.049997	17.000000	nontarget	11.000000	na
21.415026	0.049997	17.000000	nontarget	12.000000	na
21.465023	0.049998	17.000000	nontarget	13.000000	na
21.515020	0.049996	17.000000	nontarget	14.000000	na
21.565017	0.049996	17.000000	nontarget	15.000000	na
21.615013	0.049997	17.000000	nontarget	16.000000	na
21.665010	0.049999	18.000000	nontarget	1.000000	na
21.715008	0.049998	18.000000	nontarget	2.000000	na
21.765007	0.049996	18.000000	nontarget	3.000000	21.765734
21.815002	0.049996	18.000000	nontarget	4.000000	na
21.864998	0.049998	18.000000	nontarget	5.000000	na
21.914997	0.049995	18.000000	nontarget	6.000000	na
21.964991	0.049998	18.000000	nontarget	7.000000	na
22.014989	0.049997	18.000000	nontarget	8.000000	na
22.064986	0.049997	18.000000	nontarget	9.000000	na
22.114983	0.049982	18.000000	nontarget	10.000000	na
22.164964	0.050012	18.000000	nontarget	11.000000	na
22.214976	0.049996	18.000000	nontarget	12.000000	na
22.264973	0.049996	18.000000	nontarget	13.000000	na
22.314968	0.049998	18.000000	nontarget	14.000000	na
22.364966	0.049996	18.000000	nontarget	15.000000	na
22.414962	0.049997	18.000000	nontarget	16.000000	na
22.464959	0.049996	19.000000	nontarget	1.000000	na
22.514955	0.049998	19.000000	nontarget	2.000000	na
22.564952	0.049997	19.000000	nontarget	3.000000	na
22.614949	0.049996	19.000000	nontarget	4.000000	na
22.664945	0.049997	19.000000	nontarget	5.000000	na
22.714942	0.049997	19.000000	nontarget	6.000000	na
22.764939	0.049999	19.000000	nontarget	7.000000	na
22.814938	0.049997	19.000000	nontarget	8.000000	na
22.864934	0.049998	19.000000	nontarget	9.000000	na
22.914932	0.049995	19.000000	nontarget	10.000000	22.915664
22.964927	0.049996	19.000000	nontarget	11.000000	na
23.014923	0.049998	19.000000	nontarget	12.000000	na
23.064921	0.049996	19.000000	nontarget	13.000000	na
23.114917	0.049996	19.000000	nontarget	14.000000	na
23.164914	0.049997	19.000000	nontarget	15.000000	na
23.214911	0.049996	19.000000	nontarget	16.000000	na
23.264907	0.049996	20.000000	nontarget	1.000000	na
23.314903	0.049998	20.000000	nontarget	2.000000	na
23.364901	0.049996	20.000000	nontarget	3.000000	na
23.414898	0.049996	20.000000	nontarget	4.000000	na
23.464894	0.049997	20.000000	nontarget	5.000000	na
23.514891	0.049997	20.000000	nontarget	6.000000	na
23.564888	0.049998	20.000000	nontarget	7.000000	na
23.614886	0.049997	20.000000	nontarget	8.000000	na
23.664883	0.050001	20.000000	nontarget	9.000000	na
23.714884	0.049993	20.000000	nontarget	10.000000	na
23.764876	0.049998	20.000000	nontarget	11.000000	na
23.814874	0.049997	20.000000	nontarget	12.000000	na
23.864871	0.049994	20.000000	nontarget	13.000000	na
23.914864	0.049997	20.000000	nontarget	14.000000	na
23.964861	0.049997	20.000000	nontarget	15.000000	na
24.014859	0.049998	20.000000	nontarget	16.000000	24.015638
24.064856	0.049997	21.000000	nontarget	1.000000	24.065578
24.114853	0.049999	21.000000	nontarget	2.000000	na
24.164852	0.049994	21.000000	nontarget	3.000000	na
24.214846	0.049997	21.000000	nontarget	4.000000	na
24.264843	0.049998	21.000000	nontarget	5.000000	na
24.314841	0.049997	21.000000	nontarget	6.000000	na
24.364837	0.049997	21.000000	nontarget	7.000000	na
24.414834	0.049996	21.000000	nontarget	8.000000	na
24.464831	0.049997	21.000000	nontarget	9.000000	na
24.514827	0.049996	21.000000	nontarget	10.000000	na
24.564823	0.049998	21.000000	nontarget	11.000000	na
24.614821	0.049994	21.000000	nontarget	12.000000	na
24.664816	0.049999	21.000000	nontarget	13.000000	na
24.714815	0.049997	21.000000	nontarget	14.000000	na
24.764811	0.049997	21.000000	nontarget	15.000000	na
24.814809	0.049996	21.000000	nontarget	16.000000	na
24.864805	0.049997	22.000000	nontarget	1.000000	na
24.914802	0.049996	22.000000	nontarget	2.000000	24.942471
24.964798	0.049997	22.000000	nontarget	3.000000	na
25.014795	0.049996	22.000000	nontarget	4.000000	na
25.064791	0.049999	22.000000	nontarget	5.000000	na
25.114790	0.049995	22.000000	nontarget	6.000000	na
25.164784	0.049998	22.000000	nontarget	7.000000	na
25.214783	0.049998	22.000000	nontarget	8.000000	na
25.264780	0.049996	22.000000	nontarget	9.000000	na
25.314776	0.049996	22.000000	nontarget	10.000000	na
25.364772	0.049996	22.000000	nontarget	11.000000	na
25.414768	0.049997	22.000000	nontarget	12.000000	na
25.464765	0.049996	22.000000	nontarget	13.000000	na
25.514761	0.049997	22.000000	nontarget	14.000000	na
25.564758	0.049996	22.000000	nontarget	15.000000	na
25.614755	0.049999	22.000000	nontarget	16.000000	na
25.664754	0.049996	23.000000	nontarget	1.000000	na
25.714750	0.049999	23.000000	nontarget	2.000000	na
25.764748	0.049996	23.000000	nontarget	3.000000	na
25.814744	0.049996	23.000000	nontarget	4.000000	na
25.864740	0.049997	23.000000	nontarget	5.000000	na
25.914737	0.049996	23.000000	nontarget	6.000000	25.938334
25.964733	0.049998	23.000000	nontarget	7.000000	na
26.014731	0.049997	23.000000	nontarget	8.000000	na
26.064728	0.049997	23.000000	nontarget	9.000000	na
26.114725	0.049997	23.000000	nontarget	10.000000	na
26.164721	0.049997	23.000000	nontarget	11.000000	na
26.214719	0.049997	23.000000	nontarget	12.000000	na
26.264716	0.049995	23.000000	nontarget	13.000000	na
26.314711	0.049998	23.000000	nontarget	14.000000	na
26.364708	0.049997	23.000000	nontarget	15.000000	na
26.414705	0.049998	23.000000	nontarget	16.000000	na
26.464703	0.049994	24.000000	nontarget	1.000000	na
26.514697	0.049999	24.000000	nontarget	2.000000	na
26.564697	0.049996	24.000000	nontarget	3.000000	na
26.614692	0.049995	24.000000	nontarget	4.000000	na
26.664688	0.050001	24.000000	nontarget	5.000000	na
26.714688	0.049994	24.000000	nontarget	6.000000	na
26.764683	0.049997	24.000000	nontarget	7.000000	na
26.814680	0.049997	24.000000	nontarget	8.000000	na
26.864676	0.049995	24.000000	nontarget	9.000000	26.874241
26.914672	0.049997	24.000000	nontarget	10.000000	na
26.964669	0.049997	24.000000	nontarget	11.000000	na
27.014666	0.049997	24.000000	nontarget	12.000000	na
27.064663	0.049997	24.000000	nontarget	13.000000	na
27.114660	0.049997	24.000000	nontarget	14.000000	na
27.164657	0.049997	24.000000	nontarget	15.000000	na
27.214654	0.049996	24.000000	nontarget	16.000000	na
27.264650	0.049998	25.000000	nontarget	1.000000	na
27.314648	0.049996	25.000000	nontarget	2.000000	na
27.364644	0.049996	25.000000	nontarget	3.000000	na
27.414641	0.049996	25.000000	nontarget	4.000000	na
27.464636	0.049997	25.000000	nontarget	5.000000	na
27.514633	0.049998	25.000000	nontarget	6.000000	na
27.564632	0.049996	25.000000	nontarget	7.000000	na
27.614628	0.049996	25.000000	nontarget	8.000000	na
27.664624	0.049999	25.000000	nontarget	9.000000	27.665302
27.714623	0.049994	25.000000	nontarget	10.000000	na
27.764617	0.049998	25.000000	nontarget	11.000000	na
27.814615	0.049998	25.000000	nontarget	12.000000	na
27.864613	0.049995	25.000000	nontarget	13.000000	na
27.914608	0.049998	25.000000	nontarget	14.000000	na
27.964606	0.049992	25.000000	nontarget	15.000000	na
28.014598	0.050001	25.000000	nontarget	16.000000	na
28.064599	0.049996	26.000000	nontarget	1.000000	na
28.114596	0.049997	26.000000	nontarget	2.000000	na
28.164593	0.049996	26.000000	nontarget	3.000000	na
28.214589	0.049997	26.000000	nontarget	4.000000	na
28.264586	0.049996	26.000000	nontarget	5.000000	28.285283
28.314582	0.049998	26.000000	nontarget	6.000000	na
28.364580	0.049999	26.000000	nontarget	7.000000	na
28.414579	0.049995	26.000000	nontarget	8.000000	na
28.464573	0.049996	26.000000	nontarget	9.000000	na
28.514569	0.049998	26.000000	nontarget	10.000000	na
28.564568	0.049996	26.000000	nontarget	11.000000	na
28.614563	0.049998	26.000000	nontarget	12.000000	na
28.664561	0.049998	26.000000	nontarget	13.000000	na
28.714559	0.049996	26.000000	nontarget	14.000000	na
28.764555	0.049997	26.000000	nontarget	15.000000	na
28.814552	0.049995	26.000000	nontarget	16.000000	na
28.864547	0.049999	27.000000	nontarget	1.000000	na
28.914547	0.049996	27.000000	nontarget	2.000000	na
28.964542	0.049997	27.000000	nontarget	3.000000	28.965227
29.014540	0.049994	27.000000	nontarget	4.000000	na
29.064534	0.049996	27.000000	nontarget	5.000000	na
29.114530	0.050008	27.000000	nontarget	6.000000	na
29.164538	0.049998	27.000000	nontarget	7.000000	na
29.214536	0.049998	27.000000	nontarget	8.000000	na
29.264534	0.050003	27.000000	nontarget	9.000000	na
29.314537	0.049977	27.000000	nontarget	10.000000	na
29.364514	0.050011	27.000000	nontarget	11.000000	na
29.414525	0.050003	27.000000	nontarget	12.000000	na
29.464528	0.049978	27.000000	nontarget	13.000000	na
29.514507	0.050002	27.000000	nontarget	14.000000	na
29.564509	0.049990	27.000000	nontarget	15.000000	na
29.614499	0.050008	27.000000	nontarget	16.000000	na
29.664507	0.049999	28.000000	nontarget	1.000000	na
29.714506	0.049987	28.000000	nontarget	2.000000	29.720165
29.764494	0.049994	28.000000	nontarget	3.000000	na
29.814488	0.049998	28.000000	nontarget	4.000000	na
29.864485	0.049996	28.000000	nontarget	5.000000	na
29.914481	0.049998	28.000000	nontarget	6.000000	na
29.964479	0.050006	28.000000	nontarget	7.000000	na
30.014484	0.049999	28.000000	nontarget	8.000000	na
30.064483	0.049985	28.000000	nontarget	9.000000	na
30.114468	0.050002	28.000000	nontarget	10.000000	na
30.164471	0.049985	28.000000	nontarget	11.000000	na
30.214456	0.049995	28.000000	nontarget	12.000000	na
30.264451	0.050002	28.000000	nontarget	13.000000	na
30.314452	0.049999	28.000000	nontarget	14.000000	na
30.364452	0.049998	28.000000	nontarget	15.000000	na
30.414449	0.049994	28.000000	nontarget	16.000000	na
30.464443	0.049998	29.000000	nontarget	1.000000	na
30.514441	0.049997	29.000000	nontarget	2.000000	na
30.564438	0.049996	29.000000	nontarget	3.000000	na
30.614434	0.049999	29.000000	nontarget	4.000000	na
30.664434	0.049996	29.000000	nontarget	5.000000	30.665145
30.714430	0.049997	29.000000	nontarget	6.000000	na
30.764427	0.049997	29.000000	nontarget	7.000000	na
30.814424	0.049998	29.000000	nontarget	8.000000	na
30.864421	0.049995	29.000000	nontarget	9.000000	na
30.914417	0.049998	29.000000	nontarget	10.000000	na
30.964414	0.049996	29.000000	nontarget	11.000000	na
31.014411	0.049995	29.000000	nontarget	12.000000	na
31.064406	0.049998	29.000000	nontarget	13.000000	na
31.114404	0.049997	29.000000	nontarget	14.000000	na
31.164400	0.049996	29.000000	nontarget	15.000000	na
31.214397	0.049996	29.000000	nontarget	16.000000	na
31.264393	0.049998	30.000000	nontarget	1.000000	31.295115
31.314391	0.049995	30.000000	nontarget	2.000000	na
31.364386	0.049993	30.000000	nontarget	3.000000	na
31.414379	0.050003	30.000000	nontarget	4.000000	na
31.464382	0.049996	30.000000	nontarget	5.000000	na
31.514378	0.049996	30.000000	nontarget	6.000000	na
31.564373	0.049997	30.000000	nontarget	7.000000	na
31.614370	0.049997	30.000000	nontarget	8.000000	na
31.664368	0.049998	30.000000	nontarget	9.000000	na
31.714366	0.049996	30.000000	nontarget	10.000000	na
31.764362	0.049999	30.000000	nontarget	11.000000	na
31.814361	0.049995	30.000000	nontarget	12.000000	na
31.864356	0.049996	30.000000	nontarget	13.000000	na
31.914352	0.049997	30.000000	nontarget	14.000000	na
31.964348	0.049992	30.000000	nontarget	15.000000	na
32.014340	0.050003	30.000000	nontarget	16.000000	32.015175
32.064343	0.049996	31.000000	nontarget	1.000000	32.065030
32.114339	0.049997	31.000000	nontarget	2.000000	na
32.164336	0.049997	31.000000	nontarget	3.000000	na
32.214333	0.049995	31.000000	nontarget	4.000000	na
32.264328	0.049997	31.000000	nontarget	5.000000	na
32.314325	0.049997	31.000000	nontarget	6.000000	na
32.364322	0.049996	31.000000	nontarget	7.000000	na
32.414319	0.049999	31.000000	nontarget	8.000000	na
32.464318	0.049996	31.000000	nontarget	9.000000	na
32.514314	0.049997	31.000000	nontarget	10.000000	na
32.564311	0.049995	31.000000	nontarget	11.000000	na
32.614306	0.049998	31.000000	nontarget	12.000000	na
32.664304	0.049999	31.000000	nontarget	13.000000	na
32.714302	0.049997	31.000000	nontarget	14.000000	na
32.764299	0.049996	31.000000	nontarget	15.000000	na
32.814295	0.049996	31.000000	nontarget	16.000000	na
32.864291	0.049992	32.000000	nontarget	1.000000	32.886930
32.914283	0.050001	32.000000	nontarget	2.000000	na
32.964284	0.049999	32.000000	nontarget	3.000000	na
33.014284	0.049995	32.000000	nontarget	4.000000	na
33.064278	0.049997	32.000000	nontarget	5.000000	na
33.114276	0.049995	32.000000	nontarget	6.000000	na
33.164271	0.049998	32.000000	nontarget	7.000000	na
33.214268	0.049996	32.000000	nontarget	8.000000	na
33.264265	0.049998	32.000000	nontarget	9.000000	na
33.314263	0.049995	32.000000	nontarget	10.000000	na
33.364258	0.049998	32.000000	nontarget	11.000000	na
33.414256	0.049995	32.000000	nontarget	12.000000	na
33.464251	0.049997	32.000000	nontarget	13.000000	na
33.514248	0.050000	32.000000	nontarget	14.000000	na
33.564248	0.049997	32.000000	nontarget	15.000000	na
33.614245	0.049995	32.000000	nontarget	16.000000	33.614949
33.664240	0.049997	33.000000	nontarget	1.000000	33.664945
33.714237	0.049994	33.000000	nontarget	2.000000	na
33.764231	0.050000	33.000000	nontarget	3.000000	na
33.814231	0.049995	33.000000	nontarget	4.000000	na
33.864226	0.049996	33.000000	nontarget	5.000000	na
33.914222	0.049998	33.000000	nontarget	6.000000	na
33.964220	0.049997	33.000000	nontarget	7.000000	na
34.014218	0.049995	33.000000	nontarget	8.000000	na
34.064212	0.049999	33.000000	nontarget	9.000000	na
34.114211	0.049998	33.000000	nontarget	10.000000	na
34.164209	0.049995	33.000000	nontarget	11.000000	na
34.214204	0.050000	33.000000	nontarget	12.000000	na
34.264203	0.049997	33.000000	nontarget	13.000000	na
34.314200	0.049994	33.000000	nontarget	14.000000	34.314909
34.364194	0.049998	33.000000	nontarget	15.000000	na
34.414193	0.049996	33.000000	nontarget	16.000000	na
34.464189	0.049996	34.000000	nontarget	1.000000	na
34.514185	0.049998	34.000000	nontarget	2.000000	na
34.564183	0.049996	34.000000	nontarget	3.000000	na
34.614180	0.049998	34.000000	nontarget	4.000000	na
34.664177	0.049996	34.000000	nontarget	5.000000	na
34.714174	0.049995	34.000000	nontarget	6.000000	na
34.764169	0.049997	34.000000	nontarget	7.000000	na
34.814166	0.049996	34.000000	nontarget	8.000000	na
34.864163	0.049997	34.000000	nontarget	9.000000	na
34.914160	0.049996	34.000000	nontarget	10.000000	na
34.964155	0.049993	34.000000	nontarget	11.000000	na
35.014148	0.050004	34.000000	nontarget	12.000000	na
35.064151	0.049996	34.000000	nontarget	13.000000	na
35.114148	0.049996	34.000000	nontarget	14.000000	na
35.164144	0.049997	34.000000	nontarget	15.000000	35.168042
35.214141	0.049997	34.000000	nontarget	16.000000	na
35.264138	0.049997	35.000000	nontarget	1.000000	35.264814
35.314135	0.049996	35.000000	nontarget	2.000000	na
35.364131	0.049997	35.000000	nontarget	3.000000	na
35.414128	0.049996	35.000000	nontarget	4.000000	na
35.464124	0.049998	35.000000	nontarget	5.000000	na
35.514122	0.049996	35.000000	nontarget	6.000000	na
35.564118	0.049996	35.000000	nontarget	7.000000	na
35.614114	0.049995	35.000000	nontarget	8.000000	na
35.664109	0.050001	35.000000	nontarget	9.000000	na
35.714110	0.049997	35.000000	nontarget	10.000000	na
35.764107	0.049996	35.000000	nontarget	11.000000	na
35.814104	0.049997	35.000000	nontarget	12.000000	na
35.864100	0.049996	35.000000	nontarget	13.000000	na
35.914096	0.049998	35.000000	nontarget	14.000000	na
35.964094	0.049996	35.000000	nontarget	15.000000	na
36.014090	0.049996	35.000000	nontarget	16.000000	na
36.064086	0.049996	36.000000	target	1.000000	na
36.114083	0.049998	36.000000	target	2.000000	na
36.164080	0.049994	36.000000	target	3.000000	na
36.214075	0.049999	36.000000	target	4.000000	na
36.264074	0.049996	36.000000	target	5.000000	na
36.314069	0.049998	36.000000	target	6.000000	na
36.364067	0.049996	36.000000	target	7.000000	na
36.414064	0.049996	36.000000	target	8.000000	na
36.464060	0.049997	36.000000	target	9.000000	na
36.514058	0.049996	36.000000	target	10.000000	na
36.564054	0.049997	36.000000	target	11.000000	na
36.614051	0.049994	36.000000	target	12.000000	na
36.664045	0.049999	36.000000	target	13.000000	na
36.714044	0.049982	36.000000	target	14.000000	36.714921
36.764026	0.050013	36.000000	target	15.000000	na
36.814039	0.049996	36.000000	target	16.000000	na
36.864035	0.049997	37.000000	nontarget	1.000000	na
36.914032	0.049994	37.000000	nontarget	2.000000	na
36.964026	0.049999	37.000000	nontarget	3.000000	na
37.014026	0.049995	37.000000	nontarget	4.000000	na
37.064021	0.049998	37.000000	nontarget	5.000000	na
37.114019	0.049997	37.000000	nontarget	6.000000	na
37.164016	0.049997	37.000000	nontarget	7.000000	na
37.214012	0.049996	37.000000	nontarget	8.000000	na
37.264008	0.049995	37.000000	nontarget	9.000000	na
37.314003	0.050001	37.000000	nontarget	10.000000	na
37.364004	0.049996	37.000000	nontarget	11.000000	na
37.414000	0.049996	37.000000	nontarget	12.000000	na
37.463996	0.049997	37.000000	nontarget	13.000000	na
37.513993	0.049996	37.000000	nontarget	14.000000	na
37.563989	0.049999	37.000000	nontarget	15.000000	na
37.613987	0.049996	37.000000	nontarget	16.000000	37.614668
37.663983	0.049997	38.000000	nontarget	1.000000	37.664664
37.713980	0.049981	38.000000	nontarget	2.000000	na
37.763961	0.050014	38.000000	nontarget	3.000000	na
37.813975	0.049996	38.000000	nontarget	4.000000	na
37.863971	0.049996	38.000000	nontarget	5.000000	na
37.913967	0.049996	38.000000	nontarget	6.000000	na
37.963963	0.049997	38.000000	nontarget	7.000000	na
38.013960	0.049999	38.000000	nontarget	8.000000	na
38.063960	0.049994	38.000000	nontarget	9.000000	na
38.113954	0.049998	38.000000	nontarget	10.000000	na
38.163952	0.049996	38.000000	nontarget	11.000000	na
38.213948	0.049996	38.000000	nontarget	12.000000	na
38.263943	0.049997	38.000000	nontarget	13.000000	na
38.313940	0.049997	38.000000	nontarget	14.000000	na
38.363938	0.049997	38.000000	nontarget	15.000000	na
38.413935	0.049997	38.000000	nontarget	16.000000	na
38.463932	0.050007	39.000000	nontarget	1.000000	na
38.513939	0.050000	39.000000	nontarget	2.000000	38.532957
38.563939	0.049983	39.000000	nontarget	3.000000	na
38.613922	0.049996	39.000000	nontarget	4.000000	na
38.663918	0.050033	39.000000	nontarget	5.000000	na
38.713951	0.049974	39.000000	nontarget	6.000000	na
38.763925	0.050017	39.000000	nontarget	7.000000	na
38.813942	0.049964	39.000000	nontarget	8.000000	na
38.863905	0.050032	39.000000	nontarget	9.000000	na
38.913938	0.049983	39.000000	nontarget	10.000000	na
38.963920	0.049986	39.000000	nontarget	11.000000	na
39.013906	0.050002	39.000000	nontarget	12.000000	na
39.063908	0.049991	39.000000	nontarget	13.000000	na
39.113899	0.049996	39.000000	nontarget	14.000000	na
39.163896	0.050001	39.000000	nontarget	15.000000	na
39.213897	0.049995	39.000000	nontarget	16.000000	na
39.263892	0.049989	40.000000	nontarget	1.000000	39.276944
39.313881	0.049992	40.000000	nontarget	2.000000	na
39.363873	0.049993	40.000000	nontarget	3.000000	na
39.413865	0.049997	40.000000	nontarget	4.000000	na
39.463863	0.050013	40.000000	nontarget	5.000000	na
39.513876	0.049984	40.000000	nontarget	6.000000	na
39.563860	0.049998	40.000000	nontarget	7.000000	na
39.613858	0.050002	40.000000	nontarget	8.000000	na
39.663860	0.050009	40.000000	nontarget	9.000000	na
39.713869	0.049975	40.000000	nontarget	10.000000	na
39.763844	0.050001	40.000000	nontarget	11.000000	na
39.813844	0.049998	40.000000	nontarget	12.000000	na
39.863842	0.049995	40.000000	nontarget	13.000000	na
39.913837	0.049997	40.000000	nontarget	14.000000	na
39.963835	0.049998	40.000000	nontarget	15.000000	na
40.013833	0.049996	40.000000	nontarget	16.000000	na
40.063829	0.049996	41.000000	nontarget	1.000000	40.064521
40.113825	0.049998	41.000000	nontarget	2.000000	na
40.163822	0.049997	41.000000	nontarget	3.000000	na
40.213819	0.049997	41.000000	nontarget	4.000000	na
40.263816	0.049997	41.000000	nontarget	5.000000	na
40.313813	0.049998	41.000000	nontarget	6.000000	na
40.363810	0.049996	41.000000	nontarget	7.000000	na
40.413806	0.049997	41.000000	nontarget	8.000000	na
40.463804	0.049996	41.000000	nontarget	9.000000	na
40.513799	0.049997	41.000000	nontarget	10.000000	na
40.563796	0.049998	41.000000	nontarget	11.000000	na
40.613794	0.049997	41.000000	nontarget	12.000000	na
40.663791	0.049996	41.000000	nontarget	13.000000	na
40.713787	0.049996	41.000000	nontarget	14.000000	na
40.763784	0.049997	41.000000	nontarget	15.000000	na
40.813781	0.049996	41.000000	nontarget	16.000000	na
40.863777	0.049998	42.000000	nontarget	1.000000	na
40.913775	0.049996	42.000000	nontarget	2.000000	na
40.963771	0.049998	42.000000	nontarget	3.000000	40.967110
41.013769	0.049996	42.000000	nontarget	4.000000	na
41.063765	0.049999	42.000000	nontarget	5.000000	na
41.113764	0.049995	42.000000	nontarget	6.000000	na
41.163759	0.049996	42.000000	nontarget	7.000000	na
41.213754	0.049997	42.000000	nontarget	8.000000	na
41.263751	0.049997	42.000000	nontarget	9.000000	na
41.313748	0.049996	42.000000	nontarget	10.000000	na
41.363745	0.049997	42.000000	nontarget	11.000000	na
41.413742	0.049997	42.000000	nontarget	12.000000	na
41.463739	0.049996	42.000000	nontarget	13.000000	na
41.513735	0.049997	42.000000	nontarget	14.000000	na
41.563732	0.049998	42.000000	nontarget	15.000000	na
41.613730	0.049996	42.000000	nontarget	16.000000	na
41.663725	0.049996	43.000000	nontarget	1.000000	na
41.713722	0.049997	43.000000	nontarget	2.000000	na
41.763718	0.049999	43.000000	nontarget	3.000000	41.768217
41.813717	0.049996	43.000000	nontarget	4.000000	na
41.863713	0.049999	43.000000	nontarget	5.000000	na
41.913713	0.049995	43.000000	nontarget	6.000000	na
41.963707	0.049997	43.000000	nontarget	7.000000	na
42.013705	0.049998	43.000000	nontarget	8.000000	na
42.063703	0.049995	43.000000	nontarget	9.000000	na
42.113697	0.049999	43.000000	nontarget	10.000000	na
42.163697	0.049995	43.000000	nontarget	11.000000	na
42.213692	0.049996	43.000000	nontarget	12.000000	na
42.263687	0.049997	43.000000	nontarget	13.000000	na
42.313684	0.049998	43.000000	nontarget	14.000000	na
42.363682	0.049994	43.000000	nontarget	15.000000	na
42.413677	0.049999	43.000000	nontarget	16.000000	na
42.463675	0.049999	44.000000	nontarget	1.000000	na
42.513675	0.049995	44.000000	nontarget	2.000000	42.514369
42.563669	0.049995	44.000000	nontarget	3.000000	na
42.613665	0.049998	44.000000	nontarget	4.000000	na
42.663662	0.049996	44.000000	nontarget	5.000000	na
42.713659	0.050000	44.000000	nontarget	6.000000	na
42.763659	0.049994	44.000000	nontarget	7.000000	na
42.813653	0.049998	44.000000	nontarget	8.000000	na
42.863650	0.049996	44.000000	nontarget	9.000000	na
42.913646	0.049995	44.000000	nontarget	10.000000	na
42.963642	0.049997	44.000000	nontarget	11.000000	na
43.013639	0.049997	44.000000	nontarget	12.000000	na
43.063636	0.049998	44.000000	nontarget	13.000000	na
43.113633	0.049998	44.000000	nontarget	14.000000	na
43.163631	0.049998	44.000000	nontarget	15.000000	na
43.213629	0.049994	44.000000	nontarget	16.000000	43.214331
43.263624	0.049997	45.000000	nontarget	1.000000	43.264319
43.313621	0.049998	45.000000	nontarget	2.000000	na
43.363619	0.049995	45.000000	nontarget	3.000000	na
43.413614	0.049997	45.000000	nontarget	4.000000	na
43.463611	0.049997	45.000000	nontarget	5.000000	na
43.513608	0.049996	45.000000	nontarget	6.000000	na
43.563604	0.049997	45.000000	nontarget	7.000000	na
43.613602	0.049996	45.000000	nontarget	8.000000	na
43.663598	0.049998	45.000000	nontarget	9.000000	na
43.713596	0.049997	45.000000	nontarget	10.000000	na
43.763592	0.049996	45.000000	nontarget	11.000000	na
43.813588	0.049998	45.000000	nontarget	12.000000	na
43.863586	0.049997	45.000000	nontarget	13.000000	na
43.913583	0.049997	45.000000	nontarget	14.000000	na
43.963580	0.049998	45.000000	nontarget	15.000000	43.970842
44.013578	0.049994	45.000000	nontarget	16.000000	na
44.063572	0.049999	46.000000	nontarget	1.000000	44.064303
44.113571	0.049996	46.000000	nontarget	2.000000	na
44.163567	0.049995	46.000000	nontarget	3.000000	na
44.213562	0.049999	46.000000	nontarget	4.000000	na
44.263562	0.049995	46.000000	nontarget	5.000000	na
44.313557	0.049995	46.000000	nontarget	6.000000	na
44.363552	0.049996	46.000000	nontarget	7.000000	na
44.413548	0.049998	46.000000	nontarget	8.000000	na
44.463546	0.049998	46.000000	nontarget	9.000000	na
44.513544	0.049996	46.000000	nontarget	10.000000	na
44.563540	0.049998	46.000000	nontarget	11.000000	na
44.613537	0.050000	46.000000	nontarget	12.000000	na
44.663538	0.049996	46.000000	nontarget	13.000000	na
44.713534	0.049996	46.000000	nontarget	14.000000	44.746859
44.763530	0.049995	46.000000	nontarget	15.000000	na
44.813525	0.049996	46.000000	nontarget	16.000000	na
44.863521	0.049996	47.000000	nontarget	1.000000	44.864225
44.913517	0.049999	47.000000	nontarget	2.000000	na
44.963516	0.049996	47.000000	nontarget	3.000000	na
45.013512	0.049996	47.000000	nontarget	4.000000	na
45.063508	0.049999	47.000000	nontarget	5.000000	na
45.113507	0.049995	47.000000	nontarget	6.000000	na
45.163502	0.049999	47.000000	nontarget	7.000000	na
45.213500	0.049996	47.000000	nontarget	8.000000	na
45.263496	0.049997	47.000000	nontarget	9.000000	na
45.313493	0.049996	47.000000	nontarget	10.000000	na
45.363489	0.049997	47.000000	nontarget	11.000000	na
45.413486	0.049996	47.000000	nontarget	12.000000	na
45.463482	0.050000	47.000000	nontarget	13.000000	na
45.513482	0.049994	47.000000	nontarget	14.000000	45.514189
45.563476	0.049997	47.000000	nontarget	15.000000	na
45.613473	0.049996	47.000000	nontarget	16.000000	na
45.663469	0.049982	48.000000	nontarget	1.000000	na
45.713451	0.050012	48.000000	nontarget	2.000000	na
45.763462	0.049997	48.000000	nontarget	3.000000	na
45.813460	0.049999	48.000000	nontarget	4.000000	na
45.863459	0.049995	48.000000	nontarget	5.000000	na
45.913454	0.049996	48.000000	nontarget	6.000000	na
45.963450	0.050000	48.000000	nontarget	7.000000	na
46.013450	0.049994	48.000000	nontarget	8.000000	na
46.063444	0.049998	48.000000	nontarget	9.000000	na
46.113442	0.049996	48.000000	nontarget	10.000000	na
46.163439	0.049998	48.000000	nontarget	11.000000	na
46.213436	0.049995	48.000000	nontarget	12.000000	na
46.263431	0.049998	48.000000	nontarget	13.000000	46.269907
46.313429	0.049993	48.000000	nontarget	14.000000	na
46.363422	0.050001	48.000000	nontarget	15.000000	na
46.413423	0.049997	48.000000	nontarget	16.000000	na
46.463420	0.049998	49.000000	nontarget	1.000000	na
46.513418	0.049995	49.000000	nontarget	2.000000	na
46.563412	0.049998	49.000000	nontarget	3.000000	na
46.613410	0.049995	49.000000	nontarget	4.000000	na
46.663405	0.049996	49.000000	nontarget	5.000000	na
46.713402	0.049999	49.000000	nontarget	6.000000	na
46.763400	0.049996	49.000000	nontarget	7.000000	na
46.813396	0.049997	49.000000	nontarget	8.000000	na
46.863393	0.049997	49.000000	nontarget	9.000000	na
46.913390	0.049995	49.000000	nontarget	10.000000	na
46.963386	0.049999	49.000000	nontarget	11.000000	na
47.013385	0.049995	49.000000	nontarget	12.000000	na
47.063380	0.049999	49.000000	nontarget	13.000000	na
47.113379	0.049995	49.000000	nontarget	14.000000	47.114066
47.163374	0.049998	49.000000	nontarget	15.000000	na
47.213372	0.049997	49.000000	nontarget	16.000000	na
47.263368	0.049996	50.000000	nontarget	1.000000	na
47.313364	0.049998	50.000000	nontarget	2.000000	na
47.363362	0.049997	50.000000	nontarget	3.000000	na
47.413359	0.049996	50.000000	nontarget	4.000000	na
47.463355	0.049990	50.000000	nontarget	5.000000	na
47.513345	0.050003	50.000000	nontarget	6.000000	na
47.563348	0.049996	50.000000	nontarget	7.000000	na
47.613344	0.049998	50.000000	nontarget	8.000000	na
47.663342	0.049996	50.000000	nontarget	9.000000	na
47.713339	0.049998	50.000000	nontarget	10.000000	na
47.763336	0.049997	50.000000	nontarget	11.000000	na
47.813334	0.049995	50.000000	nontarget	12.000000	na
47.863328	0.049998	50.000000	nontarget	13.000000	na
47.913326	0.049996	50.000000	nontarget	14.000000	47.928114
47.963322	0.049996	50.000000	nontarget	15.000000	na
48.013318	0.050012	50.000000	nontarget	16.000000	na
48.063329	0.049983	51.000000	nontarget	1.000000	48.064019
48.113312	0.050006	51.000000	nontarget	2.000000	na
48.163319	0.049999	51.000000	nontarget	3.000000	na
48.213317	0.050000	51.000000	nontarget	4.000000	na
48.263317	0.050000	51.000000	nontarget	5.000000	na
48.313317	0.050025	51.000000	nontarget	6.000000	na
48.363343	0.049944	51.000000	nontarget	7.000000	na
48.413287	0.050023	51.000000	nontarget	8.000000	na
48.463310	0.049978	51.000000	nontarget	9.000000	na
48.513288	0.050001	51.000000	nontarget	10.000000	na
48.563289	0.050004	51.000000	nontarget	11.000000	na
48.613293	0.049989	51.000000	nontarget	12.000000	na
48.663282	0.050007	51.000000	nontarget	13.000000	na
48.713289	0.049993	51.000000	nontarget	14.000000	48.714000
48.763282	0.049987	51.000000	nontarget	15.000000	na
48.813269	0.050006	51.000000	nontarget	16.000000	na
48.863275	0.049987	52.000000	nontarget	1.000000	na
48.913262	0.049998	52.000000	nontarget	2.000000	na
48.963260	0.049993	52.000000	nontarget	3.000000	na
49.013253	0.050000	52.000000	nontarget	4.000000	na
49.063253	0.049996	52.000000	nontarget	5.000000	na
49.113249	0.050003	52.000000	nontarget	6.000000	na
49.163253	0.049983	52.000000	nontarget	7.000000	na
49.213235	0.049998	52.000000	nontarget	8.000000	na
49.263233	0.050002	52.000000	nontarget	9.000000	na
49.313235	0.049996	52.000000	nontarget	10.000000	na
49.363231	0.049998	52.000000	nontarget	11.000000	na
49.413229	0.049997	52.000000	nontarget	12.000000	na
49.463226	0.049996	52.000000	nontarget	13.000000	49.475874
49.513222	0.049999	52.000000	nontarget	14.000000	na
49.563221	0.049996	52.000000	nontarget	15.000000	na
49.613216	0.049997	52.000000	nontarget	16.000000	na
49.663213	0.049998	53.000000	nontarget	1.000000	na
49.713211	0.050000	53.000000	nontarget	2.000000	na
49.763210	0.049993	53.000000	nontarget	3.000000	na
49.813203	0.049996	53.000000	nontarget	4.000000	na
49.863199	0.049998	53.000000	nontarget	5.000000	na
49.913197	0.049998	53.000000	nontarget	6.000000	na
49.963194	0.049998	53.000000	nontarget	7.000000	na
50.013192	0.049995	53.000000	nontarget	8.000000	na
50.063187	0.049997	53.000000	nontarget	9.000000	na
50.113183	0.049998	53.000000	nontarget	10.000000	na
50.163181	0.049996	53.000000	nontarget	11.000000	na
50.213177	0.049999	53.000000	nontarget	12.000000	na
50.263176	0.049994	53.000000	nontarget	13.000000	50.263883
50.313170	0.050000	53.000000	nontarget	14.000000	na
50.363170	0.049996	53.000000	nontarget	15.000000	na
50.413166	0.049990	53.000000	nontarget	16.000000	na
50.463156	0.050004	54.000000	nontarget	1.000000	na
50.513160	0.049995	54.000000	nontarget	2.000000	na
50.563155	0.049999	54.000000	nontarget	3.000000	na
50.613153	0.049996	54.000000	nontarget	4.000000	na
50.663149	0.049998	54.000000	nontarget	5.000000	na
50.713147	0.049997	54.000000	nontarget	6.000000	na
50.763144	0.049997	54.000000	nontarget	7.000000	na
50.813141	0.049996	54.000000	nontarget	8.000000	na
50.863137	0.049996	54.000000	nontarget	9.000000	na
50.913133	0.049997	54.000000	nontarget	10.000000	na
50.963130	0.049996	54.000000	nontarget	11.000000	na
51.013126	0.049996	54.000000	nontarget	12.000000	51.033899
51.063122	0.049999	54.000000	nontarget	13.000000	na
51.113121	0.049995	54.000000	nontarget	14.000000	na
51.163116	0.049998	54.000000	nontarget	15.000000	na
51.213114	0.049995	54.000000	nontarget	16.000000	na
51.263109	0.049998	55.000000	nontarget	1.000000	na
51.313107	0.049997	55.000000	nontarget	2.000000	na
51.363104	0.049996	55.000000	nontarget	3.000000	na
51.413100	0.049998	55.000000	nontarget	4.000000	na
51.463098	0.049996	55.000000	nontarget	5.000000	na
51.513093	0.049999	55.000000	nontarget	6.000000	na
51.563092	0.049997	55.000000	nontarget	7.000000	na
51.613089	0.049995	55.000000	nontarget	8.000000	na
51.663084	0.049998	55.000000	nontarget	9.000000	na
51.713083	0.049995	55.000000	nontarget	10.000000	na
51.763078	0.049998	55.000000	nontarget	11.000000	na
51.813076	0.049996	55.000000	nontarget	12.000000	na
51.863072	0.049996	55.000000	nontarget	13.000000	51.863786
51.913068	0.049997	55.000000	nontarget	14.000000	na
51.963065	0.049993	55.000000	nontarget	15.000000	na
52.013059	0.050002	55.000000	nontarget	16.000000	na
52.063060	0.049996	56.000000	nontarget	1.000000	na
52.113056	0.049998	56.000000	nontarget	2.000000	na
52.163054	0.049997	56.000000	nontarget	3.000000	na
52.213050	0.049996	56.000000	nontarget	4.000000	na
52.263046	0.049998	56.000000	nontarget	5.000000	na
52.313044	0.049995	56.000000	nontarget	6.000000	na
52.363039	0.049996	56.000000	nontarget	7.000000	na
52.413035	0.049997	56.000000	nontarget	8.000000	na
52.463032	0.049997	56.000000	nontarget	9.000000	na
52.513029	0.049997	56.000000	nontarget	10.000000	na
52.563026	0.049997	56.000000	nontarget	11.000000	na
52.613024	0.049995	56.000000	nontarget	12.000000	na
52.663018	0.049998	56.000000	nontarget	13.000000	na
52.713017	0.049997	56.000000	nontarget	14.000000	na
52.763014	0.049998	56.000000	nontarget	15.000000	na
52.813011	0.049998	56.000000	nontarget	16.000000	na
52.863010	0.049996	57.000000	nontarget	1.000000	52.863731
52.913005	0.049995	57.000000	nontarget	2.000000	na
52.963001	0.049999	57.000000	nontarget	3.000000	na
53.012999	0.049996	57.000000	nontarget	4.000000	na
53.062995	0.049995	57.000000	nontarget	5.000000	na
53.112990	0.049997	57.000000	nontarget	6.000000	na
53.162987	0.049997	57.000000	nontarget	7.000000	na
53.212984	0.049997	57.000000	nontarget	8.000000	na
53.262981	0.049998	57.000000	nontarget	9.000000	na
53.312979	0.049996	57.000000	nontarget	10.000000	na
53.362975	0.049997	57.000000	nontarget	11.000000	na
53.412972	0.049996	57.000000	nontarget	12.000000	na
53.462968	0.049998	57.000000	nontarget	13.000000	na
53.512966	0.049996	57.000000	nontarget	14.000000	na
53.562962	0.049997	57.000000	nontarget	15.000000	53.590901
53.612960	0.049995	57.000000	nontarget	16.000000	na
53.662955	0.050006	58.000000	nontarget	1.000000	53.663655
53.712960	0.049990	58.000000	nontarget	2.000000	na
53.762951	0.049996	58.000000	nontarget	3.000000	na
53.812947	0.049999	58.000000	nontarget	4.000000	na
53.862945	0.049995	58.000000	nontarget	5.000000	na
53.912940	0.049998	58.000000	nontarget	6.000000	na
53.962938	0.049995	58.000000	nontarget	7.000000	na
54.012933	0.049998	58.000000	nontarget	8.000000	na
54.062931	0.049992	58.000000	nontarget	9.000000	na
54.112923	0.050002	58.000000	nontarget	10.000000	na
54.162924	0.049997	58.000000	nontarget	11.000000	na
54.212922	0.049998	58.000000	nontarget	12.000000	na
54.262919	0.049995	58.000000	nontarget	13.000000	na
54.312915	0.049996	58.000000	nontarget	14.000000	na
54.362911	0.049999	58.000000	nontarget	15.000000	na
54.412910	0.049996	58.000000	nontarget	16.000000	na
54.462906	0.049997	59.000000	nontarget	1.000000	54.466842
54.512903	0.049997	59.000000	nontarget	2.000000	na
54.562900	0.049997	59.000000	nontarget	3.000000	na
54.612897	0.049994	59.000000	nontarget	4.000000	na
54.662891	0.049983	59.000000	nontarget	5.000000	na
54.712874	0.050011	59.000000	nontarget	6.000000	na
54.762885	0.049998	59.000000	nontarget	7.000000	na
54.812883	0.049996	59.000000	nontarget	8.000000	na
54.862880	0.049996	59.000000	nontarget	9.000000	na
54.912875	0.049998	59.000000	nontarget	10.000000	na
54.962873	0.049997	59.000000	nontarget	11.000000	na
55.012870	0.049996	59.000000	nontarget	12.000000	na
55.062867	0.049987	59.000000	nontarget	13.000000	na
55.112854	0.050006	59.000000	nontarget	14.000000	na
55.162860	0.049996	59.000000	nontarget	15.000000	na
55.212856	0.049998	59.000000	nontarget	16.000000	55.221974
55.262854	0.049996	60.000000	nontarget	1.000000	55.263579
55.312849	0.049998	60.000000	nontarget	2.000000	na
55.362847	0.049996	60.000000	nontarget	3.000000	na
55.412842	0.049998	60.000000	nontarget	4.000000	na
55.462841	0.049996	60.000000	nontarget	5.000000	na
55.512837	0.049997	60.000000	nontarget	6.000000	na
55.562834	0.049999	60.000000	nontarget	7.000000	na
55.612833	0.049996	60.000000	nontarget	8.000000	na
55.662829	0.049981	60.000000	nontarget	9.000000	na
55.712810	0.050015	60.000000	nontarget	10.000000	na
55.762825	0.049995	60.000000	nontarget	11.000000	na
55.812819	0.049995	60.000000	nontarget	12.000000	na
55.862815	0.050000	60.000000	nontarget	13.000000	na
55.912814	0.049994	60.000000	nontarget	14.000000	55.913501
55.962809	0.049998	60.000000	nontarget	15.000000	na
56.012806	0.049998	60.000000	nontarget	16.000000	na
56.062804	0.049993	61.000000	nontarget	1.000000	na
56.112797	0.049998	61.000000	nontarget	2.000000	na
56.162795	0.049998	61.000000	nontarget	3.000000	na
56.212793	0.049998	61.000000	nontarget	4.000000	na
56.262790	0.049995	61.000000	nontarget	5.000000	na
56.312786	0.049996	61.000000	nontarget	6.000000	na
56.362781	0.049997	61.000000	nontarget	7.000000	na
56.412778	0.049998	61.000000	nontarget	8.000000	na
56.462776	0.049996	61.000000	nontarget	9.000000	na
56.512772	0.049996	61.000000	nontarget	10.000000	na
56.562768	0.049998	61.000000	nontarget	11.000000	na
56.612766	0.049997	61.000000	nontarget	12.000000	na
56.662763	0.049999	61.000000	nontarget	13.000000	na
56.712762	0.049997	61.000000	nontarget	14.000000	na
56.762759	0.049993	61.000000	nontarget	15.000000	na
56.812753	0.049998	61.000000	nontarget	16.000000	na
56.862751	0.049995	62.000000	target	1.000000	na
56.912746	0.049998	62.000000	target	2.000000	na
56.962744	0.049999	62.000000	target	3.000000	na
57.012742	0.049996	62.000000	target	4.000000	na
57.062738	0.049996	62.000000	target	5.000000	na
57.112734	0.049997	62.000000	target	6.000000	na
57.162732	0.049998	62.000000	target	7.000000	na
57.212729	0.049997	62.000000	target	8.000000	na
57.262727	0.049996	62.000000	target	9.000000	na
57.312722	0.049996	62.000000	target	10.000000	na
57.362719	0.049998	62.000000	target	11.000000	57.380769
57.412717	0.050005	62.000000	target	12.000000	na
57.462721	0.049987	62.000000	target	13.000000	na
57.512708	0.050003	62.000000	target	14.000000	na
57.562711	0.049996	62.000000	target	15.000000	na
57.612707	0.049991	62.000000	target	16.000000	na
57.662699	0.050035	63.000000	nontarget	1.000000	na
57.712734	0.049996	63.000000	nontarget	2.000000	na
57.762729	0.050015	63.000000	nontarget	3.000000	na
57.812744	0.049936	63.000000	nontarget	4.000000	na
57.862680	0.049997	63.000000	nontarget	5.000000	na
57.912677	0.050023	63.000000	nontarget	6.000000	na
57.962700	0.049986	63.000000	nontarget	7.000000	na
58.012686	0.049993	63.000000	nontarget	8.000000	na
58.062679	0.050004	63.000000	nontarget	9.000000	na
58.112683	0.049987	63.000000	nontarget	10.000000	na
58.162671	0.050028	63.000000	nontarget	11.000000	na
58.212698	0.049977	63.000000	nontarget	12.000000	58.213757
58.262676	0.049993	63.000000	nontarget	13.000000	na
58.312669	0.049986	63.000000	nontarget	14.000000	na
58.362655	0.049999	63.000000	nontarget	15.000000	na
58.412653	0.049998	63.000000	nontarget	16.000000	na
58.462651	0.050002	64.000000	nontarget	1.000000	na
58.512653	0.050001	64.000000	nontarget	2.000000	na
58.562654	0.049985	64.000000	nontarget	3.000000	na
58.612639	0.049991	64.000000	nontarget	4.000000	na
58.662630	0.049998	64.000000	nontarget	5.000000	na
58.712627	0.049995	64.000000	nontarget	6.000000	na
58.762622	0.050003	64.000000	nontarget	7.000000	na
58.812625	0.049996	64.000000	nontarget	8.000000	na
58.862621	0.049999	64.000000	nontarget	9.000000	na
58.912620	0.049995	64.000000	nontarget	10.000000	na
58.962614	0.049997	64.000000	nontarget	11.000000	na
59.012611	0.050000	64.000000	nontarget	12.000000	na
59.062612	0.049995	64.000000	nontarget	13.000000	59.063326
59.112607	0.049996	64.000000	nontarget	14.000000	na
59.162602	0.049997	64.000000	nontarget	15.000000	na
59.212600	0.049997	64.000000	nontarget	16.000000	na
59.262597	0.049996	65.000000	nontarget	1.000000	na
59.312593	0.049995	65.000000	nontarget	2.000000	na
59.362588	0.049999	65.000000	nontarget	3.000000	na
59.412587	0.049996	65.000000	nontarget	4.000000	na
59.462583	0.049996	65.000000	nontarget	5.000000	na
59.512579	0.049997	65.000000	nontarget	6.000000	na
59.562576	0.049997	65.000000	nontarget	7.000000	na
59.612574	0.049995	65.000000	nontarget	8.000000	na
59.662569	0.050003	65.000000	nontarget	9.000000	na
59.712572	0.049993	65.000000	nontarget	10.000000	na
59.762565	0.049996	65.000000	nontarget	11.000000	na
59.812561	0.049998	65.000000	nontarget	12.000000	na
59.862559	0.049996	65.000000	nontarget	13.000000	na
59.912555	0.049999	65.000000	nontarget	14.000000	na
59.962554	0.049995	65.000000	nontarget	15.000000	59.963266
60.012549	0.049996	65.000000	nontarget	16.000000	na
60.062545	0.049996	66.000000	nontarget	1.000000	60.063270
60.112541	0.049997	66.000000	nontarget	2.000000	na
60.162539	0.049997	66.000000	nontarget	3.000000	na
60.212536	0.049995	66.000000	nontarget	4.000000	na
60.262530	0.049999	66.000000	nontarget	5.000000	na
60.312529	0.049995	66.000000	nontarget	6.000000	na
60.362524	0.049997	66.000000	nontarget	7.000000	na
60.412521	0.049998	66.000000	nontarget	8.000000	na
60.462519	0.049997	66.000000	nontarget	9.000000	na
60.512516	0.049997	66.000000	nontarget	10.000000	na
60.562513	0.049996	66.000000	nontarget	11.000000	na
60.612509	0.049997	66.000000	nontarget	12.000000	na
60.662506	0.049993	66.000000	nontarget	13.000000	60.695375
60.712499	0.050007	66.000000	nontarget	14.000000	na
60.762506	0.049991	66.000000	nontarget	15.000000	na
60.812497	0.049996	66.000000	nontarget	16.000000	na
60.862494	0.049996	67.000000	nontarget	1.000000	60.863201
60.912490	0.049998	67.000000	nontarget	2.000000	na
60.962488	0.049996	67.000000	nontarget	3.000000	na
61.012484	0.049998	67.000000	nontarget	4.000000	na
61.062482	0.049995	67.000000	nontarget	5.000000	na
61.112477	0.049996	67.000000	nontarget	6.000000	na
61.162473	0.049998	67.000000	nontarget	7.000000	na
61.212471	0.049997	67.000000	nontarget	8.000000	na
61.262468	0.049996	67.000000	nontarget	9.000000	na
61.312464	0.049997	67.000000	nontarget	10.000000	na
61.362461	0.049999	67.000000	nontarget	11.000000	na
61.412460	0.049996	67.000000	nontarget	12.000000	na
61.462456	0.049996	67.000000	nontarget	13.000000	61.485759
61.512453	0.049997	67.000000	nontarget	14.000000	na
61.562450	0.049996	67.000000	nontarget	15.000000	na
61.612446	0.049996	67.000000	nontarget	16.000000	na
61.662442	0.049999	68.000000	nontarget	1.000000	na
61.712441	0.049996	68.000000	nontarget	2.000000	na
61.762436	0.049998	68.000000	nontarget	3.000000	na
61.812434	0.049995	68.000000	nontarget	4.000000	na
61.862430	0.049996	68.000000	nontarget	5.000000	na
61.912425	0.049998	68.000000	nontarget	6.000000	na
61.962423	0.049998	68.000000	nontarget	7.000000	na
62.012420	0.049996	68.000000	nontarget	8.000000	na
62.062417	0.049997	68.000000	nontarget	9.000000	na
62.112414	0.049997	68.000000	nontarget	10.000000	na
62.162411	0.049996	68.000000	nontarget	11.000000	na
62.212407	0.049998	68.000000	nontarget	12.000000	na
62.262405	0.049996	68.000000	nontarget	13.000000	62.295579
62.312401	0.049996	68.000000	nontarget	14.000000	na
62.362398	0.049997	68.000000	nontarget	15.000000	na
62.412394	0.049996	68.000000	nontarget	16.000000	na
62.462390	0.049998	69.000000	nontarget	1.000000	na
62.512388	0.049996	69.000000	nontarget	2.000000	na
62.562384	0.049998	69.000000	nontarget	3.000000	na
62.612382	0.049997	69.000000	nontarget	4.000000	na
62.662379	0.050001	69.000000	nontarget	5.000000	na
62.712380	0.049992	69.000000	nontarget	6.000000	na
62.762372	0.049997	69.000000	nontarget	7.000000	na
62.812369	0.049996	69.000000	nontarget	8.000000	na
62.862365	0.049996	69.000000	nontarget	9.000000	na
62.912361	0.049997	69.000000	nontarget	10.000000	na
62.962358	0.049998	69.000000	nontarget	11.000000	na
63.012356	0.049996	69.000000	nontarget	12.000000	na
63.062353	0.049996	69.000000	nontarget	13.000000	63.087726
63.112349	0.049997	69.000000	nontarget	14.000000	na
63.162346	0.049997	69.000000	nontarget	15.000000	na
63.212343	0.049996	69.000000	nontarget	16.000000	na
63.262339	0.049998	70.000000	nontarget	1.000000	na
63.312337	0.049997	70.000000	nontarget	2.000000	na
63.362333	0.049996	70.000000	nontarget	3.000000	na
63.412330	0.049997	70.000000	nontarget	4.000000	na
63.462327	0.049998	70.000000	nontarget	5.000000	na
63.512325	0.049996	70.000000	nontarget	6.000000	na
63.562321	0.049997	70.000000	nontarget	7.000000	na
63.612317	0.049995	70.000000	nontarget	8.000000	na
63.662313	0.049999	70.000000	nontarget	9.000000	na
63.712311	0.049996	70.000000	nontarget	10.000000	na
63.762307	0.049997	70.000000	nontarget	11.000000	na
63.812304	0.049996	70.000000	nontarget	12.000000	na
63.862300	0.049998	70.000000	nontarget	13.000000	na
63.912297	0.049997	70.000000	nontarget	14.000000	na
63.962295	0.049997	70.000000	nontarget	15.000000	63.978660
64.012292	0.049996	70.000000	nontarget	16.000000	na
64.062289	0.050000	71.000000	nontarget	1.000000	64.063009
64.112288	0.049992	71.000000	nontarget	2.000000	na
64.162281	0.049998	71.000000	nontarget	3.000000	na
64.212278	0.049997	71.000000	nontarget	4.000000	na
64.262275	0.049997	71.000000	nontarget	5.000000	na
64.312272	0.049999	71.000000	nontarget	6.000000	na
64.362271	0.049994	71.000000	nontarget	7.000000	na
64.412265	0.049997	71.000000	nontarget	8.000000	na
64.462262	0.049997	71.000000	nontarget	9.000000	na
64.512259	0.049997	71.000000	nontarget	10.000000	na
64.562256	0.049997	71.000000	nontarget	11.000000	na
64.612253	0.049996	71.000000	nontarget	12.000000	na
64.662249	0.050000	71.000000	nontarget	13.000000	na
64.712249	0.049996	71.000000	nontarget	14.000000	64.712977
64.762245	0.049995	71.000000	nontarget	15.000000	na
64.812240	0.049997	71.000000	nontarget	16.000000	na
64.862238	0.049995	72.000000	nontarget	1.000000	na
64.912233	0.049997	72.000000	nontarget	2.000000	na
64.962230	0.049999	72.000000	nontarget	3.000000	na
65.012229	0.049996	72.000000	nontarget	4.000000	na
65.062224	0.049998	72.000000	nontarget	5.000000	na
65.112222	0.049995	72.000000	nontarget	6.000000	na
65.162217	0.049997	72.000000	nontarget	7.000000	na
65.212215	0.049996	72.000000	nontarget	8.000000	na
65.262211	0.049998	72.000000	nontarget	9.000000	na
65.312208	0.049998	72.000000	nontarget	10.000000	na
65.362206	0.049995	72.000000	nontarget	11.000000	na
65.412201	0.049998	72.000000	nontarget	12.000000	65.441844
65.462200	0.049996	72.000000	nontarget	13.000000	na
65.512195	0.049996	72.000000	nontarget	14.000000	na
65.562192	0.049998	72.000000	nontarget	15.000000	na
65.612189	0.049994	72.000000	nontarget	16.000000	na
65.662184	0.049998	73.000000	nontarget	1.000000	na
65.712182	0.049997	73.000000	nontarget	2.000000	na
65.762179	0.049997	73.000000	nontarget	3.000000	na
65.812176	0.049997	73.000000	nontarget	4.000000	na
65.862173	0.049996	73.000000	nontarget	5.000000	na
65.912169	0.049997	73.000000	nontarget	6.000000	na
65.962166	0.049993	73.000000	nontarget	7.000000	na
66.012159	0.050002	73.000000	nontarget	8.000000	na
66.062161	0.049996	73.000000	nontarget	9.000000	na
66.112157	0.049995	73.000000	nontarget	10.000000	na
66.162152	0.050000	73.000000	nontarget	11.000000	na
66.212152	0.049995	73.000000	nontarget	12.000000	na
66.262147	0.049997	73.000000	nontarget	13.000000	na
66.312144	0.049996	73.000000	nontarget	14.000000	66.312827
66.362140	0.049997	73.000000	nontarget	15.000000	na
66.412137	0.049998	73.000000	nontarget	16.000000	na
66.462135	0.049998	74.000000	nontarget	1.000000	na
66.512133	0.049996	74.000000	nontarget	2.000000	na
66.562129	0.049996	74.000000	nontarget	3.000000	na
66.612125	0.049996	74.000000	nontarget	4.000000	na
66.662120	0.049998	74.000000	nontarget	5.000000	na
66.712118	0.049996	74.000000	nontarget	6.000000	na
66.762115	0.049997	74.000000	nontarget	7.000000	na
66.812112	0.049995	74.000000	nontarget	8.000000	na
66.862107	0.049998	74.000000	nontarget	9.000000	na
66.912105	0.049996	74.000000	nontarget	10.000000	na
66.962101	0.050001	74.000000	nontarget	11.000000	na
67.012102	0.050004	74.000000	nontarget	12.000000	67.012795
67.062106	0.049994	74.000000	nontarget	13.000000	na
67.112100	0.049990	74.000000	nontarget	14.000000	na
67.162090	0.049995	74.000000	nontarget	15.000000	na
67.212085	0.050012	74.000000	nontarget	16.000000	na
67.262097	0.050006	75.000000	nontarget	1.000000	na
67.312102	0.049999	75.000000	nontarget	2.000000	na
67.362101	0.049987	75.000000	nontarget	3.000000	na
67.412088	0.050004	75.000000	nontarget	4.000000	na
67.462092	0.049981	75.000000	nontarget	5.000000	na
67.512073	0.049997	75.000000	nontarget	6.000000	na
67.562070	0.050008	75.000000	nontarget	7.000000	na
67.612078	0.049979	75.000000	nontarget	8.000000	na
67.662057	0.050007	75.000000	nontarget	9.000000	na
67.712064	0.050003	75.000000	nontarget	10.000000	67.730634
67.762067	0.049993	75.000000	nontarget	11.000000	na
67.812060	0.049985	75.000000	nontarget	12.000000	na
67.862045	0.049996	75.000000	nontarget	13.000000	na
67.912040	0.049999	75.000000	nontarget	14.000000	na
67.962040	0.049993	75.000000	nontarget	15.000000	na
68.012033	0.050015	75.000000	nontarget	16.000000	na
68.062048	0.049984	76.000000	nontarget	1.000000	na
68.112032	0.049999	76.000000	nontarget	2.000000	na
68.162031	0.049984	76.000000	nontarget	3.000000	na
68.212015	0.049997	76.000000	nontarget	4.000000	na
68.262012	0.050003	76.000000	nontarget	5.000000	na
68.312015	0.049996	76.000000	nontarget	6.000000	na
68.362012	0.049997	76.000000	nontarget	7.000000	na
68.412009	0.049996	76.000000	nontarget	8.000000	na
68.462004	0.049997	76.000000	nontarget	9.000000	na
68.512001	0.049998	76.000000	nontarget	10.000000	68.517766
68.561999	0.049998	76.000000	nontarget	11.000000	na
68.611997	0.049998	76.000000	nontarget	12.000000	na
68.661995	0.049999	76.000000	nontarget	13.000000	na
68.711994	0.049981	76.000000	nontarget	14.000000	na
68.761975	0.050007	76.000000	nontarget	15.000000	na
68.811983	0.049998	76.000000	nontarget	16.000000	na
68.861981	0.049994	77.000000	nontarget	1.000000	na
68.911975	0.049998	77.000000	nontarget	2.000000	na
68.961973	0.049999	77.000000	nontarget	3.000000	na
69.011972	0.049997	77.000000	nontarget	4.000000	na
69.061968	0.049994	77.000000	nontarget	5.000000	na
69.111962	0.049998	77.000000	nontarget	6.000000	na
69.161960	0.050002	77.000000	nontarget	7.000000	na
69.211962	0.049992	77.000000	nontarget	8.000000	69.212680
69.261953	0.049997	77.000000	nontarget	9.000000	na
69.311950	0.049997	77.000000	nontarget	10.000000	na
69.361948	0.049996	77.000000	nontarget	11.000000	na
69.411944	0.049996	77.000000	nontarget	12.000000	na
69.461941	0.049997	77.000000	nontarget	13.000000	na
69.511937	0.049998	77.000000	nontarget	14.000000	na
69.561935	0.049998	77.000000	nontarget	15.000000	na
69.611933	0.049996	77.000000	nontarget	16.000000	na
69.661929	0.049984	78.000000	nontarget	1.000000	na
69.711913	0.050010	78.000000	nontarget	2.000000	na
69.761923	0.049997	78.000000	nontarget	3.000000	na
69.811920	0.049996	78.000000	nontarget	4.000000	na
69.861915	0.049997	78.000000	nontarget	5.000000	na
69.911912	0.049997	78.000000	nontarget	6.000000	na
69.961910	0.049998	78.000000	nontarget	7.000000	69.984569
70.011908	0.049994	78.000000	nontarget	8.000000	na
70.061902	0.049998	78.000000	nontarget	9.000000	na
70.111900	0.049997	78.000000	nontarget	10.000000	na
70.161897	0.049997	78.000000	nontarget	11.000000	na
70.211894	0.049997	78.000000	nontarget	12.000000	na
70.261891	0.049996	78.000000	nontarget	13.000000	na
70.311887	0.049995	78.000000	nontarget	14.000000	na
70.361882	0.049998	78.000000	nontarget	15.000000	na
70.411881	0.049995	78.000000	nontarget	16.000000	na
70.461876	0.049998	79.000000	nontarget	1.000000	na
70.511874	0.049998	79.000000	nontarget	2.000000	na
70.561872	0.049995	79.000000	nontarget	3.000000	na
70.611867	0.049997	79.000000	nontarget	4.000000	na
70.661864	0.049999	79.000000	nontarget	5.000000	na
70.711864	0.049995	79.000000	nontarget	6.000000	70.730503
70.761858	0.049998	79.000000	nontarget	7.000000	na
70.811856	0.049999	79.000000	nontarget	8.000000	na
70.861854	0.049994	79.000000	nontarget	9.000000	na
70.911849	0.049995	79.000000	nontarget	10.000000	na
70.961843	0.049999	79.000000	nontarget	11.000000	na
71.011843	0.049996	79.000000	nontarget	12.000000	na
71.061838	0.049998	79.000000	nontarget	13.000000	na
71.111836	0.049997	79.000000	nontarget	14.000000	na
71.161833	0.049996	79.000000	nontarget	15.000000	na
71.211829	0.049997	79.000000	nontarget	16.000000	na
71.261826	0.049995	80.000000	nontarget	1.000000	na
71.311821	0.049999	80.000000	nontarget	2.000000	na
71.361821	0.049995	80.000000	nontarget	3.000000	na
71.411816	0.049997	80.000000	nontarget	4.000000	na
71.461813	0.049997	80.000000	nontarget	5.000000	na
71.511810	0.049996	80.000000	nontarget	6.000000	na
71.561806	0.049997	80.000000	nontarget	7.000000	na
71.611803	0.049999	80.000000	nontarget	8.000000	na
71.661802	0.049995	80.000000	nontarget	9.000000	71.662515
71.711797	0.049998	80.000000	nontarget	10.000000	na
71.761795	0.049990	80.000000	nontarget	11.000000	na
71.811786	0.050001	80.000000	nontarget	12.000000	na
71.861787	0.049999	80.000000	nontarget	13.000000	na
71.911786	0.049995	80.000000	nontarget	14.000000	na
71.961781	0.049999	80.000000	nontarget	15.000000	na
72.011780	0.049996	80.000000	nontarget	16.000000	na
72.061776	0.049996	81.000000	nontarget	1.000000	na
72.111772	0.049996	81.000000	nontarget	2.000000	na
72.161768	0.049997	81.000000	nontarget	3.000000	na
72.211765	0.049996	81.000000	nontarget	4.000000	na
72.261761	0.049996	81.000000	nontarget	5.000000	na
72.311758	0.050000	81.000000	nontarget	6.000000	na
72.361757	0.049995	81.000000	nontarget	7.000000	na
72.411752	0.049996	81.000000	nontarget	8.000000	na
72.461748	0.050001	81.000000	nontarget	9.000000	na
72.511749	0.049993	81.000000	nontarget	10.000000	72.512459
72.561742	0.049998	81.000000	nontarget	11.000000	na
72.611740	0.049996	81.000000	nontarget	12.000000	na
72.661736	0.049998	81.000000	nontarget	13.000000	na
72.711734	0.050002	81.000000	nontarget	14.000000	na
72.761736	0.049993	81.000000	nontarget	15.000000	na
72.811729	0.049996	81.000000	nontarget	16.000000	na
72.861725	0.049995	82.000000	nontarget	1.000000	na
72.911720	0.049997	82.000000	nontarget	2.000000	na
72.961717	0.049997	82.000000	nontarget	3.000000	na
73.011714	0.049996	82.000000	nontarget	4.000000	na
73.061711	0.049997	82.000000	nontarget	5.000000	na
73.111708	0.049995	82.000000	nontarget	6.000000	na
73.161703	0.049999	82.000000	nontarget	7.000000	na
73.211702	0.049997	82.000000	nontarget	8.000000	na
73.261698	0.049995	82.000000	nontarget	9.000000	na
73.311693	0.049998	82.000000	nontarget	10.000000	na
73.361691	0.050000	82.000000	nontarget	11.000000	na
73.411691	0.049993	82.000000	nontarget	12.000000	73.412369
73.461684	0.049996	82.000000	nontarget	13.000000	na
73.511681	0.049999	82.000000	nontarget	14.000000	na
73.561680	0.049995	82.000000	nontarget	15.000000	na
73.611675	0.049999	82.000000	nontarget	16.000000	na
73.661673	0.049998	83.000000	nontarget	1.000000	na
73.711671	0.049993	83.000000	nontarget	2.000000	na
73.761664	0.050000	83.000000	nontarget	3.000000	na
73.811664	0.049995	83.000000	nontarget	4.000000	na
73.861659	0.049996	83.000000	nontarget	5.000000	na
73.911655	0.049997	83.000000	nontarget	6.000000	na
73.961652	0.049999	83.000000	nontarget	7.000000	na
74.011652	0.049996	83.000000	nontarget	8.000000	na
74.061647	0.050000	83.000000	nontarget	9.000000	na
74.111647	0.049994	83.000000	nontarget	10.000000	na
74.161641	0.049994	83.000000	nontarget	11.000000	na
74.211635	0.049998	83.000000	nontarget	12.000000	na
74.261633	0.049999	83.000000	nontarget	13.000000	na
74.311633	0.049995	83.000000	nontarget	14.000000	74.312341
74.361628	0.049996	83.000000	nontarget	15.000000	na
74.411624	0.049996	83.000000	nontarget	16.000000	na
74.461620	0.049997	84.000000	nontarget	1.000000	na
74.511617	0.049997	84.000000	nontarget	2.000000	na
74.561614	0.049997	84.000000	nontarget	3.000000	na
74.611611	0.050000	84.000000	nontarget	4.000000	na
74.661611	0.049996	84.000000	nontarget	5.000000	na
74.711607	0.049997	84.000000	nontarget	6.000000	na
74.761603	0.049995	84.000000	nontarget	7.000000	na
74.811598	0.049996	84.000000	nontarget	8.000000	na
74.861594	0.049998	84.000000	nontarget	9.000000	na
74.911593	0.049996	84.000000	nontarget	10.000000	na
74.961588	0.049998	84.000000	nontarget	11.000000	na
75.011586	0.049996	84.000000	nontarget	12.000000	na
75.061582	0.049999	84.000000	nontarget	13.000000	na
75.111581	0.049993	84.000000	nontarget	14.000000	na
75.161574	0.049999	84.000000	nontarget	15.000000	na
75.211573	0.049998	84.000000	nontarget	16.000000	75.221390
75.261571	0.049994	85.000000	nontarget	1.000000	75.262264
75.311565	0.049999	85.000000	nontarget	2.000000	na
75.361564	0.049997	85.000000	nontarget	3.000000	na
75.411561	0.049996	85.000000	nontarget	4.000000	na
75.461556	0.049996	85.000000	nontarget	5.000000	na
75.511553	0.049997	85.000000	nontarget	6.000000	na
75.561550	0.049997	85.000000	nontarget	7.000000	na
75.611547	0.049997	85.000000	nontarget	8.000000	na
75.661544	0.049996	85.000000	nontarget	9.000000	na
75.711539	0.050001	85.000000	nontarget	10.000000	na
75.761540	0.049996	85.000000	nontarget	11.000000	na
75.811536	0.049995	85.000000	nontarget	12.000000	na
75.861531	0.049996	85.000000	nontarget	13.000000	na
75.911527	0.049997	85.000000	nontarget	14.000000	na
75.961524	0.050002	85.000000	nontarget	15.000000	na
76.011527	0.049991	85.000000	nontarget	16.000000	76.025402
76.061518	0.050007	86.000000	nontarget	1.000000	76.062207
76.111525	0.049988	86.000000	nontarget	2.000000	na
76.161513	0.050010	86.000000	nontarget	3.000000	na
76.211523	0.049992	86.000000	nontarget	4.000000	na
76.261515	0.049997	86.000000	nontarget	5.000000	na
76.311513	0.049987	86.000000	nontarget	6.000000	na
76.361500	0.050029	86.000000	nontarget	7.000000	na
76.411529	0.049974	86.000000	nontarget	8.000000	na
76.461503	0.050009	86.000000	nontarget	9.000000	na
76.511512	0.050009	86.000000	nontarget	10.000000	na
76.561520	0.049978	86.000000	nontarget	11.000000	na
76.611498	0.050027	86.000000	nontarget	12.000000	na
76.661525	0.049977	86.000000	nontarget	13.000000	na
76.711502	0.050000	86.000000	nontarget	14.000000	na
76.761502	0.050004	86.000000	nontarget	15.000000	na
76.811506	0.049993	86.000000	nontarget	16.000000	na
76.861499	0.049990	87.000000	nontarget	1.000000	na
76.911488	0.050006	87.000000	nontarget	2.000000	na
76.961494	0.049979	87.000000	nontarget	3.000000	76.962176
77.011473	0.050008	87.000000	nontarget	4.000000	na
77.061481	0.049995	87.000000	nontarget	5.000000	na
77.111475	0.049993	87.000000	nontarget	6.000000	na
77.161469	0.050002	87.000000	nontarget	7.000000	na
77.211471	0.049984	87.000000	nontarget	8.000000	na
77.261454	0.049988	87.000000	nontarget	9.000000	na
77.311442	0.049997	87.000000	nontarget	10.000000	na
77.361439	0.049985	87.000000	nontarget	11.000000	na
77.411424	0.050001	87.000000	nontarget	12.000000	na
77.461425	0.049999	87.000000	nontarget	13.000000	na
77.511425	0.050010	87.000000	nontarget	14.000000	na
77.561435	0.049989	87.000000	nontarget	15.000000	na
77.611424	0.049984	87.000000	nontarget	16.000000	na
77.661408	0.050025	88.000000	nontarget	1.000000	na
77.711433	0.049971	88.000000	nontarget	2.000000	na
77.761404	0.050001	88.000000	nontarget	3.000000	na
77.811406	0.049998	88.000000	nontarget	4.000000	na
77.861403	0.049994	88.000000	nontarget	5.000000	77.862134
77.911398	0.049998	88.000000	nontarget	6.000000	na
77.961396	0.049999	88.000000	nontarget	7.000000	na
78.011395	0.049994	88.000000	nontarget	8.000000	na
78.061389	0.049997	88.000000	nontarget	9.000000	na
78.111387	0.049997	88.000000	nontarget	10.000000	na
78.161383	0.049997	88.000000	nontarget	11.000000	na
78.211381	0.049995	88.000000	nontarget	12.000000	na
78.261376	0.049997	88.000000	nontarget	13.000000	na
78.311373	0.049998	88.000000	nontarget	14.000000	na
78.361370	0.049996	88.000000	nontarget	15.000000	na
78.411366	0.049999	88.000000	nontarget	16.000000	na
78.461365	0.049996	89.000000	nontarget	1.000000	na
78.511361	0.049997	89.000000	nontarget	2.000000	na
78.561358	0.049997	89.000000	nontarget	3.000000	na
78.611355	0.049996	89.000000	nontarget	4.000000	na
78.661351	0.049996	89.000000	nontarget	5.000000	na
78.711347	0.049998	89.000000	nontarget	6.000000	na
78.761346	0.049996	89.000000	nontarget	7.000000	78.793516
78.811342	0.049997	89.000000	nontarget	8.000000	na
78.861339	0.049996	89.000000	nontarget	9.000000	na
78.911334	0.049998	89.000000	nontarget	10.000000	na
78.961332	0.049991	89.000000	nontarget	11.000000	na
79.011323	0.050002	89.000000	nontarget	12.000000	na
79.061325	0.049998	89.000000	nontarget	13.000000	na
79.111323	0.049995	89.000000	nontarget	14.000000	na
79.161318	0.049997	89.000000	nontarget	15.000000	na
79.211315	0.049997	89.000000	nontarget	16.000000	na
79.261312	0.049997	90.000000	nontarget	1.000000	na
79.311309	0.049998	90.000000	nontarget	2.000000	na
79.361306	0.049997	90.000000	nontarget	3.000000	na
79.411303	0.049997	90.000000	nontarget	4.000000	na
79.461300	0.049996	90.000000	nontarget	5.000000	na
79.511296	0.049997	90.000000	nontarget	6.000000	na
79.561293	0.049997	90.000000	nontarget	7.000000	na
79.611290	0.049996	90.000000	nontarget	8.000000	na
79.661286	0.049999	90.000000	nontarget	9.000000	na
79.711285	0.049996	90.000000	nontarget	10.000000	na
79.761280	0.049997	90.000000	nontarget	11.000000	79.771446
79.811278	0.049996	90.000000	nontarget	12.000000	na
79.861274	0.049998	90.000000	nontarget	13.000000	na
79.911272	0.049996	90.000000	nontarget	14.000000	na
79.961267	0.049998	90.000000	nontarget	15.000000	na
80.011266	0.049999	90.000000	nontarget	16.000000	na
80.061265	0.049994	91.000000	nontarget	1.000000	na
80.111258	0.049998	91.000000	nontarget	2.000000	na
80.161256	0.049995	91.000000	nontarget	3.000000	na
80.211252	0.049997	91.000000	nontarget	4.000000	na
80.261248	0.049996	91.000000	nontarget	5.000000	na
80.311245	0.049997	91.000000	nontarget	6.000000	na
80.361242	0.049997	91.000000	nontarget	7.000000	na
80.411239	0.049996	91.000000	nontarget	8.000000	na
80.461235	0.049996	91.000000	nontarget	9.000000	na
80.511231	0.049998	91.000000	nontarget	10.000000	na
80.561229	0.049997	91.000000	nontarget	11.000000	na
80.611226	0.049998	91.000000	nontarget	12.000000	na
80.661224	0.049995	91.000000	nontarget	13.000000	na
80.711219	0.049996	91.000000	nontarget	14.000000	80.727457
80.761215	0.049998	91.000000	nontarget	15.000000	na
80.811213	0.049999	91.000000	nontarget	16.000000	na
80.861212	0.049995	92.000000	nontarget	1.000000	na
80.911207	0.049995	92.000000	nontarget	2.000000	na
80.961202	0.049999	92.000000	nontarget	3.000000	na
81.011201	0.049996	92.000000	nontarget	4.000000	na
81.061198	0.049996	92.000000	nontarget	5.000000	na
81.111194	0.049996	92.000000	nontarget	6.000000	na
81.161189	0.049998	92.000000	nontarget	7.000000	na
81.211187	0.049997	92.000000	nontarget	8.000000	na
81.261184	0.049999	92.000000	nontarget	9.000000	na
81.311183	0.049993	92.000000	nontarget	10.000000	na
81.361176	0.049998	92.000000	nontarget	11.000000	na
81.411174	0.049996	92.000000	nontarget	12.000000	na
81.461170	0.049998	92.000000	nontarget	13.000000	na
81.511168	0.049996	92.000000	nontarget	14.000000	na
81.561165	0.049997	92.000000	nontarget	15.000000	81.561916
81.611161	0.049997	92.000000	nontarget	16.000000	na
81.661158	0.049999	93.000000	nontarget	1.000000	81.661895
81.711158	0.049980	93.000000	nontarget	2.000000	na
81.761137	0.050012	93.000000	nontarget	3.000000	na
81.811149	0.049996	93.000000	nontarget	4.000000	na
81.861145	0.049998	93.000000	nontarget	5.000000	na
81.911143	0.049996	93.000000	nontarget	6.000000	na
81.961139	0.049997	93.000000	nontarget	7.000000	na
82.011136	0.049997	93.000000	nontarget	8.000000	na
82.061133	0.049996	93.000000	nontarget	9.000000	na
82.111129	0.049999	93.000000	nontarget	10.000000	na
82.161128	0.049996	93.000000	nontarget	11.000000	na
82.211124	0.049997	93.000000	nontarget	12.000000	na
82.261121	0.049996	93.000000	nontarget	13.000000	na
82.311116	0.049997	93.000000	nontarget	14.000000	na
82.361113	0.049999	93.000000	nontarget	15.000000	82.375585
82.411111	0.049995	93.000000	nontarget	16.000000	na
82.461106	0.049999	94.000000	nontarget	1.000000	82.461819
82.511105	0.049996	94.000000	nontarget	2.000000	na
82.561101	0.049996	94.000000	nontarget	3.000000	na
82.611096	0.049999	94.000000	nontarget	4.000000	na
82.661095	0.049995	94.000000	nontarget	5.000000	na
82.711090	0.049997	94.000000	nontarget	6.000000	na
82.761087	0.049998	94.000000	nontarget	7.000000	na
82.811085	0.049997	94.000000	nontarget	8.000000	na
82.861082	0.049996	94.000000	nontarget	9.000000	na
82.911078	0.049997	94.000000	nontarget	10.000000	na
82.961075	0.049997	94.000000	nontarget	11.000000	na
83.011072	0.049996	94.000000	nontarget	12.000000	na
83.061068	0.049997	94.000000	nontarget	13.000000	na
83.111065	0.049996	94.000000	nontarget	14.000000	na
83.161061	0.049999	94.000000	nontarget	15.000000	na
83.211060	0.049995	94.000000	nontarget	16.000000	83.211808
83.261055	0.049998	95.000000	nontarget	1.000000	83.261779
83.311052	0.049999	95.000000	nontarget	2.000000	na
83.361051	0.049996	95.000000	nontarget	3.000000	na
83.411047	0.049996	95.000000	nontarget	4.000000	na
83.461043	0.049996	95.000000	nontarget	5.000000	na
83.511040	0.049998	95.000000	nontarget	6.000000	na
83.561038	0.049995	95.000000	nontarget	7.000000	na
83.611032	0.049996	95.000000	nontarget	8.000000	na
83.661029	0.049982	95.000000	nontarget	9.000000	na
83.711011	0.050014	95.000000	nontarget	10.000000	na
83.761025	0.049995	95.000000	nontarget	11.000000	na
83.811020	0.049998	95.000000	nontarget	12.000000	na
83.861018	0.049997	95.000000	nontarget	13.000000	na
83.911014	0.049996	95.000000	nontarget	14.000000	na
83.961011	0.050000	95.000000	nontarget	15.000000	na
84.011010	0.049996	95.000000	nontarget	16.000000	84.011765
84.061006	0.049996	96.000000	nontarget	1.000000	84.061721
84.111002	0.049999	96.000000	nontarget	2.000000	na
84.161001	0.049995	96.000000	nontarget	3.000000	na
84.210996	0.049995	96.000000	nontarget	4.000000	na
84.260991	0.049997	96.000000	nontarget	5.000000	na
84.310987	0.049997	96.000000	nontarget	6.000000	na
84.360985	0.049999	96.000000	nontarget	7.000000	na
84.410984	0.049995	96.000000	nontarget	8.000000	na
84.460979	0.049997	96.000000	nontarget	9.000000	na
84.510976	0.049997	96.000000	nontarget	10.000000	na
84.560973	0.049996	96.000000	nontarget	11.000000	na
84.610969	0.049996	96.000000	nontarget	12.000000	na
84.660965	0.049997	96.000000	nontarget	13.000000	na
84.710963	0.049997	96.000000	nontarget	14.000000	na
84.760960	0.049998	96.000000	nontarget	15.000000	na
84.810958	0.049993	96.000000	nontarget	16.000000	na
84.860951	0.049998	97.000000	nontarget	1.000000	na
84.910949	0.050000	97.000000	nontarget	2.000000	na
84.960949	0.049994	97.000000	nontarget	3.000000	84.961630
85.010944	0.049997	97.000000	nontarget	4.000000	na
85.060941	0.049997	97.000000	nontarget	5.000000	na
85.110938	0.049996	97.000000	nontarget	6.000000	na
85.160935	0.049995	97.000000	nontarget	7.000000	na
85.210930	0.049997	97.000000	nontarget	8.000000	na
85.260927	0.049999	97.000000	nontarget	9.000000	na
85.310925	0.049997	97.000000	nontarget	10.000000	na
85.360922	0.049997	97.000000	nontarget	11.000000	na
85.410919	0.049996	97.000000	nontarget	12.000000	na
85.460914	0.049996	97.000000	nontarget	13.000000	na
85.510910	0.049998	97.000000	nontarget	14.000000	na
85.560909	0.049996	97.000000	nontarget	15.000000	na
85.610904	0.049997	97.000000	nontarget	16.000000	na
85.660901	0.049996	98.000000	nontarget	1.000000	na
85.710898	0.049998	98.000000	nontarget	2.000000	na
85.760896	0.049998	98.000000	nontarget	3.000000	85.766047
85.810894	0.049996	98.000000	nontarget	4.000000	na
85.860889	0.049997	98.000000	nontarget	5.000000	na
85.910886	0.049997	98.000000	nontarget	6.000000	na
85.960883	0.049996	98.000000	nontarget	7.000000	na
86.010878	0.049999	98.000000	nontarget	8.000000	na
86.060877	0.050002	98.000000	nontarget	9.000000	na
86.110879	0.050000	98.000000	nontarget	10.000000	na
86.160879	0.049998	98.000000	nontarget	11.000000	na
86.210878	0.050035	98.000000	nontarget	12.000000	na
86.260913	0.049990	98.000000	nontarget	13.000000	na
86.310902	0.049967	98.000000	nontarget	14.000000	na
86.360870	0.050001	98.000000	nontarget	15.000000	na
86.410870	0.050001	98.000000	nontarget	16.000000	na
86.460871	0.049978	99.000000	nontarget	1.000000	na
86.510849	0.050002	99.000000	nontarget	2.000000	na
86.560852	0.050000	99.000000	nontarget	3.000000	86.583225
86.610852	0.049996	99.000000	nontarget	4.000000	na
86.660848	0.050001	99.000000	nontarget	5.000000	na
86.710849	0.049996	99.000000	nontarget	6.000000	na
86.760845	0.049991	99.000000	nontarget	7.000000	na
86.810836	0.049989	99.000000	nontarget	8.000000	na
86.860825	0.049998	99.000000	nontarget	9.000000	na
86.910823	0.049995	99.000000	nontarget	10.000000	na
86.960818	0.049998	99.000000	nontarget	11.000000	na
87.010816	0.050010	99.000000	nontarget	12.000000	na
87.060827	0.049988	99.000000	nontarget	13.000000	na
87.110814	0.049997	99.000000	nontarget	14.000000	na
87.160811	0.049985	99.000000	nontarget	15.000000	na
87.210796	0.049997	99.000000	nontarget	16.000000	na
87.260793	0.050005	100.000000	nontarget	1.000000	na
87.310798	0.049996	100.000000	nontarget	2.000000	87.311511
87.360794	0.049995	100.000000	nontarget	3.000000	na
87.410789	0.049998	100.000000	nontarget	4.000000	na
87.460787	0.049996	100.000000	nontarget	5.000000	na
87.510783	0.049996	100.000000	nontarget	6.000000	na
87.560779	0.049999	100.000000	nontarget	7.000000	na
87.610777	0.049996	100.000000	nontarget	8.000000	na
87.660773	0.049998	100.000000	nontarget	9.000000	na
87.710772	0.049980	100.000000	nontarget	10.000000	na
87.760752	0.050013	100.000000	nontarget	11.000000	na
87.810765	0.049996	100.000000	nontarget	12.000000	na
87.860760	0.049997	100.000000	nontarget	13.000000	na
87.910758	0.049996	100.000000	nontarget	14.000000	na
87.960754	0.049999	100.000000	nontarget	15.000000	na
88.010753	0.049994	100.000000	nontarget	16.000000	na
88.060747	0.049999	101.000000	nontarget	1.000000	88.067198
88.110746	0.049994	101.000000	nontarget	2.000000	na
88.160740	0.050000	101.000000	nontarget	3.000000	na
88.210740	0.049995	101.000000	nontarget	4.000000	na
88.260735	0.049996	101.000000	nontarget	5.000000	na
88.310731	0.049996	101.000000	nontarget	6.000000	na
88.360727	0.049999	101.000000	nontarget	7.000000	na
88.410725	0.049996	101.000000	nontarget	8.000000	na
88.460722	0.049996	101.000000	nontarget	9.000000	na
88.510717	0.049997	101.000000	nontarget	10.000000	na
88.560715	0.049999	101.000000	nontarget	11.000000	na
88.610713	0.049996	101.000000	nontarget	12.000000	na
88.660709	0.049981	101.000000	nontarget	13.000000	na
88.710690	0.050013	101.000000	nontarget	14.000000	na
88.760703	0.049997	101.000000	nontarget	15.000000	na
88.810700	0.049996	101.000000	nontarget	16.000000	na
88.860697	0.049996	102.000000	nontarget	1.000000	na
88.910693	0.049998	102.000000	nontarget	2.000000	na
88.960692	0.049996	102.000000	nontarget	3.000000	88.961402
89.010687	0.049997	102.000000	nontarget	4.000000	na
89.060684	0.049997	102.000000	nontarget	5.000000	na
89.110681	0.049996	102.000000	nontarget	6.000000	na
89.160678	0.049996	102.000000	nontarget	7.000000	na
89.210674	0.049997	102.000000	nontarget	8.000000	na
89.260671	0.049996	102.000000	nontarget	9.000000	na
89.310668	0.049996	102.000000	nontarget	10.000000	na
89.360664	0.049997	102.000000	nontarget	11.000000	na
89.410661	0.049996	102.000000	nontarget	12.000000	na
89.460657	0.049998	102.000000	nontarget	13.000000	na
89.510654	0.049997	102.000000	nontarget	14.000000	na
89.560651	0.049997	102.000000	nontarget	15.000000	na
89.610648	0.049996	102.000000	nontarget	16.000000	na
89.660644	0.049999	103.000000	nontarget	1.000000	na
89.710643	0.049981	103.000000	nontarget	2.000000	na
89.760624	0.050011	103.000000	nontarget	3.000000	na
89.810635	0.049997	103.000000	nontarget	4.000000	na
89.860632	0.049997	103.000000	nontarget	5.000000	89.885291
89.910629	0.049970	103.000000	nontarget	6.000000	na
89.960600	0.050023	103.000000	nontarget	7.000000	na
90.010623	0.049997	103.000000	nontarget	8.000000	na
90.060620	0.049997	103.000000	nontarget	9.000000	na
90.110617	0.049996	103.000000	nontarget	10.000000	na
90.160613	0.049998	103.000000	nontarget	11.000000	na
90.210611	0.049995	103.000000	nontarget	12.000000	na
90.260606	0.049996	103.000000	nontarget	13.000000	na
90.310602	0.049997	103.000000	nontarget	14.000000	na
90.360599	0.049998	103.000000	nontarget	15.000000	na
90.410597	0.049998	103.000000	nontarget	16.000000	na
90.460595	0.049996	104.000000	nontarget	1.000000	na
90.510591	0.049995	104.000000	nontarget	2.000000	na
90.560586	0.049999	104.000000	nontarget	3.000000	na
90.610584	0.049996	104.000000	nontarget	4.000000	na
90.660581	0.049999	104.000000	nontarget	5.000000	90.681217
90.710580	0.049994	104.000000	nontarget	6.000000	na
90.760574	0.049998	104.000000	nontarget	7.000000	na
90.810572	0.049995	104.000000	nontarget	8.000000	na
90.860567	0.049998	104.000000	nontarget	9.000000	na
90.910565	0.049996	104.000000	nontarget	10.000000	na
90.960561	0.049999	104.000000	nontarget	11.000000	na
91.010560	0.049996	104.000000	nontarget	12.000000	na
91.060556	0.049996	104.000000	nontarget	13.000000	na
91.110552	0.049997	104.000000	nontarget	14.000000	na
91.160549	0.049997	104.000000	nontarget	15.000000	na
91.210546	0.049995	104.000000	nontarget	16.000000	na
91.260542	0.049998	105.000000	nontarget	1.000000	na
91.310540	0.049996	105.000000	nontarget	2.000000	na
91.360535	0.049997	105.000000	nontarget	3.000000	na
91.410533	0.049997	105.000000	nontarget	4.000000	na
91.460530	0.049997	105.000000	nontarget	5.000000	na
91.510527	0.049995	105.000000	nontarget	6.000000	91.514125
91.560522	0.049997	105.000000	nontarget	7.000000	na
91.610519	0.049998	105.000000	nontarget	8.000000	na
91.660517	0.049997	105.000000	nontarget	9.000000	na
91.710514	0.049996	105.000000	nontarget	10.000000	na
91.760510	0.049997	105.000000	nontarget	11.000000	na
91.810507	0.049997	105.000000	nontarget	12.000000	na
91.860504	0.049996	105.000000	nontarget	13.000000	na
91.910500	0.049995	105.000000	nontarget	14.000000	na
91.960496	0.049999	105.000000	nontarget	15.000000	na
92.010495	0.049996	105.000000	nontarget	16.000000	na
92.060491	0.049998	106.000000	target	1.000000	na
92.110489	0.049995	106.000000	target	2.000000	na
92.160484	0.049997	106.000000	target	3.000000	na
92.210481	0.049996	106.000000	target	4.000000	na
92.260477	0.049999	106.000000	target	5.000000	na
92.310476	0.049996	106.000000	target	6.000000	na
92.360472	0.049996	106.000000	target	7.000000	na
92.410468	0.049998	106.000000	target	8.000000	na
92.460466	0.049995	106.000000	target	9.000000	na
92.510460	0.049997	106.000000	target	10.000000	na
92.560458	0.049999	106.000000	target	11.000000	92.575963
92.610457	0.049995	106.000000	target	12.000000	na
92.660452	0.049999	106.000000	target	13.000000	na
92.710451	0.049996	106.000000	target	14.000000	na
92.760447	0.049997	106.000000	target	15.000000	na
92.810444	0.049995	106.000000	target	16.000000	na
92.860439	0.049998	107.000000	nontarget	1.000000	na
92.910437	0.049996	107.000000	nontarget	2.000000	na
92.960433	0.049998	107.000000	nontarget	3.000000	na
93.010430	0.049995	107.000000	nontarget	4.000000	na
93.060425	0.049998	107.000000	nontarget	5.000000	na
93.110424	0.049996	107.000000	nontarget	6.000000	na
93.160420	0.049998	107.000000	nontarget	7.000000	na
93.210418	0.049996	107.000000	nontarget	8.000000	na
93.260414	0.049996	107.000000	nontarget	9.000000	na
93.310410	0.049998	107.000000	nontarget	10.000000	na
93.360408	0.049996	107.000000	nontarget	11.000000	na
93.410404	0.050000	107.000000	nontarget	12.000000	na
93.460405	0.049995	107.000000	nontarget	13.000000	93.461104
93.510399	0.049996	107.000000	nontarget	14.000000	na
93.560396	0.049995	107.000000	nontarget	15.000000	na
93.610391	0.049997	107.000000	nontarget	16.000000	na
93.660388	0.049999	108.000000	nontarget	1.000000	na
93.710387	0.049995	108.000000	nontarget	2.000000	na
93.760382	0.049998	108.000000	nontarget	3.000000	na
93.810380	0.049996	108.000000	nontarget	4.000000	na
93.860376	0.049996	108.000000	nontarget	5.000000	na
93.910371	0.049999	108.000000	nontarget	6.000000	na
93.960370	0.049996	108.000000	nontarget	7.000000	na
94.010366	0.049997	108.000000	nontarget	8.000000	na
94.060363	0.049995	108.000000	nontarget	9.000000	na
94.110358	0.049997	108.000000	nontarget	10.000000	na
94.160355	0.049998	108.000000	nontarget	11.000000	na
94.210353	0.049997	108.000000	nontarget	12.000000	na
94.260351	0.049996	108.000000	nontarget	13.000000	94.261032
94.310347	0.049997	108.000000	nontarget	14.000000	na
94.360344	0.049997	108.000000	nontarget	15.000000	na
94.410341	0.049995	108.000000	nontarget	16.000000	na
94.460336	0.049997	109.000000	nontarget	1.000000	na
94.510333	0.049997	109.000000	nontarget	2.000000	na
94.560330	0.049996	109.000000	nontarget	3.000000	na
94.610326	0.049996	109.000000	nontarget	4.000000	na
94.660322	0.049998	109.000000	nontarget	5.000000	na
94.710321	0.049997	109.000000	nontarget	6.000000	na
94.760318	0.049997	109.000000	nontarget	7.000000	na
94.810315	0.049996	109.000000	nontarget	8.000000	na
94.860311	0.049998	109.000000	nontarget	9.000000	na
94.910309	0.049996	109.000000	nontarget	10.000000	na
94.960305	0.049991	109.000000	nontarget	11.000000	na
95.010296	0.050006	109.000000	nontarget	12.000000	na
95.060302	0.049994	109.000000	nontarget	13.000000	95.060991
95.110296	0.049996	109.000000	nontarget	14.000000	na
95.160292	0.049998	109.000000	nontarget	15.000000	na
95.210290	0.049996	109.000000	nontarget	16.000000	na
95.260286	0.049997	110.000000	nontarget	1.000000	na
95.310283	0.049996	110.000000	nontarget	2.000000	na
95.360279	0.049996	110.000000	nontarget	3.000000	na
95.410275	0.049997	110.000000	nontarget	4.000000	na
95.460272	0.050007	110.000000	nontarget	5.000000	na
95.510279	0.049998	110.000000	nontarget	6.000000	na
95.560278	0.049992	110.000000	nontarget	7.000000	na
95.610270	0.049999	110.000000	nontarget	8.000000	na
95.660269	0.049998	110.000000	nontarget	9.000000	na
95.710268	0.050015	110.000000	nontarget	10.000000	na
95.760283	0.049987	110.000000	nontarget	11.000000	na
95.810270	0.049990	110.000000	nontarget	12.000000	na
95.860260	0.049999	110.000000	nontarget	13.000000	na
95.910259	0.050002	110.000000	nontarget	14.000000	na
95.960261	0.049980	110.000000	nontarget	15.000000	95.981082
96.010241	0.050001	110.000000	nontarget	16.000000	na
96.060242	0.050002	111.000000	nontarget	1.000000	96.060927
96.110243	0.049998	111.000000	nontarget	2.000000	na
96.160241	0.049984	111.000000	nontarget	3.000000	na
96.210225	0.050008	111.000000	nontarget	4.000000	na
96.260233	0.049993	111.000000	nontarget	5.000000	na
96.310226	0.049989	111.000000	nontarget	6.000000	na
96.360215	0.049992	111.000000	nontarget	7.000000	na
96.410208	0.050001	111.000000	nontarget	8.000000	na
96.460209	0.050006	111.000000	nontarget	9.000000	na
96.510214	0.050008	111.000000	nontarget	10.000000	na
96.560222	0.049981	111.000000	nontarget	11.000000	na
96.610204	0.049984	111.000000	nontarget	12.000000	na
96.660188	0.049998	111.000000	nontarget	13.000000	na
96.710186	0.049998	111.000000	nontarget	14.000000	na
96.760184	0.050005	111.000000	nontarget	15.000000	na
96.810189	0.049994	111.000000	nontarget	16.000000	96.810913
96.860183	0.049997	112.000000	nontarget	1.000000	96.860886
96.910180	0.049997	112.000000	nontarget	2.000000	na
96.960177	0.049999	112.000000	nontarget	3.000000	na
97.010175	0.049994	112.000000	nontarget	4.000000	na
97.060170	0.049997	112.000000	nontarget	5.000000	na
97.110167	0.049995	112.000000	nontarget	6.000000	na
97.160162	0.049999	112.000000	nontarget	7.000000	na
97.210161	0.049996	112.000000	nontarget	8.000000	na
97.260157	0.049996	112.000000	nontarget	9.000000	na
97.310153	0.049999	112.000000	nontarget	10.000000	na
97.360152	0.049996	112.000000	nontarget	11.000000	na
97.410148	0.049995	112.000000	nontarget	12.000000	na
97.460143	0.049997	112.000000	nontarget	13.000000	na
97.510140	0.049998	112.000000	nontarget	14.000000	na
97.560138	0.050000	112.000000	nontarget	15.000000	na
97.610138	0.049994	112.000000	nontarget	16.000000	97.610855
97.660132	0.049996	113.000000	nontarget	1.000000	97.660834
97.710128	0.049997	113.000000	nontarget	2.000000	na
97.760125	0.049996	113.000000	nontarget	3.000000	na
97.810121	0.049998	113.000000	nontarget	4.000000	na
97.860119	0.049996	113.000000	nontarget	5.000000	na
97.910115	0.049997	113.000000	nontarget	6.000000	na
97.960112	0.049997	113.000000	nontarget	7.000000	na
98.010109	0.049996	113.000000	nontarget	8.000000	na
98.060105	0.049998	113.000000	nontarget	9.000000	na
98.110103	0.049996	113.000000	nontarget	10.000000	na
98.160099	0.049998	113.000000	nontarget	11.000000	na
98.210097	0.049995	113.000000	nontarget	12.000000	na
98.260092	0.049998	113.000000	nontarget	13.000000	na
98.310090	0.049997	113.000000	nontarget	14.000000	na
98.360087	0.049996	113.000000	nontarget	15.000000	98.360787
98.410083	0.049997	113.000000	nontarget	16.000000	na
98.460080	0.049997	114.000000	nontarget	1.000000	98.460778
98.510077	0.049995	114.000000	nontarget	2.000000	na
98.560072	0.049998	114.000000	nontarget	3.000000	na
98.610070	0.049997	114.000000	nontarget	4.000000	na
98.660067	0.049997	114.000000	nontarget	5.000000	na
98.710065	0.049998	114.000000	nontarget	6.000000	na
98.760062	0.049996	114.000000	nontarget	7.000000	na
98.810059	0.049997	114.000000	nontarget	8.000000	na
98.860056	0.049996	114.000000	nontarget	9.000000	na
98.910051	0.049996	114.000000	nontarget	10.000000	na
98.960048	0.049997	114.000000	nontarget	11.000000	na
99.010045	0.049997	114.000000	nontarget	12.000000	na
99.060042	0.049996	114.000000	nontarget	13.000000	na
99.110038	0.049997	114.000000	nontarget	14.000000	na
99.160035	0.049999	114.000000	nontarget	15.000000	na
99.210034	0.049996	114.000000	nontarget	16.000000	99.210747
99.260030	0.049996	115.000000	nontarget	1.000000	99.260740
99.310025	0.049998	115.000000	nontarget	2.000000	na
99.360023	0.049997	115.000000	nontarget	3.000000	na
99.410020	0.049996	115.000000	nontarget	4.000000	na
99.460016	0.049997	115.000000	nontarget	5.000000	na
99.510013	0.049997	115.000000	nontarget	6.000000	na
99.560011	0.049996	115.000000	nontarget	7.000000	na
99.610007	0.049996	115.000000	nontarget	8.000000	na
99.660003	0.049996	115.000000	nontarget	9.000000	na
99.710000	0.049998	115.000000	nontarget	10.000000	na
99.759998	0.049996	115.000000	nontarget	11.000000	na
99.809993	0.049996	115.000000	nontarget	12.000000	na
99.859989	0.049998	115.000000	nontarget	13.000000	na
99.909987	0.049997	115.000000	nontarget	14.000000	na
99.959984	0.049998	115.000000	nontarget	15.000000	na
100.009982	0.049994	115.000000	nontarget	16.000000	na
100.059976	0.049999	116.000000	target	1.000000	na
100.109975	0.049996	116.000000	target	2.000000	na
100.159972	0.049997	116.000000	target	3.000000	na
100.209968	0.049997	116.000000	target	4.000000	na
100.259965	0.049996	116.000000	target	5.000000	na
100.309962	0.049996	116.000000	target	6.000000	na
100.359957	0.050000	116.000000	target	7.000000	na
100.409957	0.049995	116.000000	target	8.000000	na
100.459952	0.049998	116.000000	target	9.000000	na
100.509950	0.049996	116.000000	target	10.000000	na
100.559945	0.049996	116.000000	target	11.000000	na
100.609941	0.049996	116.000000	target	12.000000	na
100.659937	0.050000	116.000000	target	13.000000	na
100.709938	0.049994	116.000000	target	14.000000	100.710669
100.759932	0.049993	116.000000	target	15.000000	na
100.809925	0.050003	116.000000	target	16.000000	na
100.859928	0.049995	117.000000	nontarget	1.000000	na
100.909923	0.049997	117.000000	nontarget	2.000000	na
100.959920	0.049996	117.000000	nontarget	3.000000	na
101.009916	0.049996	117.000000	nontarget	4.000000	na
101.059913	0.049997	117.000000	nontarget	5.000000	na
101.109910	0.049997	117.000000	nontarget	6.000000	na
101.159906	0.049998	117.000000	nontarget	7.000000	na
101.209904	0.049997	117.000000	nontarget	8.000000	na
101.259901	0.049995	117.000000	nontarget	9.000000	na
101.309896	0.049999	117.000000	nontarget	10.000000	na
101.359894	0.049995	117.000000	nontarget	11.000000	na
101.409889	0.049998	117.000000	nontarget	12.000000	na
101.459887	0.049998	117.000000	nontarget	13.000000	na
101.509885	0.049997	117.000000	nontarget	14.000000	na
101.559881	0.049996	117.000000	nontarget	15.000000	na
101.609877	0.049997	117.000000	nontarget	16.000000	na
101.659874	0.050000	118.000000	nontarget	1.000000	na
101.709874	0.049990	118.000000	nontarget	2.000000	na
101.759864	0.050001	118.000000	nontarget	3.000000	na
101.809865	0.049996	118.000000	nontarget	4.000000	na
101.859861	0.049997	118.000000	nontarget	5.000000	101.893028
101.909858	0.049998	118.000000	nontarget	6.000000	na
101.959856	0.049997	118.000000	nontarget	7.000000	na
102.009852	0.049996	118.000000	nontarget	8.000000	na
102.059849	0.049998	118.000000	nontarget	9.000000	na
102.109846	0.049996	118.000000	nontarget	10.000000	na
102.159842	0.049998	118.000000	nontarget	11.000000	na
102.209840	0.049995	118.000000	nontarget	12.000000	na
102.259835	0.049997	118.000000	nontarget	13.000000	na
102.309832	0.049997	118.000000	nontarget	14.000000	na
102.359830	0.049996	118.000000	nontarget	15.000000	na
102.409826	0.049997	118.000000	nontarget	16.000000	na
102.459823	0.049997	119.000000	nontarget	1.000000	na
102.509820	0.049997	119.000000	nontarget	2.000000	na
102.559817	0.049996	119.000000	nontarget	3.000000	na
102.609813	0.049997	119.000000	nontarget	4.000000	na
102.659810	0.049996	119.000000	nontarget	5.000000	na
102.709806	0.049998	119.000000	nontarget	6.000000	na
102.759805	0.049997	119.000000	nontarget	7.000000	na
102.809802	0.050000	119.000000	nontarget	8.000000	na
102.859801	0.049993	119.000000	nontarget	9.000000	102.860501
102.909794	0.049996	119.000000	nontarget	10.000000	na
102.959790	0.049998	119.000000	nontarget	11.000000	na
103.009788	0.049996	119.000000	nontarget	12.000000	na
103.059785	0.049998	119.000000	nontarget	13.000000	na
103.109783	0.049995	119.000000	nontarget	14.000000	na
103.159778	0.049996	119.000000	nontarget	15.000000	na
103.209774	0.049997	119.000000	nontarget	16.000000	na
103.259772	0.049997	120.000000	nontarget	1.000000	na
103.309768	0.049998	120.000000	nontarget	2.000000	na
103.359766	0.049996	120.000000	nontarget	3.000000	na
103.409762	0.049997	120.000000	nontarget	4.000000	na
103.459760	0.049997	120.000000	nontarget	5.000000	na
103.509757	0.049995	120.000000	nontarget	6.000000	na
103.559752	0.049999	120.000000	nontarget	7.000000	na
103.609751	0.049995	120.000000	nontarget	8.000000	na
103.659745	0.049997	120.000000	nontarget	9.000000	na
103.709742	0.049997	120.000000	nontarget	10.000000	na
103.759739	0.049999	120.000000	nontarget	11.000000	na
103.809738	0.049996	120.000000	nontarget	12.000000	103.826253
103.859734	0.049995	120.000000	nontarget	13.000000	na
103.909729	0.049998	120.000000	nontarget	14.000000	na
103.959727	0.049997	120.000000	nontarget	15.000000	na
104.009724	0.049998	120.000000	nontarget	16.000000	na
104.059722	0.049994	121.000000	nontarget	1.000000	na
104.109716	0.049996	121.000000	nontarget	2.000000	na
104.159713	0.049999	121.000000	nontarget	3.000000	na
