onset	duration	trial_number	trial_type	frame_number	time_of_response
8.062346	0.049929	1.000000	nontarget	1.000000	na
8.112275	0.049786	1.000000	nontarget	2.000000	na
8.162061	0.050296	1.000000	nontarget	3.000000	na
8.212357	0.049994	1.000000	nontarget	4.000000	na
8.262351	0.050005	1.000000	nontarget	5.000000	na
8.312357	0.050066	1.000000	nontarget	6.000000	na
8.362422	0.049460	1.000000	nontarget	7.000000	na
8.411883	0.050462	1.000000	nontarget	8.000000	na
8.462344	0.049644	1.000000	nontarget	9.000000	8.468992
8.511988	0.050337	1.000000	nontarget	10.000000	na
8.562325	0.049857	1.000000	nontarget	11.000000	na
8.612183	0.050169	1.000000	nontarget	12.000000	na
8.662352	0.049306	1.000000	nontarget	13.000000	na
8.711658	0.050693	1.000000	nontarget	14.000000	na
8.762351	0.049889	1.000000	nontarget	15.000000	na
8.812240	0.050124	1.000000	nontarget	16.000000	na
8.862364	0.050113	2.000000	nontarget	1.000000	na
8.912477	0.049488	2.000000	nontarget	2.000000	na
8.961965	0.050324	2.000000	nontarget	3.000000	na
9.012289	0.050063	2.000000	nontarget	4.000000	na
9.062352	0.050006	2.000000	nontarget	5.000000	na
9.112358	0.049428	2.000000	nontarget	6.000000	na
9.161786	0.050572	2.000000	nontarget	7.000000	na
9.212358	0.049996	2.000000	nontarget	8.000000	na
9.262354	0.049996	2.000000	nontarget	9.000000	na
9.312350	0.050122	2.000000	nontarget	10.000000	9.318993
9.362471	0.049640	2.000000	nontarget	11.000000	na
9.412111	0.049595	2.000000	nontarget	12.000000	na
9.461707	0.050869	2.000000	nontarget	13.000000	na
9.512576	0.049289	2.000000	nontarget	14.000000	na
9.561865	0.050196	2.000000	nontarget	15.000000	na
9.612061	0.049854	2.000000	nontarget	16.000000	na
9.661916	0.050435	3.000000	nontarget	1.000000	na
9.712351	0.050001	3.000000	nontarget	2.000000	na
9.762352	0.050031	3.000000	nontarget	3.000000	na
9.812383	0.049661	3.000000	nontarget	4.000000	na
9.862043	0.050313	3.000000	nontarget	5.000000	na
9.912356	0.049996	3.000000	nontarget	6.000000	na
9.962353	0.049332	3.000000	nontarget	7.000000	na
10.011684	0.050673	3.000000	nontarget	8.000000	na
10.062357	0.050009	3.000000	nontarget	9.000000	na
10.112366	0.049979	3.000000	nontarget	10.000000	na
10.162345	0.050006	3.000000	nontarget	11.000000	10.173546
10.212352	0.050008	3.000000	nontarget	12.000000	na
10.262360	0.050126	3.000000	nontarget	13.000000	na
10.312485	0.049862	3.000000	nontarget	14.000000	na
10.362347	0.050016	3.000000	nontarget	15.000000	na
10.412363	0.049205	3.000000	nontarget	16.000000	na
10.461568	0.050736	4.000000	nontarget	1.000000	na
10.512305	0.050171	4.000000	nontarget	2.000000	na
10.562476	0.049786	4.000000	nontarget	3.000000	na
10.612262	0.049515	4.000000	nontarget	4.000000	na
10.661777	0.050612	4.000000	nontarget	5.000000	na
10.712389	0.049925	4.000000	nontarget	6.000000	na
10.762315	0.049046	4.000000	nontarget	7.000000	na
10.811361	0.050365	4.000000	nontarget	8.000000	na
10.861725	0.050429	4.000000	nontarget	9.000000	na
10.912155	0.050202	4.000000	nontarget	10.000000	na
10.962356	0.049935	4.000000	nontarget	11.000000	na
11.012291	0.049958	4.000000	nontarget	12.000000	11.032909
11.062250	0.049081	4.000000	nontarget	13.000000	na
11.111330	0.051019	4.000000	nontarget	14.000000	na
11.162349	0.049359	4.000000	nontarget	15.000000	na
11.211708	0.049891	4.000000	nontarget	16.000000	na
11.261599	0.049947	5.000000	target	1.000000	na
11.311546	0.050711	5.000000	target	2.000000	na
11.362257	0.049782	5.000000	target	3.000000	na
11.412039	0.050311	5.000000	target	4.000000	na
11.462350	0.050002	5.000000	target	5.000000	na
11.512352	0.049249	5.000000	target	6.000000	na
11.561600	0.050674	5.000000	target	7.000000	na
11.612274	0.050084	5.000000	target	8.000000	na
11.662358	0.049588	5.000000	target	9.000000	na
11.711945	0.050358	5.000000	target	10.000000	na
11.762304	0.050002	5.000000	target	11.000000	na
11.812305	0.049371	5.000000	target	12.000000	11.843609
11.861676	0.050054	5.000000	target	13.000000	na
11.911730	0.050202	5.000000	target	14.000000	na
11.961932	0.050327	5.000000	target	15.000000	na
12.012259	0.050031	5.000000	target	16.000000	na
12.062290	0.050103	6.000000	nontarget	1.000000	na
12.112393	0.049932	6.000000	nontarget	2.000000	na
12.162325	0.049931	6.000000	nontarget	3.000000	na
12.212256	0.049939	6.000000	nontarget	4.000000	na
12.262195	0.050035	6.000000	nontarget	5.000000	na
12.312230	0.049877	6.000000	nontarget	6.000000	na
12.362108	0.050111	6.000000	nontarget	7.000000	na
12.412219	0.049899	6.000000	nontarget	8.000000	na
12.462117	0.049590	6.000000	nontarget	9.000000	na
12.511707	0.050505	6.000000	nontarget	10.000000	na
12.562212	0.050153	6.000000	nontarget	11.000000	na
12.612365	0.049991	6.000000	nontarget	12.000000	na
12.662356	0.049117	6.000000	nontarget	13.000000	12.673706
12.711473	0.050786	6.000000	nontarget	14.000000	na
12.762260	0.049997	6.000000	nontarget	15.000000	na
12.812256	0.050040	6.000000	nontarget	16.000000	na
12.862296	0.049224	7.000000	nontarget	1.000000	na
12.911520	0.050818	7.000000	nontarget	2.000000	na
12.962338	0.049687	7.000000	nontarget	3.000000	na
13.012026	0.049627	7.000000	nontarget	4.000000	na
13.061653	0.050700	7.000000	nontarget	5.000000	na
13.112352	0.049841	7.000000	nontarget	6.000000	na
13.162193	0.050099	7.000000	nontarget	7.000000	na
13.212292	0.049912	7.000000	nontarget	8.000000	na
13.262204	0.050181	7.000000	nontarget	9.000000	na
13.312385	0.050085	7.000000	nontarget	10.000000	na
13.362471	0.049756	7.000000	nontarget	11.000000	na
13.412227	0.050155	7.000000	nontarget	12.000000	na
13.462382	0.049460	7.000000	nontarget	13.000000	na
13.511842	0.050460	7.000000	nontarget	14.000000	na
13.562302	0.050052	7.000000	nontarget	15.000000	13.573494
13.612353	0.049822	7.000000	nontarget	16.000000	na
13.662176	0.049975	8.000000	nontarget	1.000000	13.668743
13.712151	0.049834	8.000000	nontarget	2.000000	na
13.761985	0.049488	8.000000	nontarget	3.000000	na
13.811473	0.050881	8.000000	nontarget	4.000000	na
13.862354	0.049397	8.000000	nontarget	5.000000	na
13.911751	0.050611	8.000000	nontarget	6.000000	na
13.962361	0.049513	8.000000	nontarget	7.000000	na
14.011875	0.050421	8.000000	nontarget	8.000000	na
14.062296	0.049277	8.000000	nontarget	9.000000	na
14.111573	0.050784	8.000000	nontarget	10.000000	na
14.162357	0.050149	8.000000	nontarget	11.000000	na
14.212506	0.049878	8.000000	nontarget	12.000000	na
14.262384	0.049538	8.000000	nontarget	13.000000	na
14.311922	0.050446	8.000000	nontarget	14.000000	na
14.362369	0.049770	8.000000	nontarget	15.000000	na
14.412139	0.050156	8.000000	nontarget	16.000000	na
14.462295	0.050268	9.000000	nontarget	1.000000	14.486053
14.512563	0.049703	9.000000	nontarget	2.000000	na
14.562267	0.049941	9.000000	nontarget	3.000000	na
14.612208	0.050120	9.000000	nontarget	4.000000	na
14.662328	0.049995	9.000000	nontarget	5.000000	na
14.712322	0.049949	9.000000	nontarget	6.000000	na
14.762272	0.049423	9.000000	nontarget	7.000000	na
14.811694	0.050670	9.000000	nontarget	8.000000	na
14.862364	0.049902	9.000000	nontarget	9.000000	na
14.912266	0.049992	9.000000	nontarget	10.000000	na
14.962258	0.049409	9.000000	nontarget	11.000000	na
15.011667	0.050254	9.000000	nontarget	12.000000	na
15.061921	0.050345	9.000000	nontarget	13.000000	na
15.112265	0.049943	9.000000	nontarget	14.000000	na
15.162208	0.049884	9.000000	nontarget	15.000000	na
15.212092	0.050049	9.000000	nontarget	16.000000	na
15.262141	0.050121	10.000000	nontarget	1.000000	15.268591
15.312262	0.050035	10.000000	nontarget	2.000000	na
15.362297	0.049258	10.000000	nontarget	3.000000	na
15.411556	0.050144	10.000000	nontarget	4.000000	na
15.461699	0.050133	10.000000	nontarget	5.000000	na
15.511833	0.050140	10.000000	nontarget	6.000000	na
15.561973	0.050371	10.000000	nontarget	7.000000	na
15.612343	0.050017	10.000000	nontarget	8.000000	na
15.662360	0.050173	10.000000	nontarget	9.000000	na
15.712533	0.049800	10.000000	nontarget	10.000000	na
15.762333	0.049930	10.000000	nontarget	11.000000	na
15.812263	0.050052	10.000000	nontarget	12.000000	na
15.862314	0.050043	10.000000	nontarget	13.000000	na
15.912357	0.049852	10.000000	nontarget	14.000000	na
15.962209	0.050148	10.000000	nontarget	15.000000	15.985143
16.012357	0.049903	10.000000	nontarget	16.000000	na
16.062259	0.050014	11.000000	nontarget	1.000000	16.068731
16.112274	0.049543	11.000000	nontarget	2.000000	na
16.161817	0.050540	11.000000	nontarget	3.000000	na
16.212357	0.049974	11.000000	nontarget	4.000000	na
16.262331	0.049754	11.000000	nontarget	5.000000	na
16.312084	0.050226	11.000000	nontarget	6.000000	na
16.362310	0.049935	11.000000	nontarget	7.000000	na
16.412245	0.049612	11.000000	nontarget	8.000000	na
16.461857	0.050418	11.000000	nontarget	9.000000	na
16.512275	0.049855	11.000000	nontarget	10.000000	na
16.562130	0.050132	11.000000	nontarget	11.000000	na
16.612262	0.050226	11.000000	nontarget	12.000000	na
16.662488	0.049874	11.000000	nontarget	13.000000	na
16.712361	0.050001	11.000000	nontarget	14.000000	na
16.762362	0.049886	11.000000	nontarget	15.000000	na
16.812248	0.050005	11.000000	nontarget	16.000000	na
16.862254	0.049994	12.000000	nontarget	1.000000	16.868765
16.912248	0.049959	12.000000	nontarget	2.000000	na
16.962206	0.049282	12.000000	nontarget	3.000000	na
17.011489	0.050786	12.000000	nontarget	4.000000	na
17.062274	0.050087	12.000000	nontarget	5.000000	na
17.112361	0.049836	12.000000	nontarget	6.000000	na
17.162197	0.050166	12.000000	nontarget	7.000000	na
17.212363	0.050133	12.000000	nontarget	8.000000	na
17.262497	0.049288	12.000000	nontarget	9.000000	na
17.311784	0.050549	12.000000	nontarget	10.000000	na
17.362334	0.050019	12.000000	nontarget	11.000000	na
17.412352	0.049999	12.000000	nontarget	12.000000	na
17.462352	0.050179	12.000000	nontarget	13.000000	na
17.512530	0.048891	12.000000	nontarget	14.000000	17.523963
17.561421	0.050933	12.000000	nontarget	15.000000	na
17.612354	0.050003	12.000000	nontarget	16.000000	na
17.662357	0.049836	13.000000	nontarget	1.000000	17.668952
17.712193	0.050289	13.000000	nontarget	2.000000	na
17.762482	0.049744	13.000000	nontarget	3.000000	na
17.812226	0.049517	13.000000	nontarget	4.000000	na
17.861743	0.050413	13.000000	nontarget	5.000000	na
17.912156	0.050319	13.000000	nontarget	6.000000	na
17.962475	0.049643	13.000000	nontarget	7.000000	na
18.012118	0.049582	13.000000	nontarget	8.000000	na
18.061700	0.050412	13.000000	nontarget	9.000000	na
18.112112	0.049354	13.000000	nontarget	10.000000	na
18.161466	0.050887	13.000000	nontarget	11.000000	na
18.212352	0.049866	13.000000	nontarget	12.000000	na
18.262219	0.050137	13.000000	nontarget	13.000000	18.268839
18.312356	0.049115	13.000000	nontarget	14.000000	na
18.361471	0.050681	13.000000	nontarget	15.000000	na
18.412152	0.050199	13.000000	nontarget	16.000000	na
18.462350	0.049161	14.000000	nontarget	1.000000	na
18.511512	0.050844	14.000000	nontarget	2.000000	na
18.562355	0.049121	14.000000	nontarget	3.000000	na
18.611476	0.050851	14.000000	nontarget	4.000000	na
18.662327	0.049714	14.000000	nontarget	5.000000	na
18.712041	0.049458	14.000000	nontarget	6.000000	na
18.761499	0.050694	14.000000	nontarget	7.000000	na
18.812193	0.050011	14.000000	nontarget	8.000000	na
18.862203	0.049976	14.000000	nontarget	9.000000	na
18.912179	0.049930	14.000000	nontarget	10.000000	na
18.962109	0.050014	14.000000	nontarget	11.000000	na
19.012123	0.050183	14.000000	nontarget	12.000000	na
19.062306	0.049195	14.000000	nontarget	13.000000	na
19.111501	0.050486	14.000000	nontarget	14.000000	na
19.161987	0.049899	14.000000	nontarget	15.000000	19.189377
19.211886	0.050109	14.000000	nontarget	16.000000	na
19.261995	0.049767	15.000000	nontarget	1.000000	19.268719
19.311762	0.050351	15.000000	nontarget	2.000000	na
19.362113	0.050089	15.000000	nontarget	3.000000	na
19.412203	0.049987	15.000000	nontarget	4.000000	na
19.462189	0.050038	15.000000	nontarget	5.000000	na
19.512228	0.049974	15.000000	nontarget	6.000000	na
19.562201	0.050001	15.000000	nontarget	7.000000	na
19.612203	0.049781	15.000000	nontarget	8.000000	na
19.661984	0.050089	15.000000	nontarget	9.000000	na
19.712072	0.050107	15.000000	nontarget	10.000000	na
19.762179	0.050023	15.000000	nontarget	11.000000	na
19.812202	0.050147	15.000000	nontarget	12.000000	na
19.862349	0.049587	15.000000	nontarget	13.000000	na
19.911936	0.049675	15.000000	nontarget	14.000000	na
19.961611	0.050556	15.000000	nontarget	15.000000	19.973450
20.012167	0.049665	15.000000	nontarget	16.000000	na
20.061833	0.050186	16.000000	nontarget	1.000000	20.068553
20.112018	0.050338	16.000000	nontarget	2.000000	na
20.162357	0.049920	16.000000	nontarget	3.000000	na
20.212276	0.049785	16.000000	nontarget	4.000000	na
20.262061	0.050139	16.000000	nontarget	5.000000	na
20.312200	0.049923	16.000000	nontarget	6.000000	na
20.362123	0.050070	16.000000	nontarget	7.000000	na
20.412192	0.050128	16.000000	nontarget	8.000000	na
20.462320	0.049620	16.000000	nontarget	9.000000	na
20.511940	0.050153	16.000000	nontarget	10.000000	na
20.562093	0.050213	16.000000	nontarget	11.000000	na
20.612306	0.049888	16.000000	nontarget	12.000000	na
20.662195	0.050165	16.000000	nontarget	13.000000	na
20.712360	0.049859	16.000000	nontarget	14.000000	na
20.762219	0.049831	16.000000	nontarget	15.000000	na
20.812049	0.050305	16.000000	nontarget	16.000000	na
20.862354	0.049082	17.000000	nontarget	1.000000	20.868888
20.911436	0.050754	17.000000	nontarget	2.000000	na
20.962191	0.049543	17.000000	nontarget	3.000000	na
21.011734	0.050273	17.000000	nontarget	4.000000	na
21.062007	0.049970	17.000000	nontarget	5.000000	na
21.111977	0.050200	17.000000	nontarget	6.000000	na
21.162177	0.050098	17.000000	nontarget	7.000000	na
21.212275	0.050066	17.000000	nontarget	8.000000	na
21.262341	0.049924	17.000000	nontarget	9.000000	na
21.312265	0.049502	17.000000	nontarget	10.000000	na
21.361768	0.050508	17.000000	nontarget	11.000000	na
21.412276	0.049993	17.000000	nontarget	12.000000	na
21.462269	0.049913	17.000000	nontarget	13.000000	na
21.512181	0.050151	17.000000	nontarget	14.000000	na
21.562333	0.049967	17.000000	nontarget	15.000000	na
21.612300	0.049908	17.000000	nontarget	16.000000	na
21.662208	0.049891	18.000000	nontarget	1.000000	na
21.712099	0.049974	18.000000	nontarget	2.000000	na
21.762073	0.049469	18.000000	nontarget	3.000000	na
21.811542	0.049888	18.000000	nontarget	4.000000	na
21.861430	0.050369	18.000000	nontarget	5.000000	21.880771
21.911799	0.049699	18.000000	nontarget	6.000000	na
21.961497	0.050711	18.000000	nontarget	7.000000	na
22.012209	0.049964	18.000000	nontarget	8.000000	na
22.062173	0.049093	18.000000	nontarget	9.000000	na
22.111266	0.050897	18.000000	nontarget	10.000000	na
22.162163	0.050059	18.000000	nontarget	11.000000	na
22.212222	0.049235	18.000000	nontarget	12.000000	na
22.261457	0.050084	18.000000	nontarget	13.000000	na
22.311541	0.050637	18.000000	nontarget	14.000000	na
22.362178	0.049980	18.000000	nontarget	15.000000	na
22.412157	0.050146	18.000000	nontarget	16.000000	na
22.462303	0.049631	19.000000	nontarget	1.000000	na
22.511935	0.049734	19.000000	nontarget	2.000000	na
22.561668	0.049894	19.000000	nontarget	3.000000	na
22.611563	0.050793	19.000000	nontarget	4.000000	na
22.662356	0.065351	19.000000	nontarget	5.000000	22.697155
22.727707	0.051151	19.000000	nontarget	6.000000	na
22.778858	0.049989	19.000000	nontarget	7.000000	na
22.828847	0.050086	19.000000	nontarget	8.000000	na
22.878933	0.049654	19.000000	nontarget	9.000000	na
22.928587	0.050281	19.000000	nontarget	10.000000	na
22.978868	0.049989	19.000000	nontarget	11.000000	na
23.028857	0.049529	19.000000	nontarget	12.000000	na
23.078386	0.050544	19.000000	nontarget	13.000000	na
23.128930	0.050014	19.000000	nontarget	14.000000	na
23.178944	0.049846	19.000000	nontarget	15.000000	na
23.228790	0.049943	19.000000	nontarget	16.000000	na
23.278734	0.049667	20.000000	nontarget	1.000000	na
23.328401	0.050266	20.000000	nontarget	2.000000	na
23.378667	0.050285	20.000000	nontarget	3.000000	na
23.428951	0.049672	20.000000	nontarget	4.000000	na
23.478623	0.050045	20.000000	nontarget	5.000000	na
23.528669	0.050034	20.000000	nontarget	6.000000	na
23.578703	0.049598	20.000000	nontarget	7.000000	na
23.628300	0.050591	20.000000	nontarget	8.000000	na
23.678892	0.049995	20.000000	nontarget	9.000000	na
23.728887	0.049194	20.000000	nontarget	10.000000	na
23.778080	0.050398	20.000000	nontarget	11.000000	na
23.828479	0.049682	20.000000	nontarget	12.000000	23.848245
23.878160	0.050789	20.000000	nontarget	13.000000	na
23.928949	0.049345	20.000000	nontarget	14.000000	na
23.978294	0.050248	20.000000	nontarget	15.000000	na
24.028541	0.049911	20.000000	nontarget	16.000000	na
24.078452	0.050573	21.000000	target	1.000000	na
24.129026	0.048842	21.000000	target	2.000000	na
24.177867	0.051009	21.000000	target	3.000000	na
24.228877	0.049736	21.000000	target	4.000000	na
24.278613	0.050213	21.000000	target	5.000000	na
24.328826	0.049753	21.000000	target	6.000000	na
24.378578	0.050257	21.000000	target	7.000000	na
24.428835	0.049565	21.000000	target	8.000000	na
24.478401	0.050383	21.000000	target	9.000000	na
24.528784	0.050020	21.000000	target	10.000000	na
24.578803	0.049345	21.000000	target	11.000000	na
24.628149	0.050049	21.000000	target	12.000000	na
24.678198	0.050537	21.000000	target	13.000000	na
24.728735	0.049945	21.000000	target	14.000000	na
24.778680	0.049789	21.000000	target	15.000000	na
24.828468	0.050326	21.000000	target	16.000000	na
24.878794	0.049854	22.000000	nontarget	1.000000	24.906741
24.928648	0.050152	22.000000	nontarget	2.000000	na
24.978800	0.049992	22.000000	nontarget	3.000000	na
25.028791	0.049160	22.000000	nontarget	4.000000	na
25.077951	0.050388	22.000000	nontarget	5.000000	na
25.128339	0.050185	22.000000	nontarget	6.000000	na
25.178523	0.050478	22.000000	nontarget	7.000000	na
25.229001	0.049733	22.000000	nontarget	8.000000	na
25.278734	0.050059	22.000000	nontarget	9.000000	na
25.328793	0.050088	22.000000	nontarget	10.000000	na
25.378882	0.049859	22.000000	nontarget	11.000000	na
25.428740	0.049204	22.000000	nontarget	12.000000	na
25.477944	0.050687	22.000000	nontarget	13.000000	na
25.528631	0.050034	22.000000	nontarget	14.000000	na
25.578665	0.050095	22.000000	nontarget	15.000000	na
25.628760	0.049897	22.000000	nontarget	16.000000	na
25.678657	0.050054	23.000000	nontarget	1.000000	na
25.728711	0.050009	23.000000	nontarget	2.000000	na
25.778720	0.050063	23.000000	nontarget	3.000000	na
25.828783	0.049672	23.000000	nontarget	4.000000	na
25.878455	0.050062	23.000000	nontarget	5.000000	na
25.928516	0.049933	23.000000	nontarget	6.000000	na
25.978450	0.050054	23.000000	nontarget	7.000000	na
26.028504	0.050050	23.000000	nontarget	8.000000	na
26.078553	0.049798	23.000000	nontarget	9.000000	na
26.128351	0.050596	23.000000	nontarget	10.000000	26.134795
26.178946	0.049246	23.000000	nontarget	11.000000	na
26.228192	0.050461	23.000000	nontarget	12.000000	na
26.278653	0.049458	23.000000	nontarget	13.000000	na
26.328111	0.050656	23.000000	nontarget	14.000000	na
26.378767	0.050121	23.000000	nontarget	15.000000	na
26.428887	0.049673	23.000000	nontarget	16.000000	na
26.478561	0.050212	24.000000	nontarget	1.000000	na
26.528772	0.050137	24.000000	nontarget	2.000000	na
26.578909	0.049809	24.000000	nontarget	3.000000	na
26.628719	0.049935	24.000000	nontarget	4.000000	na
26.678654	0.049763	24.000000	nontarget	5.000000	na
26.728417	0.050385	24.000000	nontarget	6.000000	na
26.778802	0.050217	24.000000	nontarget	7.000000	na
26.829018	0.049782	24.000000	nontarget	8.000000	na
26.878800	0.049971	24.000000	nontarget	9.000000	na
26.928772	0.049994	24.000000	nontarget	10.000000	na
26.978766	0.050117	24.000000	nontarget	11.000000	na
27.028883	0.049272	24.000000	nontarget	12.000000	na
27.078154	0.050498	24.000000	nontarget	13.000000	na
27.128652	0.050133	24.000000	nontarget	14.000000	27.135241
27.178786	0.050035	24.000000	nontarget	15.000000	na
27.228820	0.050071	24.000000	nontarget	16.000000	na
27.278891	0.049522	25.000000	nontarget	1.000000	na
27.328413	0.050312	25.000000	nontarget	2.000000	na
27.378725	0.049508	25.000000	nontarget	3.000000	na
27.428234	0.050495	25.000000	nontarget	4.000000	na
27.478729	0.050044	25.000000	nontarget	5.000000	na
27.528772	0.050222	25.000000	nontarget	6.000000	na
27.578994	0.049512	25.000000	nontarget	7.000000	na
27.628506	0.050107	25.000000	nontarget	8.000000	na
27.678613	0.050143	25.000000	nontarget	9.000000	na
27.728756	0.049970	25.000000	nontarget	10.000000	na
27.778726	0.050025	25.000000	nontarget	11.000000	na
27.828751	0.050202	25.000000	nontarget	12.000000	na
27.878953	0.049802	25.000000	nontarget	13.000000	na
27.928755	0.049519	25.000000	nontarget	14.000000	na
27.978275	0.049488	25.000000	nontarget	15.000000	28.015123
28.027763	0.050940	25.000000	nontarget	16.000000	na
28.078703	0.049763	26.000000	nontarget	1.000000	28.085353
28.128466	0.049837	26.000000	nontarget	2.000000	na
28.178303	0.050720	26.000000	nontarget	3.000000	na
28.229022	0.049497	26.000000	nontarget	4.000000	na
28.278519	0.050331	26.000000	nontarget	5.000000	na
28.328850	0.050024	26.000000	nontarget	6.000000	na
28.378874	0.049885	26.000000	nontarget	7.000000	na
28.428760	0.049042	26.000000	nontarget	8.000000	na
28.477802	0.051169	26.000000	nontarget	9.000000	na
28.528970	0.049535	26.000000	nontarget	10.000000	na
28.578506	0.049905	26.000000	nontarget	11.000000	na
28.628411	0.050318	26.000000	nontarget	12.000000	na
28.678728	0.050001	26.000000	nontarget	13.000000	na
28.728729	0.050037	26.000000	nontarget	14.000000	na
28.778766	0.049304	26.000000	nontarget	15.000000	28.793971
28.828069	0.050512	26.000000	nontarget	16.000000	na
28.878582	0.050281	27.000000	nontarget	1.000000	28.885252
28.928863	0.049244	27.000000	nontarget	2.000000	na
28.978107	0.050696	27.000000	nontarget	3.000000	na
29.028803	0.049935	27.000000	nontarget	4.000000	na
29.078738	0.049990	27.000000	nontarget	5.000000	na
29.128727	0.049950	27.000000	nontarget	6.000000	na
29.178678	0.049754	27.000000	nontarget	7.000000	na
29.228432	0.049596	27.000000	nontarget	8.000000	na
29.278028	0.050955	27.000000	nontarget	9.000000	na
29.328983	0.049895	27.000000	nontarget	10.000000	na
29.378878	0.049866	27.000000	nontarget	11.000000	na
29.428745	0.049920	27.000000	nontarget	12.000000	na
29.478664	0.050129	27.000000	nontarget	13.000000	na
29.528793	0.050125	27.000000	nontarget	14.000000	na
29.578919	0.049617	27.000000	nontarget	15.000000	na
29.628535	0.049912	27.000000	nontarget	16.000000	na
29.678447	0.050039	28.000000	nontarget	1.000000	29.702099
29.728486	0.050374	28.000000	nontarget	2.000000	na
29.778860	0.049232	28.000000	nontarget	3.000000	na
29.828091	0.050760	28.000000	nontarget	4.000000	na
29.878851	0.049323	28.000000	nontarget	5.000000	na
29.928174	0.050555	28.000000	nontarget	6.000000	na
29.978729	0.049870	28.000000	nontarget	7.000000	na
30.028599	0.050013	28.000000	nontarget	8.000000	na
30.078612	0.050311	28.000000	nontarget	9.000000	na
30.128923	0.049636	28.000000	nontarget	10.000000	na
30.178560	0.049691	28.000000	nontarget	11.000000	na
30.228251	0.050126	28.000000	nontarget	12.000000	na
30.278377	0.050323	28.000000	nontarget	13.000000	na
30.328699	0.050026	28.000000	nontarget	14.000000	na
30.378726	0.049992	28.000000	nontarget	15.000000	na
30.428718	0.050216	28.000000	nontarget	16.000000	na
30.478934	0.049055	29.000000	nontarget	1.000000	na
30.527989	0.050757	29.000000	nontarget	2.000000	na
30.578746	0.050027	29.000000	nontarget	3.000000	na
30.628773	0.049689	29.000000	nontarget	4.000000	30.635371
30.678462	0.050471	29.000000	nontarget	5.000000	na
30.728933	0.049454	29.000000	nontarget	6.000000	na
30.778387	0.050285	29.000000	nontarget	7.000000	na
30.828672	0.050106	29.000000	nontarget	8.000000	na
30.878777	0.049227	29.000000	nontarget	9.000000	na
30.928005	0.050475	29.000000	nontarget	10.000000	na
30.978480	0.050138	29.000000	nontarget	11.000000	na
31.028618	0.049852	29.000000	nontarget	12.000000	na
31.078470	0.049968	29.000000	nontarget	13.000000	na
31.128438	0.050259	29.000000	nontarget	14.000000	na
31.178697	0.050015	29.000000	nontarget	15.000000	na
31.228712	0.050194	29.000000	nontarget	16.000000	na
31.278906	0.049802	30.000000	nontarget	1.000000	na
31.328708	0.050214	30.000000	nontarget	2.000000	na
31.378921	0.049824	30.000000	nontarget	3.000000	na
31.428745	0.050018	30.000000	nontarget	4.000000	na
31.478764	0.049399	30.000000	nontarget	5.000000	na
31.528163	0.050500	30.000000	nontarget	6.000000	31.538045
31.578663	0.050007	30.000000	nontarget	7.000000	na
31.628670	0.049688	30.000000	nontarget	8.000000	na
31.678359	0.050639	30.000000	nontarget	9.000000	na
31.728997	0.049670	30.000000	nontarget	10.000000	na
31.778667	0.050076	30.000000	nontarget	11.000000	na
31.828743	0.049699	30.000000	nontarget	12.000000	na
31.878442	0.050399	30.000000	nontarget	13.000000	na
31.928840	0.048975	30.000000	nontarget	14.000000	na
31.977815	0.050670	30.000000	nontarget	15.000000	na
32.028485	0.050090	30.000000	nontarget	16.000000	na
32.078575	0.049840	31.000000	nontarget	1.000000	na
32.128415	0.050065	31.000000	nontarget	2.000000	na
32.178480	0.050112	31.000000	nontarget	3.000000	na
32.228592	0.050435	31.000000	nontarget	4.000000	na
32.279027	0.048774	31.000000	nontarget	5.000000	na
32.327801	0.050903	31.000000	nontarget	6.000000	na
32.378704	0.050000	31.000000	nontarget	7.000000	na
32.428704	0.049990	31.000000	nontarget	8.000000	na
32.478694	0.049571	31.000000	nontarget	9.000000	32.505782
32.528265	0.050454	31.000000	nontarget	10.000000	na
32.578719	0.049764	31.000000	nontarget	11.000000	na
32.628483	0.050003	31.000000	nontarget	12.000000	na
32.678485	0.050373	31.000000	nontarget	13.000000	na
32.728858	0.050016	31.000000	nontarget	14.000000	na
32.778874	0.049843	31.000000	nontarget	15.000000	na
32.828718	0.049821	31.000000	nontarget	16.000000	na
32.878539	0.049806	32.000000	nontarget	1.000000	na
32.928345	0.050323	32.000000	nontarget	2.000000	na
32.978668	0.049881	32.000000	nontarget	3.000000	na
33.028550	0.050098	32.000000	nontarget	4.000000	na
33.078648	0.050101	32.000000	nontarget	5.000000	na
33.128749	0.049989	32.000000	nontarget	6.000000	na
33.178738	0.049735	32.000000	nontarget	7.000000	na
33.228473	0.050228	32.000000	nontarget	8.000000	na
33.278700	0.049974	32.000000	nontarget	9.000000	na
33.328675	0.050215	32.000000	nontarget	10.000000	na
33.378890	0.050015	32.000000	nontarget	11.000000	na
33.428905	0.050132	32.000000	nontarget	12.000000	33.438258
33.479037	0.049549	32.000000	nontarget	13.000000	na
33.528586	0.049855	32.000000	nontarget	14.000000	na
33.578441	0.050020	32.000000	nontarget	15.000000	na
33.628462	0.050197	32.000000	nontarget	16.000000	na
33.678659	0.050002	33.000000	nontarget	1.000000	na
33.728661	0.050367	33.000000	nontarget	2.000000	na
33.779028	0.048959	33.000000	nontarget	3.000000	na
33.827986	0.050482	33.000000	nontarget	4.000000	na
33.878468	0.050231	33.000000	nontarget	5.000000	na
33.928699	0.050189	33.000000	nontarget	6.000000	na
33.978889	0.049765	33.000000	nontarget	7.000000	na
34.028653	0.049995	33.000000	nontarget	8.000000	na
34.078648	0.049920	33.000000	nontarget	9.000000	na
34.128569	0.050088	33.000000	nontarget	10.000000	na
34.178656	0.050022	33.000000	nontarget	11.000000	na
34.228679	0.049443	33.000000	nontarget	12.000000	34.255754
34.278122	0.050708	33.000000	nontarget	13.000000	na
34.328830	0.050151	33.000000	nontarget	14.000000	na
34.378981	0.050056	33.000000	nontarget	15.000000	na
34.429037	0.049531	33.000000	nontarget	16.000000	na
34.478569	0.049933	34.000000	nontarget	1.000000	na
34.528502	0.050150	34.000000	nontarget	2.000000	na
34.578652	0.050212	34.000000	nontarget	3.000000	na
34.628864	0.049818	34.000000	nontarget	4.000000	na
34.678682	0.049493	34.000000	nontarget	5.000000	na
34.728175	0.050691	34.000000	nontarget	6.000000	na
34.778866	0.050162	34.000000	nontarget	7.000000	na
34.829027	0.049374	34.000000	nontarget	8.000000	na
34.878401	0.050219	34.000000	nontarget	9.000000	na
34.928620	0.049450	34.000000	nontarget	10.000000	na
34.978070	0.050479	34.000000	nontarget	11.000000	na
35.028549	0.050018	34.000000	nontarget	12.000000	na
35.078568	0.050226	34.000000	nontarget	13.000000	na
35.128794	0.049499	34.000000	nontarget	14.000000	na
35.178293	0.050336	34.000000	nontarget	15.000000	na
35.228629	0.050015	34.000000	nontarget	16.000000	na
35.278645	0.049484	35.000000	nontarget	1.000000	35.289885
35.328129	0.050542	35.000000	nontarget	2.000000	na
35.378671	0.050226	35.000000	nontarget	3.000000	na
35.428897	0.049202	35.000000	nontarget	4.000000	na
35.478099	0.050829	35.000000	nontarget	5.000000	na
35.528927	0.050007	35.000000	nontarget	6.000000	na
35.578935	0.049123	35.000000	nontarget	7.000000	na
35.628058	0.050600	35.000000	nontarget	8.000000	na
35.678658	0.049717	35.000000	nontarget	9.000000	na
35.728375	0.049741	35.000000	nontarget	10.000000	na
35.778117	0.050523	35.000000	nontarget	11.000000	na
35.828639	0.050262	35.000000	nontarget	12.000000	na
35.878901	0.050016	35.000000	nontarget	13.000000	na
35.928917	0.050017	35.000000	nontarget	14.000000	na
35.978934	0.049378	35.000000	nontarget	15.000000	35.985842
36.028312	0.050098	35.000000	nontarget	16.000000	na
36.078410	0.049707	36.000000	nontarget	1.000000	36.084926
36.128117	0.050467	36.000000	nontarget	2.000000	na
36.178584	0.049656	36.000000	nontarget	3.000000	na
36.228240	0.050391	36.000000	nontarget	4.000000	na
36.278632	0.049999	36.000000	nontarget	5.000000	na
36.328631	0.049980	36.000000	nontarget	6.000000	na
36.378612	0.050302	36.000000	nontarget	7.000000	na
36.428913	0.049987	36.000000	nontarget	8.000000	na
36.478900	0.049725	36.000000	nontarget	9.000000	na
36.528626	0.050369	36.000000	nontarget	10.000000	na
36.578995	0.049640	36.000000	nontarget	11.000000	na
36.628635	0.050127	36.000000	nontarget	12.000000	na
36.678762	0.050264	36.000000	nontarget	13.000000	na
36.729026	0.049395	36.000000	nontarget	14.000000	na
36.778421	0.049652	36.000000	nontarget	15.000000	na
36.828073	0.050389	36.000000	nontarget	16.000000	36.834684
36.878463	0.050013	37.000000	nontarget	1.000000	36.885134
36.928475	0.049840	37.000000	nontarget	2.000000	na
36.978315	0.049706	37.000000	nontarget	3.000000	na
37.028021	0.050841	37.000000	nontarget	4.000000	na
37.078862	0.050102	37.000000	nontarget	5.000000	na
37.128964	0.049296	37.000000	nontarget	6.000000	na
37.178260	0.050774	37.000000	nontarget	7.000000	na
37.229035	0.049343	37.000000	nontarget	8.000000	na
37.278378	0.050267	37.000000	nontarget	9.000000	na
37.328644	0.049548	37.000000	nontarget	10.000000	na
37.378193	0.049989	37.000000	nontarget	11.000000	na
37.428182	0.050401	37.000000	nontarget	12.000000	na
37.478583	0.050066	37.000000	nontarget	13.000000	na
37.528649	0.049560	37.000000	nontarget	14.000000	na
37.578209	0.050281	37.000000	nontarget	15.000000	na
37.628490	0.050127	37.000000	nontarget	16.000000	na
37.678617	0.049810	38.000000	target	1.000000	na
37.728427	0.050037	38.000000	target	2.000000	na
37.778464	0.049609	38.000000	target	3.000000	na
37.828073	0.050819	38.000000	target	4.000000	na
37.878891	0.049727	38.000000	target	5.000000	na
37.928618	0.049995	38.000000	target	6.000000	na
37.978613	0.049975	38.000000	target	7.000000	na
38.028588	0.049817	38.000000	target	8.000000	na
38.078405	0.049527	38.000000	target	9.000000	na
38.127931	0.050725	38.000000	target	10.000000	na
38.178657	0.049986	38.000000	target	11.000000	na
38.228642	0.050024	38.000000	target	12.000000	na
38.278666	0.049872	38.000000	target	13.000000	na
38.328538	0.049649	38.000000	target	14.000000	na
38.378188	0.050617	38.000000	target	15.000000	na
38.428804	0.049819	38.000000	target	16.000000	38.460747
38.478624	0.049974	39.000000	nontarget	1.000000	38.485264
38.528598	0.050120	39.000000	nontarget	2.000000	na
38.578717	0.049826	39.000000	nontarget	3.000000	na
38.628543	0.050186	39.000000	nontarget	4.000000	na
38.678729	0.050022	39.000000	nontarget	5.000000	na
38.728751	0.049863	39.000000	nontarget	6.000000	na
38.778614	0.049842	39.000000	nontarget	7.000000	na
38.828456	0.050163	39.000000	nontarget	8.000000	na
38.878619	0.050014	39.000000	nontarget	9.000000	na
38.928633	0.049883	39.000000	nontarget	10.000000	na
38.978516	0.050093	39.000000	nontarget	11.000000	na
39.028609	0.050137	39.000000	nontarget	12.000000	na
39.078745	0.049904	39.000000	nontarget	13.000000	na
39.128650	0.049752	39.000000	nontarget	14.000000	na
39.178401	0.049694	39.000000	nontarget	15.000000	na
39.228095	0.050258	39.000000	nontarget	16.000000	na
39.278353	0.050278	40.000000	target	1.000000	na
39.328632	0.049709	40.000000	target	2.000000	na
39.378341	0.050277	40.000000	target	3.000000	na
39.428618	0.050096	40.000000	target	4.000000	na
39.478714	0.049289	40.000000	target	5.000000	na
39.528003	0.050558	40.000000	target	6.000000	na
39.578561	0.050024	40.000000	target	7.000000	na
39.628585	0.050006	40.000000	target	8.000000	na
39.678591	0.050084	40.000000	target	9.000000	na
39.728676	0.049378	40.000000	target	10.000000	na
39.778053	0.050522	40.000000	target	11.000000	na
39.828576	0.049771	40.000000	target	12.000000	na
39.878347	0.049771	40.000000	target	13.000000	na
39.928118	0.050004	40.000000	target	14.000000	na
39.978121	0.050136	40.000000	target	15.000000	na
40.028257	0.050322	40.000000	target	16.000000	na
40.078580	0.049497	41.000000	nontarget	1.000000	40.089944
40.128077	0.049608	41.000000	nontarget	2.000000	na
40.177684	0.050913	41.000000	nontarget	3.000000	na
40.228597	0.049776	41.000000	nontarget	4.000000	na
40.278373	0.050175	41.000000	nontarget	5.000000	na
40.328548	0.049452	41.000000	nontarget	6.000000	na
40.378000	0.050554	41.000000	nontarget	7.000000	na
40.428554	0.049852	41.000000	nontarget	8.000000	na
40.478405	0.050013	41.000000	nontarget	9.000000	na
40.528419	0.050237	41.000000	nontarget	10.000000	na
40.578656	0.049907	41.000000	nontarget	11.000000	na
40.628563	0.050133	41.000000	nontarget	12.000000	na
40.678696	0.049915	41.000000	nontarget	13.000000	na
40.728610	0.049849	41.000000	nontarget	14.000000	na
40.778460	0.050270	41.000000	nontarget	15.000000	na
40.828730	0.049819	41.000000	nontarget	16.000000	na
40.878549	0.050014	42.000000	nontarget	1.000000	na
40.928563	0.050154	42.000000	nontarget	2.000000	na
40.978717	0.049839	42.000000	nontarget	3.000000	na
41.028556	0.049222	42.000000	nontarget	4.000000	41.044032
41.077779	0.050755	42.000000	nontarget	5.000000	na
41.128533	0.050120	42.000000	nontarget	6.000000	na
41.178654	0.049465	42.000000	nontarget	7.000000	na
41.228119	0.050463	42.000000	nontarget	8.000000	na
41.278581	0.049255	42.000000	nontarget	9.000000	na
41.327836	0.050333	42.000000	nontarget	10.000000	na
41.378169	0.049997	42.000000	nontarget	11.000000	na
41.428165	0.050320	42.000000	nontarget	12.000000	na
41.478485	0.050066	42.000000	nontarget	13.000000	na
41.528550	0.049983	42.000000	nontarget	14.000000	na
41.578534	0.049241	42.000000	nontarget	15.000000	na
41.627775	0.050634	42.000000	nontarget	16.000000	na
41.678409	0.049800	43.000000	nontarget	1.000000	na
41.728209	0.050092	43.000000	nontarget	2.000000	na
41.778302	0.049554	43.000000	nontarget	3.000000	41.809877
41.827855	0.050187	43.000000	nontarget	4.000000	na
41.878043	0.050509	43.000000	nontarget	5.000000	na
41.928552	0.050019	43.000000	nontarget	6.000000	na
41.978571	0.049897	43.000000	nontarget	7.000000	na
42.028468	0.049389	43.000000	nontarget	8.000000	na
42.077857	0.050697	43.000000	nontarget	9.000000	na
42.128554	0.049846	43.000000	nontarget	10.000000	na
42.178400	0.050069	43.000000	nontarget	11.000000	na
42.228468	0.049580	43.000000	nontarget	12.000000	na
42.278048	0.050487	43.000000	nontarget	13.000000	na
42.328534	0.049485	43.000000	nontarget	14.000000	na
42.378019	0.050611	43.000000	nontarget	15.000000	na
42.428630	0.049950	43.000000	nontarget	16.000000	na
42.478581	0.049707	44.000000	nontarget	1.000000	na
42.528288	0.049565	44.000000	nontarget	2.000000	na
42.577852	0.050684	44.000000	nontarget	3.000000	na
42.628536	0.050054	44.000000	nontarget	4.000000	na
42.678590	0.049817	44.000000	nontarget	5.000000	na
42.728408	0.049960	44.000000	nontarget	6.000000	na
42.778368	0.050167	44.000000	nontarget	7.000000	na
42.828535	0.049869	44.000000	nontarget	8.000000	42.835100
42.878403	0.050141	44.000000	nontarget	9.000000	na
42.928545	0.049039	44.000000	nontarget	10.000000	na
42.977584	0.050934	44.000000	nontarget	11.000000	na
43.028517	0.049807	44.000000	nontarget	12.000000	na
43.078324	0.050093	44.000000	nontarget	13.000000	na
43.128417	0.049991	44.000000	nontarget	14.000000	na
43.178408	0.050044	44.000000	nontarget	15.000000	na
43.228452	0.049415	44.000000	nontarget	16.000000	na
43.277867	0.050668	45.000000	nontarget	1.000000	na
43.328535	0.050190	45.000000	nontarget	2.000000	na
43.378725	0.049617	45.000000	nontarget	3.000000	na
43.428342	0.050085	45.000000	nontarget	4.000000	na
43.478427	0.050099	45.000000	nontarget	5.000000	na
43.528526	0.049401	45.000000	nontarget	6.000000	na
43.577927	0.050713	45.000000	nontarget	7.000000	na
43.628639	0.049826	45.000000	nontarget	8.000000	na
43.678465	0.050067	45.000000	nontarget	9.000000	na
43.728532	0.049288	45.000000	nontarget	10.000000	43.760156
43.777820	0.050503	45.000000	nontarget	11.000000	na
43.828324	0.049432	45.000000	nontarget	12.000000	na
43.877755	0.050927	45.000000	nontarget	13.000000	na
43.928683	0.049836	45.000000	nontarget	14.000000	na
43.978518	0.049441	45.000000	nontarget	15.000000	na
44.027959	0.050507	45.000000	nontarget	16.000000	na
44.078466	0.050168	46.000000	nontarget	1.000000	na
44.128634	0.049883	46.000000	nontarget	2.000000	na
44.178517	0.049781	46.000000	nontarget	3.000000	na
44.228298	0.049437	46.000000	nontarget	4.000000	na
44.277735	0.050723	46.000000	nontarget	5.000000	na
44.328458	0.049991	46.000000	nontarget	6.000000	na
44.378449	0.050042	46.000000	nontarget	7.000000	na
44.428491	0.050038	46.000000	nontarget	8.000000	na
44.478529	0.049727	46.000000	nontarget	9.000000	na
44.528256	0.050445	46.000000	nontarget	10.000000	na
44.578701	0.049855	46.000000	nontarget	11.000000	na
44.628556	0.049954	46.000000	nontarget	12.000000	na
44.678510	0.049232	46.000000	nontarget	13.000000	na
44.727742	0.050006	46.000000	nontarget	14.000000	44.734181
44.777749	0.050805	46.000000	nontarget	15.000000	na
44.828554	0.049204	46.000000	nontarget	16.000000	na
44.877758	0.050827	47.000000	nontarget	1.000000	na
44.928584	0.049248	47.000000	nontarget	2.000000	na
44.977832	0.050008	47.000000	nontarget	3.000000	na
45.027841	0.050784	47.000000	nontarget	4.000000	na
45.078624	0.049760	47.000000	nontarget	5.000000	na
45.128384	0.049998	47.000000	nontarget	6.000000	na
45.178382	0.050119	47.000000	nontarget	7.000000	na
45.228501	0.049975	47.000000	nontarget	8.000000	na
45.278476	0.049394	47.000000	nontarget	9.000000	na
45.327870	0.050558	47.000000	nontarget	10.000000	na
45.378428	0.049952	47.000000	nontarget	11.000000	na
45.428380	0.050128	47.000000	nontarget	12.000000	na
45.478507	0.049850	47.000000	nontarget	13.000000	na
45.528357	0.050046	47.000000	nontarget	14.000000	na
45.578403	0.049610	47.000000	nontarget	15.000000	na
45.628012	0.050441	47.000000	nontarget	16.000000	na
45.678453	0.049952	48.000000	nontarget	1.000000	na
45.728406	0.049540	48.000000	nontarget	2.000000	na
45.777946	0.050591	48.000000	nontarget	3.000000	45.784549
45.828537	0.050101	48.000000	nontarget	4.000000	na
45.878638	0.049835	48.000000	nontarget	5.000000	na
45.928473	0.049964	48.000000	nontarget	6.000000	na
45.978437	0.049377	48.000000	nontarget	7.000000	na
46.027814	0.050758	48.000000	nontarget	8.000000	na
46.078571	0.049695	48.000000	nontarget	9.000000	na
46.128267	0.050209	48.000000	nontarget	10.000000	na
46.178475	0.049747	48.000000	nontarget	11.000000	na
46.228222	0.049926	48.000000	nontarget	12.000000	na
46.278148	0.050359	48.000000	nontarget	13.000000	na
46.328508	0.049105	48.000000	nontarget	14.000000	na
46.377613	0.050865	48.000000	nontarget	15.000000	na
46.428478	0.049996	48.000000	nontarget	16.000000	na
46.478474	0.049279	49.000000	nontarget	1.000000	na
46.527753	0.050713	49.000000	nontarget	2.000000	na
46.578466	0.048974	49.000000	nontarget	3.000000	na
46.627441	0.050773	49.000000	nontarget	4.000000	na
46.678214	0.049397	49.000000	nontarget	5.000000	na
46.727611	0.050149	49.000000	nontarget	6.000000	na
46.777761	0.049684	49.000000	nontarget	7.000000	46.784377
46.827444	0.051031	49.000000	nontarget	8.000000	na
46.878475	0.049995	49.000000	nontarget	9.000000	na
46.928470	0.049521	49.000000	nontarget	10.000000	na
46.977992	0.049698	49.000000	nontarget	11.000000	na
47.027690	0.050715	49.000000	nontarget	12.000000	na
47.078405	0.049059	49.000000	nontarget	13.000000	na
47.127464	0.050353	49.000000	nontarget	14.000000	na
47.177817	0.049953	49.000000	nontarget	15.000000	na
47.227770	0.050630	49.000000	nontarget	16.000000	na
47.278400	0.050153	50.000000	target	1.000000	na
47.328553	0.049868	50.000000	target	2.000000	na
47.378421	0.049986	50.000000	target	3.000000	na
47.428407	0.050131	50.000000	target	4.000000	na
47.478538	0.049910	50.000000	target	5.000000	na
47.528448	0.050049	50.000000	target	6.000000	na
47.578497	0.049951	50.000000	target	7.000000	na
47.628448	0.050081	50.000000	target	8.000000	na
47.678528	0.049745	50.000000	target	9.000000	na
47.728273	0.050185	50.000000	target	10.000000	na
47.778458	0.049998	50.000000	target	11.000000	na
47.828456	0.049915	50.000000	target	12.000000	na
47.878371	0.049881	50.000000	target	13.000000	na
47.928252	0.050329	50.000000	target	14.000000	na
47.978581	0.049452	50.000000	target	15.000000	na
48.028033	0.049210	50.000000	target	16.000000	na
48.077244	0.051364	51.000000	nontarget	1.000000	na
48.128608	0.050020	51.000000	nontarget	2.000000	na
48.178628	0.049864	51.000000	nontarget	3.000000	na
48.228491	0.050142	51.000000	nontarget	4.000000	na
48.278634	0.049238	51.000000	nontarget	5.000000	na
48.327871	0.050606	51.000000	nontarget	6.000000	48.334457
48.378478	0.050082	51.000000	nontarget	7.000000	na
48.428560	0.049590	51.000000	nontarget	8.000000	na
48.478150	0.050515	51.000000	nontarget	9.000000	na
48.528665	0.050150	51.000000	nontarget	10.000000	na
48.578815	0.049334	51.000000	nontarget	11.000000	na
48.628149	0.050315	51.000000	nontarget	12.000000	na
48.678464	0.050369	51.000000	nontarget	13.000000	na
48.728833	0.049098	51.000000	nontarget	14.000000	na
48.777930	0.050421	51.000000	nontarget	15.000000	na
48.828351	0.050053	51.000000	nontarget	16.000000	na
48.878405	0.050351	52.000000	nontarget	1.000000	na
48.928756	0.049885	52.000000	nontarget	2.000000	na
48.978641	0.050058	52.000000	nontarget	3.000000	na
49.028699	0.049756	52.000000	nontarget	4.000000	49.048100
49.078455	0.049878	52.000000	nontarget	5.000000	na
49.128333	0.049673	52.000000	nontarget	6.000000	na
49.178006	0.050475	52.000000	nontarget	7.000000	na
49.228481	0.049930	52.000000	nontarget	8.000000	na
49.278411	0.050171	52.000000	nontarget	9.000000	na
49.328582	0.049848	52.000000	nontarget	10.000000	na
49.378430	0.049929	52.000000	nontarget	11.000000	na
49.428359	0.050056	52.000000	nontarget	12.000000	na
49.478414	0.050109	52.000000	nontarget	13.000000	na
49.528523	0.049915	52.000000	nontarget	14.000000	na
49.578438	0.049954	52.000000	nontarget	15.000000	na
49.628392	0.050048	52.000000	nontarget	16.000000	na
49.678441	0.049559	53.000000	nontarget	1.000000	na
49.727999	0.050423	53.000000	nontarget	2.000000	na
49.778422	0.049982	53.000000	nontarget	3.000000	na
49.828405	0.050208	53.000000	nontarget	4.000000	na
49.878613	0.050031	53.000000	nontarget	5.000000	na
49.928644	0.049478	53.000000	nontarget	6.000000	na
49.978122	0.050308	53.000000	nontarget	7.000000	49.984639
50.028430	0.050118	53.000000	nontarget	8.000000	na
50.078548	0.049747	53.000000	nontarget	9.000000	na
50.128296	0.049538	53.000000	nontarget	10.000000	na
50.177834	0.050616	53.000000	nontarget	11.000000	na
50.228451	0.050256	53.000000	nontarget	12.000000	na
50.278707	0.049955	53.000000	nontarget	13.000000	na
50.328662	0.049716	53.000000	nontarget	14.000000	na
50.378378	0.050013	53.000000	nontarget	15.000000	na
50.428391	0.050073	53.000000	nontarget	16.000000	na
50.478465	0.049828	54.000000	nontarget	1.000000	na
50.528293	0.050132	54.000000	nontarget	2.000000	na
50.578424	0.050051	54.000000	nontarget	3.000000	na
50.628475	0.050395	54.000000	nontarget	4.000000	na
50.678870	0.049590	54.000000	nontarget	5.000000	na
50.728460	0.050310	54.000000	nontarget	6.000000	na
50.778770	0.049924	54.000000	nontarget	7.000000	na
50.828693	0.049710	54.000000	nontarget	8.000000	na
50.878403	0.050005	54.000000	nontarget	9.000000	na
50.928408	0.049992	54.000000	nontarget	10.000000	50.934338
50.978400	0.049635	54.000000	nontarget	11.000000	na
51.028035	0.050331	54.000000	nontarget	12.000000	na
51.078366	0.050222	54.000000	nontarget	13.000000	na
51.128588	0.049578	54.000000	nontarget	14.000000	na
51.178166	0.050262	54.000000	nontarget	15.000000	na
51.228428	0.049746	54.000000	nontarget	16.000000	na
51.278174	0.050237	55.000000	nontarget	1.000000	na
51.328411	0.049973	55.000000	nontarget	2.000000	na
51.378384	0.050077	55.000000	nontarget	3.000000	na
51.428461	0.049105	55.000000	nontarget	4.000000	na
51.477565	0.051164	55.000000	nontarget	5.000000	na
51.528729	0.049871	55.000000	nontarget	6.000000	na
51.578600	0.049670	55.000000	nontarget	7.000000	na
51.628270	0.049814	55.000000	nontarget	8.000000	na
51.678084	0.049757	55.000000	nontarget	9.000000	na
51.727841	0.050901	55.000000	nontarget	10.000000	na
51.778743	0.050180	55.000000	nontarget	11.000000	na
51.828922	0.049956	55.000000	nontarget	12.000000	na
51.878878	0.048908	55.000000	nontarget	13.000000	na
51.927786	0.050616	55.000000	nontarget	14.000000	na
51.978403	0.049810	55.000000	nontarget	15.000000	51.989730
52.028213	0.050197	55.000000	nontarget	16.000000	na
52.078410	0.049953	56.000000	nontarget	1.000000	52.085067
52.128363	0.050042	56.000000	nontarget	2.000000	na
52.178405	0.049920	56.000000	nontarget	3.000000	na
52.228325	0.050044	56.000000	nontarget	4.000000	na
52.278369	0.049939	56.000000	nontarget	5.000000	na
52.328308	0.049507	56.000000	nontarget	6.000000	na
52.377815	0.050377	56.000000	nontarget	7.000000	na
52.428192	0.050126	56.000000	nontarget	8.000000	na
52.478318	0.050082	56.000000	nontarget	9.000000	na
52.528400	0.049962	56.000000	nontarget	10.000000	na
52.578362	0.049508	56.000000	nontarget	11.000000	na
52.627869	0.050532	56.000000	nontarget	12.000000	na
52.678401	0.050014	56.000000	nontarget	13.000000	na
52.728415	0.049957	56.000000	nontarget	14.000000	na
52.778373	0.050058	56.000000	nontarget	15.000000	na
52.828431	0.049925	56.000000	nontarget	16.000000	na
52.878356	0.050048	57.000000	target	1.000000	na
52.928404	0.049899	57.000000	target	2.000000	na
52.978303	0.050321	57.000000	target	3.000000	na
53.028624	0.049781	57.000000	target	4.000000	na
53.078405	0.049984	57.000000	target	5.000000	na
53.128390	0.049984	57.000000	target	6.000000	na
53.178374	0.049934	57.000000	target	7.000000	na
53.228308	0.050200	57.000000	target	8.000000	na
53.278508	0.049396	57.000000	target	9.000000	na
53.327903	0.049755	57.000000	target	10.000000	na
53.377658	0.050725	57.000000	target	11.000000	na
53.428383	0.049241	57.000000	target	12.000000	na
53.477623	0.050697	57.000000	target	13.000000	na
53.528320	0.050034	57.000000	target	14.000000	na
53.578355	0.050148	57.000000	target	15.000000	na
53.628503	0.049001	57.000000	target	16.000000	na
53.677503	0.050899	58.000000	target	1.000000	na
53.728402	0.050065	58.000000	target	2.000000	na
53.778467	0.049940	58.000000	target	3.000000	na
53.828407	0.049995	58.000000	target	4.000000	na
53.878402	0.049992	58.000000	target	5.000000	na
53.928394	0.049938	58.000000	target	6.000000	na
53.978332	0.050101	58.000000	target	7.000000	na
54.028433	0.049851	58.000000	target	8.000000	na
54.078284	0.049756	58.000000	target	9.000000	na
54.128040	0.049793	58.000000	target	10.000000	na
54.177833	0.050444	58.000000	target	11.000000	na
54.228277	0.049803	58.000000	target	12.000000	na
54.278080	0.050076	58.000000	target	13.000000	na
54.328155	0.049557	58.000000	target	14.000000	na
54.377712	0.050684	58.000000	target	15.000000	54.384151
54.428397	0.049800	58.000000	target	16.000000	na
54.478197	0.049470	59.000000	nontarget	1.000000	54.484807
54.527667	0.050182	59.000000	nontarget	2.000000	na
54.577849	0.050560	59.000000	nontarget	3.000000	na
54.628409	0.049874	59.000000	nontarget	4.000000	na
54.678283	0.049360	59.000000	nontarget	5.000000	na
54.727643	0.050694	59.000000	nontarget	6.000000	na
54.778337	0.049922	59.000000	nontarget	7.000000	na
54.828259	0.050118	59.000000	nontarget	8.000000	na
54.878376	0.050054	59.000000	nontarget	9.000000	na
54.928431	0.050066	59.000000	nontarget	10.000000	na
54.978497	0.049322	59.000000	nontarget	11.000000	na
55.027819	0.050472	59.000000	nontarget	12.000000	na
55.078290	0.050084	59.000000	nontarget	13.000000	na
55.128374	0.050000	59.000000	nontarget	14.000000	na
55.178374	0.049088	59.000000	nontarget	15.000000	55.209896
55.227461	0.050316	59.000000	nontarget	16.000000	na
55.277777	0.049702	60.000000	nontarget	1.000000	55.284415
55.327479	0.050383	60.000000	nontarget	2.000000	na
55.377862	0.050346	60.000000	nontarget	3.000000	na
55.428208	0.050153	60.000000	nontarget	4.000000	na
55.478361	0.049992	60.000000	nontarget	5.000000	na
55.528353	0.050013	60.000000	nontarget	6.000000	na
55.578366	0.049980	60.000000	nontarget	7.000000	na
55.628346	0.049213	60.000000	nontarget	8.000000	na
55.677559	0.050899	60.000000	nontarget	9.000000	na
55.728458	0.049974	60.000000	nontarget	10.000000	na
55.778432	0.049866	60.000000	nontarget	11.000000	na
55.828298	0.050108	60.000000	nontarget	12.000000	na
55.878406	0.050116	60.000000	nontarget	13.000000	na
55.928522	0.050024	60.000000	nontarget	14.000000	na
55.978546	0.049859	60.000000	nontarget	15.000000	na
56.028405	0.049949	60.000000	nontarget	16.000000	na
56.078354	0.049559	61.000000	nontarget	1.000000	56.089580
56.127913	0.050461	61.000000	nontarget	2.000000	na
56.178374	0.049305	61.000000	nontarget	3.000000	na
56.227679	0.050031	61.000000	nontarget	4.000000	na
56.277710	0.050645	61.000000	nontarget	5.000000	na
56.328355	0.049975	61.000000	nontarget	6.000000	na
56.378330	0.049649	61.000000	nontarget	7.000000	na
56.427979	0.050421	61.000000	nontarget	8.000000	na
56.478400	0.049952	61.000000	nontarget	9.000000	na
56.528352	0.049978	61.000000	nontarget	10.000000	na
56.578330	0.050120	61.000000	nontarget	11.000000	na
56.628450	0.049955	61.000000	nontarget	12.000000	na
56.678405	0.050073	61.000000	nontarget	13.000000	na
56.728478	0.049978	61.000000	nontarget	14.000000	na
56.778456	0.049826	61.000000	nontarget	15.000000	na
56.828282	0.049276	61.000000	nontarget	16.000000	na
56.877558	0.050654	62.000000	nontarget	1.000000	na
56.928212	0.050156	62.000000	nontarget	2.000000	na
56.978369	0.049981	62.000000	nontarget	3.000000	56.994032
57.028350	0.049968	62.000000	nontarget	4.000000	na
57.078317	0.049984	62.000000	nontarget	5.000000	na
57.128301	0.050077	62.000000	nontarget	6.000000	na
57.178379	0.049853	62.000000	nontarget	7.000000	na
57.228232	0.050061	62.000000	nontarget	8.000000	na
57.278293	0.050042	62.000000	nontarget	9.000000	na
57.328335	0.049863	62.000000	nontarget	10.000000	na
57.378198	0.049987	62.000000	nontarget	11.000000	na
57.428185	0.050035	62.000000	nontarget	12.000000	na
57.478220	0.050098	62.000000	nontarget	13.000000	na
57.528318	0.049893	62.000000	nontarget	14.000000	na
57.578211	0.049649	62.000000	nontarget	15.000000	na
57.627860	0.050658	62.000000	nontarget	16.000000	na
57.678518	0.049874	63.000000	nontarget	1.000000	na
57.728392	0.049855	63.000000	nontarget	2.000000	na
57.778247	0.050190	63.000000	nontarget	3.000000	na
57.828437	0.049969	63.000000	nontarget	4.000000	na
57.878406	0.049093	63.000000	nontarget	5.000000	na
57.927499	0.050323	63.000000	nontarget	6.000000	na
57.977822	0.049813	63.000000	nontarget	7.000000	na
58.027635	0.050109	63.000000	nontarget	8.000000	58.034252
58.077744	0.050419	63.000000	nontarget	9.000000	na
58.128163	0.049235	63.000000	nontarget	10.000000	na
58.177398	0.050720	63.000000	nontarget	11.000000	na
58.228118	0.050178	63.000000	nontarget	12.000000	na
58.278297	0.050025	63.000000	nontarget	13.000000	na
58.328322	0.049950	63.000000	nontarget	14.000000	na
58.378271	0.049603	63.000000	nontarget	15.000000	na
58.427874	0.050074	63.000000	nontarget	16.000000	na
58.477948	0.050331	64.000000	nontarget	1.000000	na
58.528279	0.050035	64.000000	nontarget	2.000000	na
58.578314	0.049326	64.000000	nontarget	3.000000	na
58.627640	0.050801	64.000000	nontarget	4.000000	na
58.678441	0.050028	64.000000	nontarget	5.000000	na
58.728469	0.049874	64.000000	nontarget	6.000000	na
58.778342	0.049903	64.000000	nontarget	7.000000	na
58.828245	0.050098	64.000000	nontarget	8.000000	na
58.878343	0.049629	64.000000	nontarget	9.000000	na
58.927972	0.049845	64.000000	nontarget	10.000000	58.962850
58.977816	0.050484	64.000000	nontarget	11.000000	na
59.028301	0.049780	64.000000	nontarget	12.000000	na
59.078080	0.050322	64.000000	nontarget	13.000000	na
59.128403	0.049895	64.000000	nontarget	14.000000	na
59.178298	0.049852	64.000000	nontarget	15.000000	na
59.228150	0.050142	64.000000	nontarget	16.000000	na
59.278292	0.050170	65.000000	nontarget	1.000000	na
59.328462	0.049145	65.000000	nontarget	2.000000	na
59.377607	0.049967	65.000000	nontarget	3.000000	na
59.427574	0.050730	65.000000	nontarget	4.000000	na
59.478304	0.049815	65.000000	nontarget	5.000000	na
59.528119	0.050174	65.000000	nontarget	6.000000	na
59.578294	0.049986	65.000000	nontarget	7.000000	na
59.628279	0.050097	65.000000	nontarget	8.000000	na
59.678376	0.049772	65.000000	nontarget	9.000000	na
59.728149	0.050206	65.000000	nontarget	10.000000	na
59.778354	0.050025	65.000000	nontarget	11.000000	na
59.828380	0.049806	65.000000	nontarget	12.000000	na
59.878185	0.049973	65.000000	nontarget	13.000000	na
59.928159	0.049755	65.000000	nontarget	14.000000	na
59.977914	0.049953	65.000000	nontarget	15.000000	60.005998
60.027867	0.050416	65.000000	nontarget	16.000000	na
60.078284	0.049662	66.000000	nontarget	1.000000	60.084881
60.127946	0.049756	66.000000	nontarget	2.000000	na
60.177702	0.050554	66.000000	nontarget	3.000000	na
60.228256	0.050027	66.000000	nontarget	4.000000	na
60.278282	0.049997	66.000000	nontarget	5.000000	na
60.328279	0.049277	66.000000	nontarget	6.000000	na
60.377557	0.050818	66.000000	nontarget	7.000000	na
60.428374	0.049904	66.000000	nontarget	8.000000	na
60.478279	0.050018	66.000000	nontarget	9.000000	na
60.528297	0.049963	66.000000	nontarget	10.000000	na
60.578260	0.049934	66.000000	nontarget	11.000000	na
60.628194	0.050083	66.000000	nontarget	12.000000	na
60.678277	0.049318	66.000000	nontarget	13.000000	na
60.727595	0.050365	66.000000	nontarget	14.000000	na
60.777960	0.050305	66.000000	nontarget	15.000000	na
60.828266	0.049957	66.000000	nontarget	16.000000	na
60.878223	0.050065	67.000000	nontarget	1.000000	na
60.928288	0.049025	67.000000	nontarget	2.000000	60.948328
60.977313	0.050657	67.000000	nontarget	3.000000	na
61.027969	0.050347	67.000000	nontarget	4.000000	na
61.078316	0.049560	67.000000	nontarget	5.000000	na
61.127876	0.050062	67.000000	nontarget	6.000000	na
61.177938	0.050061	67.000000	nontarget	7.000000	na
61.227999	0.050137	67.000000	nontarget	8.000000	na
61.278136	0.050127	67.000000	nontarget	9.000000	na
61.328263	0.050221	67.000000	nontarget	10.000000	na
61.378484	0.049069	67.000000	nontarget	11.000000	na
61.427553	0.050036	67.000000	nontarget	12.000000	na
61.477589	0.050720	67.000000	nontarget	13.000000	na
61.528310	0.049377	67.000000	nontarget	14.000000	na
61.577687	0.050654	67.000000	nontarget	15.000000	na
61.628340	0.049910	67.000000	nontarget	16.000000	na
61.678250	0.050020	68.000000	nontarget	1.000000	na
61.728270	0.049308	68.000000	nontarget	2.000000	na
61.777578	0.050739	68.000000	nontarget	3.000000	na
61.828317	0.050013	68.000000	nontarget	4.000000	na
61.878330	0.049853	68.000000	nontarget	5.000000	na
61.928184	0.050005	68.000000	nontarget	6.000000	na
61.978189	0.049963	68.000000	nontarget	7.000000	62.006352
62.028152	0.050139	68.000000	nontarget	8.000000	na
62.078291	0.049985	68.000000	nontarget	9.000000	na
62.128276	0.049921	68.000000	nontarget	10.000000	na
62.178196	0.050294	68.000000	nontarget	11.000000	na
62.228490	0.048774	68.000000	nontarget	12.000000	na
62.277264	0.050811	68.000000	nontarget	13.000000	na
62.328074	0.050326	68.000000	nontarget	14.000000	na
62.378401	0.049919	68.000000	nontarget	15.000000	na
62.428320	0.049367	68.000000	nontarget	16.000000	na
62.477687	0.050744	69.000000	nontarget	1.000000	na
62.528431	0.049084	69.000000	nontarget	2.000000	na
62.577515	0.050956	69.000000	nontarget	3.000000	na
62.628470	0.049101	69.000000	nontarget	4.000000	na
62.677571	0.050682	69.000000	nontarget	5.000000	na
62.728253	0.049986	69.000000	nontarget	6.000000	na
62.778239	0.049895	69.000000	nontarget	7.000000	na
62.828135	0.049961	69.000000	nontarget	8.000000	na
62.878095	0.050133	69.000000	nontarget	9.000000	62.906017
62.928228	0.049788	69.000000	nontarget	10.000000	na
62.978017	0.050135	69.000000	nontarget	11.000000	na
63.028151	0.049704	69.000000	nontarget	12.000000	na
63.077855	0.050377	69.000000	nontarget	13.000000	na
63.128232	0.049778	69.000000	nontarget	14.000000	na
63.178010	0.050041	69.000000	nontarget	15.000000	na
63.228051	0.050213	69.000000	nontarget	16.000000	na
63.278265	0.049982	70.000000	nontarget	1.000000	na
63.328247	0.049704	70.000000	nontarget	2.000000	na
63.377951	0.049956	70.000000	nontarget	3.000000	na
63.427907	0.049869	70.000000	nontarget	4.000000	na
63.477776	0.050762	70.000000	nontarget	5.000000	na
63.528538	0.050044	70.000000	nontarget	6.000000	na
63.578582	0.049648	70.000000	nontarget	7.000000	na
63.628231	0.050191	70.000000	nontarget	8.000000	na
63.678421	0.050031	70.000000	nontarget	9.000000	na
63.728452	0.049797	70.000000	nontarget	10.000000	na
63.778249	0.050276	70.000000	nontarget	11.000000	na
63.828525	0.049752	70.000000	nontarget	12.000000	na
63.878277	0.049712	70.000000	nontarget	13.000000	63.884850
63.927989	0.049766	70.000000	nontarget	14.000000	na
63.977756	0.049978	70.000000	nontarget	15.000000	na
64.027734	0.050653	70.000000	nontarget	16.000000	na
64.078387	0.049184	71.000000	nontarget	1.000000	na
64.127571	0.050927	71.000000	nontarget	2.000000	na
64.178498	0.049972	71.000000	nontarget	3.000000	na
64.228470	0.050093	71.000000	nontarget	4.000000	na
64.278563	0.049613	71.000000	nontarget	5.000000	na
64.328175	0.050012	71.000000	nontarget	6.000000	na
64.378187	0.050033	71.000000	nontarget	7.000000	na
64.428220	0.050008	71.000000	nontarget	8.000000	na
64.478228	0.050006	71.000000	nontarget	9.000000	na
64.528235	0.049986	71.000000	nontarget	10.000000	na
64.578221	0.049996	71.000000	nontarget	11.000000	na
64.628216	0.050114	71.000000	nontarget	12.000000	na
64.678331	0.049883	71.000000	nontarget	13.000000	na
64.728213	0.049953	71.000000	nontarget	14.000000	na
64.778166	0.049254	71.000000	nontarget	15.000000	na
64.827420	0.050789	71.000000	nontarget	16.000000	na
64.878209	0.049429	72.000000	nontarget	1.000000	na
64.927638	0.050678	72.000000	nontarget	2.000000	64.943317
64.978316	0.049925	72.000000	nontarget	3.000000	na
65.028241	0.050176	72.000000	nontarget	4.000000	na
65.078417	0.049899	72.000000	nontarget	5.000000	na
65.128316	0.049897	72.000000	nontarget	6.000000	na
65.178214	0.049988	72.000000	nontarget	7.000000	na
65.228202	0.050059	72.000000	nontarget	8.000000	na
65.278261	0.050261	72.000000	nontarget	9.000000	na
65.328522	0.049666	72.000000	nontarget	10.000000	na
65.378188	0.050105	72.000000	nontarget	11.000000	na
65.428293	0.050257	72.000000	nontarget	12.000000	na
65.478550	0.050005	72.000000	nontarget	13.000000	na
65.528555	0.049566	72.000000	nontarget	14.000000	na
65.578121	0.050085	72.000000	nontarget	15.000000	na
65.628206	0.050140	72.000000	nontarget	16.000000	na
65.678346	0.049244	73.000000	nontarget	1.000000	na
65.727590	0.050915	73.000000	nontarget	2.000000	na
65.778506	0.049155	73.000000	nontarget	3.000000	na
65.827661	0.050695	73.000000	nontarget	4.000000	na
65.878355	0.050105	73.000000	nontarget	5.000000	na
65.928461	0.049639	73.000000	nontarget	6.000000	na
65.978099	0.049632	73.000000	nontarget	7.000000	65.984769
66.027731	0.050110	73.000000	nontarget	8.000000	na
66.077841	0.050348	73.000000	nontarget	9.000000	na
66.128189	0.050019	73.000000	nontarget	10.000000	na
66.178208	0.049774	73.000000	nontarget	11.000000	na
66.227982	0.050240	73.000000	nontarget	12.000000	na
66.278222	0.050063	73.000000	nontarget	13.000000	na
66.328285	0.049745	73.000000	nontarget	14.000000	na
66.378030	0.050034	73.000000	nontarget	15.000000	na
66.428064	0.050231	73.000000	nontarget	16.000000	na
66.478295	0.049803	74.000000	nontarget	1.000000	na
66.528098	0.050001	74.000000	nontarget	2.000000	na
66.578100	0.050083	74.000000	nontarget	3.000000	na
66.628183	0.050015	74.000000	nontarget	4.000000	na
66.678198	0.049986	74.000000	nontarget	5.000000	na
66.728184	0.050210	74.000000	nontarget	6.000000	na
66.778394	0.049356	74.000000	nontarget	7.000000	na
66.827750	0.050514	74.000000	nontarget	8.000000	na
66.878264	0.049995	74.000000	nontarget	9.000000	na
66.928260	0.049637	74.000000	nontarget	10.000000	na
66.977897	0.050260	74.000000	nontarget	11.000000	na
67.028157	0.049920	74.000000	nontarget	12.000000	na
67.078077	0.050234	74.000000	nontarget	13.000000	na
67.128311	0.049621	74.000000	nontarget	14.000000	na
67.177932	0.049631	74.000000	nontarget	15.000000	na
67.227563	0.050697	74.000000	nontarget	16.000000	na
67.278259	0.050086	75.000000	target	1.000000	na
67.328346	0.049828	75.000000	target	2.000000	na
67.378173	0.049827	75.000000	target	3.000000	na
67.428001	0.050333	75.000000	target	4.000000	na
67.478334	0.049970	75.000000	target	5.000000	na
67.528304	0.049827	75.000000	target	6.000000	na
67.578130	0.049776	75.000000	target	7.000000	na
67.627907	0.050524	75.000000	target	8.000000	na
67.678431	0.049136	75.000000	target	9.000000	na
67.727567	0.050600	75.000000	target	10.000000	na
67.778167	0.050005	75.000000	target	11.000000	na
67.828172	0.050131	75.000000	target	12.000000	na
67.878303	0.049822	75.000000	target	13.000000	na
67.928125	0.050043	75.000000	target	14.000000	na
67.978167	0.050001	75.000000	target	15.000000	na
68.028169	0.049552	75.000000	target	16.000000	na
68.077721	0.050450	76.000000	nontarget	1.000000	na
68.128171	0.049801	76.000000	nontarget	2.000000	na
68.177971	0.050203	76.000000	nontarget	3.000000	na
68.228174	0.049905	76.000000	nontarget	4.000000	68.255726
68.278079	0.049890	76.000000	nontarget	5.000000	na
68.327969	0.050209	76.000000	nontarget	6.000000	na
68.378179	0.049872	76.000000	nontarget	7.000000	na
68.428050	0.050190	76.000000	nontarget	8.000000	na
68.478240	0.049239	76.000000	nontarget	9.000000	na
68.527479	0.050360	76.000000	nontarget	10.000000	na
68.577839	0.050138	76.000000	nontarget	11.000000	na
68.627977	0.049605	76.000000	nontarget	12.000000	na
68.677582	0.050697	76.000000	nontarget	13.000000	na
68.728279	0.049310	76.000000	nontarget	14.000000	na
68.777589	0.050135	76.000000	nontarget	15.000000	na
68.827724	0.050430	76.000000	nontarget	16.000000	na
68.878154	0.049761	77.000000	nontarget	1.000000	na
68.927915	0.049856	77.000000	nontarget	2.000000	na
68.977771	0.050379	77.000000	nontarget	3.000000	na
69.028150	0.050013	77.000000	nontarget	4.000000	69.056668
69.078163	0.049982	77.000000	nontarget	5.000000	na
69.128144	0.049840	77.000000	nontarget	6.000000	na
69.177984	0.049263	77.000000	nontarget	7.000000	na
69.227247	0.050114	77.000000	nontarget	8.000000	na
69.277361	0.050351	77.000000	nontarget	9.000000	na
69.327711	0.050435	77.000000	nontarget	10.000000	na
69.378146	0.049747	77.000000	nontarget	11.000000	na
69.427894	0.050280	77.000000	nontarget	12.000000	na
69.478174	0.049867	77.000000	nontarget	13.000000	na
69.528041	0.050062	77.000000	nontarget	14.000000	na
69.578103	0.049970	77.000000	nontarget	15.000000	na
69.628073	0.050100	77.000000	nontarget	16.000000	na
69.678173	0.049989	78.000000	target	1.000000	na
69.728162	0.049951	78.000000	target	2.000000	na
69.778112	0.050019	78.000000	target	3.000000	na
69.828131	0.049061	78.000000	target	4.000000	na
69.877192	0.050901	78.000000	target	5.000000	na
69.928094	0.050045	78.000000	target	6.000000	na
69.978139	0.049573	78.000000	target	7.000000	na
70.027711	0.050421	78.000000	target	8.000000	na
70.078132	0.050068	78.000000	target	9.000000	na
70.128201	0.049844	78.000000	target	10.000000	na
70.178045	0.050095	78.000000	target	11.000000	na
70.228140	0.050007	78.000000	target	12.000000	na
70.278146	0.049468	78.000000	target	13.000000	na
70.327614	0.050089	78.000000	target	14.000000	na
70.377703	0.050335	78.000000	target	15.000000	na
70.428038	0.049296	78.000000	target	16.000000	na
70.477334	0.050636	79.000000	nontarget	1.000000	na
70.527969	0.050145	79.000000	nontarget	2.000000	70.555957
70.578114	0.049766	79.000000	nontarget	3.000000	na
70.627880	0.050302	79.000000	nontarget	4.000000	na
70.678182	0.049860	79.000000	nontarget	5.000000	na
70.728042	0.049778	79.000000	nontarget	6.000000	na
70.777820	0.049811	79.000000	nontarget	7.000000	na
70.827631	0.050490	79.000000	nontarget	8.000000	na
70.878121	0.050061	79.000000	nontarget	9.000000	na
70.928182	0.049909	79.000000	nontarget	10.000000	na
70.978092	0.050063	79.000000	nontarget	11.000000	na
71.028154	0.050063	79.000000	nontarget	12.000000	na
71.078217	0.049873	79.000000	nontarget	13.000000	na
71.128090	0.049802	79.000000	nontarget	14.000000	na
71.177892	0.049446	79.000000	nontarget	15.000000	na
71.227338	0.050589	79.000000	nontarget	16.000000	na
71.277928	0.050196	80.000000	nontarget	1.000000	na
71.328123	0.049267	80.000000	nontarget	2.000000	na
71.377390	0.050598	80.000000	nontarget	3.000000	na
71.427988	0.050152	80.000000	nontarget	4.000000	71.434566
71.478140	0.050148	80.000000	nontarget	5.000000	na
71.528288	0.049395	80.000000	nontarget	6.000000	na
71.577683	0.050445	80.000000	nontarget	7.000000	na
71.628128	0.049810	80.000000	nontarget	8.000000	na
71.677939	0.050167	80.000000	nontarget	9.000000	na
71.728105	0.050005	80.000000	nontarget	10.000000	na
71.778110	0.049208	80.000000	nontarget	11.000000	na
71.827318	0.051068	80.000000	nontarget	12.000000	na
71.878386	0.049761	80.000000	nontarget	13.000000	na
71.928146	0.049934	80.000000	nontarget	14.000000	na
71.978081	0.049131	80.000000	nontarget	15.000000	na
72.027212	0.050627	80.000000	nontarget	16.000000	na
72.077839	0.050204	81.000000	nontarget	1.000000	na
72.128042	0.049487	81.000000	nontarget	2.000000	na
72.177530	0.050592	81.000000	nontarget	3.000000	na
72.228122	0.050023	81.000000	nontarget	4.000000	na
72.278145	0.049964	81.000000	nontarget	5.000000	na
72.328109	0.049986	81.000000	nontarget	6.000000	72.339431
72.378095	0.049526	81.000000	nontarget	7.000000	na
72.427621	0.050508	81.000000	nontarget	8.000000	na
72.478128	0.049432	81.000000	nontarget	9.000000	na
72.527560	0.050551	81.000000	nontarget	10.000000	na
72.578111	0.050002	81.000000	nontarget	11.000000	na
72.628113	0.050011	81.000000	nontarget	12.000000	na
72.678124	0.050128	81.000000	nontarget	13.000000	na
72.728252	0.049500	81.000000	nontarget	14.000000	na
72.777752	0.050355	81.000000	nontarget	15.000000	na
72.828107	0.049997	81.000000	nontarget	16.000000	na
72.878104	0.049968	82.000000	nontarget	1.000000	na
72.928072	0.049730	82.000000	nontarget	2.000000	na
72.977802	0.049773	82.000000	nontarget	3.000000	na
73.027575	0.050049	82.000000	nontarget	4.000000	na
73.077625	0.050157	82.000000	nontarget	5.000000	na
73.127781	0.049777	82.000000	nontarget	6.000000	na
73.177558	0.050536	82.000000	nontarget	7.000000	na
73.228094	0.049265	82.000000	nontarget	8.000000	na
73.277360	0.050177	82.000000	nontarget	9.000000	73.283849
73.327536	0.050522	82.000000	nontarget	10.000000	na
73.378058	0.050101	82.000000	nontarget	11.000000	na
73.428159	0.049985	82.000000	nontarget	12.000000	na
73.478144	0.050029	82.000000	nontarget	13.000000	na
73.528172	0.049911	82.000000	nontarget	14.000000	na
73.578084	0.050008	82.000000	nontarget	15.000000	na
73.628092	0.049512	82.000000	nontarget	16.000000	na
73.677603	0.050623	83.000000	nontarget	1.000000	na
73.728226	0.049826	83.000000	nontarget	2.000000	na
73.778052	0.049288	83.000000	nontarget	3.000000	na
73.827340	0.050425	83.000000	nontarget	4.000000	na
73.877765	0.050318	83.000000	nontarget	5.000000	na
73.928082	0.049320	83.000000	nontarget	6.000000	na
73.977402	0.050683	83.000000	nontarget	7.000000	na
74.028086	0.050043	83.000000	nontarget	8.000000	na
74.078129	0.049958	83.000000	nontarget	9.000000	na
74.128087	0.048997	83.000000	nontarget	10.000000	na
74.177084	0.049965	83.000000	nontarget	11.000000	na
74.227049	0.051281	83.000000	nontarget	12.000000	74.233341
74.278330	0.049103	83.000000	nontarget	13.000000	na
74.327434	0.050330	83.000000	nontarget	14.000000	na
74.377764	0.049426	83.000000	nontarget	15.000000	na
74.427189	0.050988	83.000000	nontarget	16.000000	na
74.478177	0.049923	84.000000	nontarget	1.000000	na
74.528100	0.050186	84.000000	nontarget	2.000000	na
74.578286	0.049790	84.000000	nontarget	3.000000	na
74.628077	0.049966	84.000000	nontarget	4.000000	na
74.678042	0.050113	84.000000	nontarget	5.000000	na
74.728155	0.049464	84.000000	nontarget	6.000000	na
74.777619	0.050472	84.000000	nontarget	7.000000	na
74.828091	0.049018	84.000000	nontarget	8.000000	na
74.877109	0.050498	84.000000	nontarget	9.000000	na
74.927607	0.050227	84.000000	nontarget	10.000000	na
74.977834	0.049562	84.000000	nontarget	11.000000	na
75.027396	0.049704	84.000000	nontarget	12.000000	na
75.077099	0.051026	84.000000	nontarget	13.000000	na
75.128125	0.049377	84.000000	nontarget	14.000000	na
75.177502	0.050674	84.000000	nontarget	15.000000	na
75.228176	0.049964	84.000000	nontarget	16.000000	75.239754
75.278141	0.049858	85.000000	nontarget	1.000000	75.284845
75.327999	0.049920	85.000000	nontarget	2.000000	na
75.377918	0.049548	85.000000	nontarget	3.000000	na
75.427466	0.050614	85.000000	nontarget	4.000000	na
75.478080	0.049322	85.000000	nontarget	5.000000	na
75.527402	0.050787	85.000000	nontarget	6.000000	na
75.578189	0.049387	85.000000	nontarget	7.000000	na
75.627576	0.050401	85.000000	nontarget	8.000000	na
75.677977	0.050092	85.000000	nontarget	9.000000	na
75.728069	0.050107	85.000000	nontarget	10.000000	na
75.778177	0.049911	85.000000	nontarget	11.000000	na
75.828088	0.049991	85.000000	nontarget	12.000000	na
75.878079	0.049440	85.000000	nontarget	13.000000	na
75.927519	0.050037	85.000000	nontarget	14.000000	na
75.977556	0.049913	85.000000	nontarget	15.000000	na
76.027469	0.050583	85.000000	nontarget	16.000000	na
76.078052	0.050237	86.000000	nontarget	1.000000	na
76.128289	0.049587	86.000000	nontarget	2.000000	76.152464
76.177876	0.050040	86.000000	nontarget	3.000000	na
76.227916	0.049964	86.000000	nontarget	4.000000	na
76.277880	0.050141	86.000000	nontarget	5.000000	na
76.328021	0.049376	86.000000	nontarget	6.000000	na
76.377397	0.050684	86.000000	nontarget	7.000000	na
76.428081	0.049349	86.000000	nontarget	8.000000	na
76.477430	0.050634	86.000000	nontarget	9.000000	na
76.528064	0.049205	86.000000	nontarget	10.000000	na
76.577269	0.050299	86.000000	nontarget	11.000000	na
76.627568	0.050503	86.000000	nontarget	12.000000	na
76.678071	0.049985	86.000000	nontarget	13.000000	na
76.728056	0.049681	86.000000	nontarget	14.000000	na
76.777737	0.049922	86.000000	nontarget	15.000000	na
76.827659	0.049894	86.000000	nontarget	16.000000	na
76.877552	0.050639	87.000000	nontarget	1.000000	na
76.928191	0.049378	87.000000	nontarget	2.000000	na
76.977569	0.050424	87.000000	nontarget	3.000000	77.010111
77.027993	0.050050	87.000000	nontarget	4.000000	na
77.078043	0.050234	87.000000	nontarget	5.000000	na
77.128276	0.049750	87.000000	nontarget	6.000000	na
77.178027	0.050016	87.000000	nontarget	7.000000	na
77.228043	0.049109	87.000000	nontarget	8.000000	na
77.277152	0.050258	87.000000	nontarget	9.000000	na
77.327409	0.050453	87.000000	nontarget	10.000000	na
77.377862	0.050439	87.000000	nontarget	11.000000	na
77.428301	0.049173	87.000000	nontarget	12.000000	na
77.477474	0.050298	87.000000	nontarget	13.000000	na
77.527772	0.050264	87.000000	nontarget	14.000000	na
77.578037	0.050029	87.000000	nontarget	15.000000	na
77.628065	0.049999	87.000000	nontarget	16.000000	na
77.678064	0.049994	88.000000	nontarget	1.000000	na
77.728058	0.049949	88.000000	nontarget	2.000000	na
77.778006	0.050024	88.000000	nontarget	3.000000	na
77.828030	0.050215	88.000000	nontarget	4.000000	na
77.878246	0.050023	88.000000	nontarget	5.000000	na
77.928269	0.049692	88.000000	nontarget	6.000000	na
77.977961	0.050325	88.000000	nontarget	7.000000	77.984100
78.028286	0.048726	88.000000	nontarget	8.000000	na
78.077013	0.051040	88.000000	nontarget	9.000000	na
78.128053	0.049977	88.000000	nontarget	10.000000	na
78.178030	0.050095	88.000000	nontarget	11.000000	na
78.228125	0.049260	88.000000	nontarget	12.000000	na
78.277385	0.049929	88.000000	nontarget	13.000000	na
78.327314	0.050283	88.000000	nontarget	14.000000	na
78.377597	0.050522	88.000000	nontarget	15.000000	na
78.428119	0.049582	88.000000	nontarget	16.000000	na
78.477701	0.050509	89.000000	nontarget	1.000000	na
78.528210	0.049915	89.000000	nontarget	2.000000	na
78.578124	0.050104	89.000000	nontarget	3.000000	na
78.628229	0.049275	89.000000	nontarget	4.000000	na
78.677504	0.049919	89.000000	nontarget	5.000000	na
78.727423	0.050113	89.000000	nontarget	6.000000	na
78.777536	0.050486	89.000000	nontarget	7.000000	na
78.828022	0.049994	89.000000	nontarget	8.000000	na
78.878016	0.050044	89.000000	nontarget	9.000000	na
78.928060	0.050029	89.000000	nontarget	10.000000	na
78.978089	0.050217	89.000000	nontarget	11.000000	na
79.028305	0.049626	89.000000	nontarget	12.000000	na
79.077931	0.050343	89.000000	nontarget	13.000000	na
79.128274	0.049839	89.000000	nontarget	14.000000	79.144172
79.178113	0.049972	89.000000	nontarget	15.000000	na
79.228085	0.050362	89.000000	nontarget	16.000000	na
79.278447	0.049754	90.000000	nontarget	1.000000	na
79.328201	0.049568	90.000000	nontarget	2.000000	na
79.377769	0.049730	90.000000	nontarget	3.000000	na
79.427498	0.050731	90.000000	nontarget	4.000000	na
79.478229	0.049674	90.000000	nontarget	5.000000	na
79.527904	0.050065	90.000000	nontarget	6.000000	na
79.577969	0.049756	90.000000	nontarget	7.000000	na
79.627725	0.050397	90.000000	nontarget	8.000000	na
79.678122	0.049946	90.000000	nontarget	9.000000	na
79.728069	0.049946	90.000000	nontarget	10.000000	na
79.778015	0.049992	90.000000	nontarget	11.000000	na
79.828007	0.049552	90.000000	nontarget	12.000000	na
79.877559	0.050576	90.000000	nontarget	13.000000	na
79.928135	0.049252	90.000000	nontarget	14.000000	na
79.977387	0.050831	90.000000	nontarget	15.000000	na
80.028218	0.049918	90.000000	nontarget	16.000000	na
80.078136	0.049266	91.000000	nontarget	1.000000	80.101966
80.127401	0.050535	91.000000	nontarget	2.000000	na
80.177936	0.050086	91.000000	nontarget	3.000000	na
80.228022	0.050357	91.000000	nontarget	4.000000	na
80.278379	0.049324	91.000000	nontarget	5.000000	na
80.327704	0.049985	91.000000	nontarget	6.000000	na
80.377689	0.050328	91.000000	nontarget	7.000000	na
80.428017	0.050363	91.000000	nontarget	8.000000	na
80.478380	0.049199	91.000000	nontarget	9.000000	na
80.527579	0.050834	91.000000	nontarget	10.000000	na
80.578413	0.049201	91.000000	nontarget	11.000000	na
80.627614	0.050349	91.000000	nontarget	12.000000	na
80.677963	0.049901	91.000000	nontarget	13.000000	na
80.727864	0.050365	91.000000	nontarget	14.000000	na
80.778228	0.050145	91.000000	nontarget	15.000000	na
80.828373	0.049620	91.000000	nontarget	16.000000	na
80.877993	0.050272	92.000000	nontarget	1.000000	na
80.928265	0.049921	92.000000	nontarget	2.000000	na
80.978186	0.049986	92.000000	nontarget	3.000000	80.984718
81.028172	0.049858	92.000000	nontarget	4.000000	na
81.078030	0.049964	92.000000	nontarget	5.000000	na
81.127994	0.050300	92.000000	nontarget	6.000000	na
81.178293	0.049577	92.000000	nontarget	7.000000	na
81.227870	0.050129	92.000000	nontarget	8.000000	na
81.277999	0.050084	92.000000	nontarget	9.000000	na
81.328083	0.049887	92.000000	nontarget	10.000000	na
81.377970	0.050000	92.000000	nontarget	11.000000	na
81.427970	0.050002	92.000000	nontarget	12.000000	na
81.477972	0.049825	92.000000	nontarget	13.000000	na
81.527797	0.050167	92.000000	nontarget	14.000000	na
81.577964	0.050013	92.000000	nontarget	15.000000	na
81.627977	0.049602	92.000000	nontarget	16.000000	na
81.677579	0.050021	93.000000	nontarget	1.000000	na
81.727600	0.050481	93.000000	nontarget	2.000000	na
81.778081	0.049652	93.000000	nontarget	3.000000	na
81.827733	0.050249	93.000000	nontarget	4.000000	na
81.877982	0.050000	93.000000	nontarget	5.000000	81.884601
81.927983	0.049971	93.000000	nontarget	6.000000	na
81.977953	0.049229	93.000000	nontarget	7.000000	na
82.027182	0.051152	93.000000	nontarget	8.000000	na
82.078334	0.049132	93.000000	nontarget	9.000000	na
82.127467	0.050688	93.000000	nontarget	10.000000	na
82.178154	0.049796	93.000000	nontarget	11.000000	na
82.227950	0.050341	93.000000	nontarget	12.000000	na
82.278291	0.049586	93.000000	nontarget	13.000000	na
82.327877	0.050109	93.000000	nontarget	14.000000	na
82.377986	0.050037	93.000000	nontarget	15.000000	na
82.428023	0.050314	93.000000	nontarget	16.000000	na
82.478337	0.049947	94.000000	nontarget	1.000000	na
82.528283	0.049443	94.000000	nontarget	2.000000	na
82.577727	0.050241	94.000000	nontarget	3.000000	na
82.627968	0.049813	94.000000	nontarget	4.000000	na
82.677781	0.050170	94.000000	nontarget	5.000000	na
82.727950	0.049931	94.000000	nontarget	6.000000	na
82.777882	0.050055	94.000000	nontarget	7.000000	na
82.827937	0.049843	94.000000	nontarget	8.000000	na
82.877780	0.050317	94.000000	nontarget	9.000000	na
82.928097	0.049374	94.000000	nontarget	10.000000	na
82.977472	0.050259	94.000000	nontarget	11.000000	na
83.027730	0.049636	94.000000	nontarget	12.000000	83.034640
83.077366	0.050039	94.000000	nontarget	13.000000	na
83.127405	0.050427	94.000000	nontarget	14.000000	na
83.177832	0.049890	94.000000	nontarget	15.000000	na
83.227723	0.049956	94.000000	nontarget	16.000000	na
83.277678	0.050089	95.000000	nontarget	1.000000	na
83.327767	0.049831	95.000000	nontarget	2.000000	na
83.377598	0.050148	95.000000	nontarget	3.000000	na
83.427746	0.050207	95.000000	nontarget	4.000000	na
83.477953	0.050186	95.000000	nontarget	5.000000	na
83.528139	0.049819	95.000000	nontarget	6.000000	na
83.577958	0.049828	95.000000	nontarget	7.000000	na
83.627787	0.049233	95.000000	nontarget	8.000000	na
83.677019	0.050330	95.000000	nontarget	9.000000	na
83.727349	0.050459	95.000000	nontarget	10.000000	na
83.777808	0.049689	95.000000	nontarget	11.000000	na
83.827496	0.050560	95.000000	nontarget	12.000000	na
83.878056	0.050032	95.000000	nontarget	13.000000	na
83.928088	0.049795	95.000000	nontarget	14.000000	na
83.977883	0.049873	95.000000	nontarget	15.000000	na
84.027756	0.050015	95.000000	nontarget	16.000000	84.034326
84.077771	0.050188	96.000000	nontarget	1.000000	84.084423
84.127959	0.050185	96.000000	nontarget	2.000000	na
84.178144	0.049791	96.000000	nontarget	3.000000	na
84.227935	0.049618	96.000000	nontarget	4.000000	na
84.277553	0.050388	96.000000	nontarget	5.000000	na
84.327941	0.050230	96.000000	nontarget	6.000000	na
84.378171	0.049482	96.000000	nontarget	7.000000	na
84.427653	0.050293	96.000000	nontarget	8.000000	na
84.477946	0.049903	96.000000	nontarget	9.000000	na
84.527850	0.050045	96.000000	nontarget	10.000000	na
84.577895	0.050064	96.000000	nontarget	11.000000	na
84.627959	0.049971	96.000000	nontarget	12.000000	na
84.677930	0.050111	96.000000	nontarget	13.000000	na
84.728041	0.049775	96.000000	nontarget	14.000000	na
84.777816	0.050128	96.000000	nontarget	15.000000	na
84.827944	0.049990	96.000000	nontarget	16.000000	na
84.877935	0.050006	97.000000	nontarget	1.000000	na
84.927940	0.049992	97.000000	nontarget	2.000000	na
84.977933	0.049576	97.000000	nontarget	3.000000	85.002722
85.027509	0.050246	97.000000	nontarget	4.000000	na
85.077755	0.050179	97.000000	nontarget	5.000000	na
85.127934	0.049682	97.000000	nontarget	6.000000	na
85.177616	0.050431	97.000000	nontarget	7.000000	na
85.228047	0.050088	97.000000	nontarget	8.000000	na
85.278135	0.050014	97.000000	nontarget	9.000000	na
85.328149	0.049409	97.000000	nontarget	10.000000	na
85.377558	0.050315	97.000000	nontarget	11.000000	na
85.427874	0.049843	97.000000	nontarget	12.000000	na
85.477716	0.050205	97.000000	nontarget	13.000000	na
85.527921	0.050012	97.000000	nontarget	14.000000	na
85.577933	0.049987	97.000000	nontarget	15.000000	na
85.627920	0.049096	97.000000	nontarget	16.000000	na
85.677016	0.050824	98.000000	nontarget	1.000000	na
85.727840	0.049399	98.000000	nontarget	2.000000	na
85.777238	0.050533	98.000000	nontarget	3.000000	na
85.827771	0.050210	98.000000	nontarget	4.000000	na
85.877981	0.049526	98.000000	nontarget	5.000000	na
85.927508	0.050345	98.000000	nontarget	6.000000	na
85.977853	0.049970	98.000000	nontarget	7.000000	na
86.027823	0.050116	98.000000	nontarget	8.000000	86.058529
86.077939	0.050136	98.000000	nontarget	9.000000	na
86.128076	0.050142	98.000000	nontarget	10.000000	na
86.178218	0.049169	98.000000	nontarget	11.000000	na
86.227387	0.050551	98.000000	nontarget	12.000000	na
86.277938	0.049837	98.000000	nontarget	13.000000	na
86.327775	0.050157	98.000000	nontarget	14.000000	na
86.377932	0.049998	98.000000	nontarget	15.000000	na
86.427929	0.049235	98.000000	nontarget	16.000000	na
86.477165	0.050973	99.000000	nontarget	1.000000	na
86.528138	0.049792	99.000000	nontarget	2.000000	na
86.577930	0.050010	99.000000	nontarget	3.000000	na
86.627940	0.049812	99.000000	nontarget	4.000000	na
86.677752	0.050125	99.000000	nontarget	5.000000	na
86.727877	0.050052	99.000000	nontarget	6.000000	na
86.777929	0.049708	99.000000	nontarget	7.000000	na
86.827637	0.049381	99.000000	nontarget	8.000000	na
86.877018	0.050262	99.000000	nontarget	9.000000	na
86.927280	0.050761	99.000000	nontarget	10.000000	na
86.978041	0.049259	99.000000	nontarget	11.000000	na
87.027300	0.050538	99.000000	nontarget	12.000000	na
87.077839	0.050139	99.000000	nontarget	13.000000	na
87.127978	0.048973	99.000000	nontarget	14.000000	na
87.176951	0.050785	99.000000	nontarget	15.000000	87.183543
87.227736	0.050121	99.000000	nontarget	16.000000	na
87.277857	0.049528	100.000000	nontarget	1.000000	87.284422
87.327385	0.050662	100.000000	nontarget	2.000000	na
87.378047	0.049777	100.000000	nontarget	3.000000	na
87.427824	0.049771	100.000000	nontarget	4.000000	na
87.477595	0.050271	100.000000	nontarget	5.000000	na
87.527866	0.050088	100.000000	nontarget	6.000000	na
87.577954	0.049964	100.000000	nontarget	7.000000	na
87.627918	0.049757	100.000000	nontarget	8.000000	na
87.677675	0.050019	100.000000	nontarget	9.000000	na
87.727693	0.050047	100.000000	nontarget	10.000000	na
87.777740	0.049599	100.000000	nontarget	11.000000	na
87.827340	0.050068	100.000000	nontarget	12.000000	na
87.877408	0.049930	100.000000	nontarget	13.000000	na
87.927338	0.050504	100.000000	nontarget	14.000000	na
87.977842	0.049905	100.000000	nontarget	15.000000	88.009791
88.027748	0.049273	100.000000	nontarget	16.000000	na
88.077021	0.050994	101.000000	nontarget	1.000000	88.083653
88.128016	0.049341	101.000000	nontarget	2.000000	na
88.177356	0.049757	101.000000	nontarget	3.000000	na
88.227113	0.050089	101.000000	nontarget	4.000000	na
88.277202	0.050853	101.000000	nontarget	5.000000	na
88.328055	0.049876	101.000000	nontarget	6.000000	na
88.377931	0.049996	101.000000	nontarget	7.000000	na
88.427927	0.049834	101.000000	nontarget	8.000000	na
88.477761	0.050146	101.000000	nontarget	9.000000	na
88.527907	0.050124	101.000000	nontarget	10.000000	na
88.578032	0.049216	101.000000	nontarget	11.000000	na
88.627247	0.050616	101.000000	nontarget	12.000000	na
88.677863	0.049572	101.000000	nontarget	13.000000	na
88.727436	0.050460	101.000000	nontarget	14.000000	na
88.777896	0.050013	101.000000	nontarget	15.000000	na
88.827909	0.049104	101.000000	nontarget	16.000000	na
88.877013	0.050792	102.000000	target	1.000000	na
88.927805	0.049169	102.000000	target	2.000000	na
88.976974	0.050129	102.000000	target	3.000000	na
89.027103	0.050571	102.000000	target	4.000000	na
89.077673	0.050155	102.000000	target	5.000000	na
89.127828	0.050026	102.000000	target	6.000000	na
89.177854	0.050211	102.000000	target	7.000000	na
89.228065	0.049049	102.000000	target	8.000000	na
89.277114	0.050791	102.000000	target	9.000000	na
89.327905	0.049880	102.000000	target	10.000000	na
89.377784	0.049779	102.000000	target	11.000000	na
89.427563	0.050336	102.000000	target	12.000000	na
89.477899	0.049858	102.000000	target	13.000000	na
89.527757	0.049981	102.000000	target	14.000000	na
89.577739	0.050299	102.000000	target	15.000000	na
89.628037	0.048872	102.000000	target	16.000000	89.663803
89.676909	0.050973	103.000000	nontarget	1.000000	89.683560
89.727882	0.050006	103.000000	nontarget	2.000000	na
89.777889	0.049792	103.000000	nontarget	3.000000	na
89.827680	0.049672	103.000000	nontarget	4.000000	na
89.877352	0.050517	103.000000	nontarget	5.000000	na
89.927868	0.050019	103.000000	nontarget	6.000000	na
89.977888	0.049878	103.000000	nontarget	7.000000	na
90.027765	0.049057	103.000000	nontarget	8.000000	na
90.076822	0.050920	103.000000	nontarget	9.000000	na
90.127742	0.050207	103.000000	nontarget	10.000000	na
90.177950	0.049936	103.000000	nontarget	11.000000	na
90.227886	0.050141	103.000000	nontarget	12.000000	na
90.278026	0.049352	103.000000	nontarget	13.000000	na
90.327378	0.050025	103.000000	nontarget	14.000000	na
90.377403	0.050197	103.000000	nontarget	15.000000	na
90.427600	0.050064	103.000000	nontarget	16.000000	na
90.477664	0.050130	104.000000	nontarget	1.000000	na
90.527794	0.049283	104.000000	nontarget	2.000000	na
90.577077	0.050794	104.000000	nontarget	3.000000	na
90.627871	0.050017	104.000000	nontarget	4.000000	na
90.677888	0.049993	104.000000	nontarget	5.000000	na
90.727881	0.049990	104.000000	nontarget	6.000000	na
90.777871	0.049753	104.000000	nontarget	7.000000	na
90.827624	0.050103	104.000000	nontarget	8.000000	na
90.877727	0.049689	104.000000	nontarget	9.000000	na
90.927416	0.049704	104.000000	nontarget	10.000000	na
90.977120	0.050762	104.000000	nontarget	11.000000	90.983121
91.027882	0.049228	104.000000	nontarget	12.000000	na
91.077110	0.050196	104.000000	nontarget	13.000000	na
91.127306	0.050346	104.000000	nontarget	14.000000	na
91.177652	0.049985	104.000000	nontarget	15.000000	na
91.227637	0.050224	104.000000	nontarget	16.000000	na
91.277861	0.050003	105.000000	nontarget	1.000000	na
91.327865	0.050009	105.000000	nontarget	2.000000	na
91.377874	0.049103	105.000000	nontarget	3.000000	na
91.426977	0.050015	105.000000	nontarget	4.000000	na
91.476992	0.050904	105.000000	nontarget	5.000000	na
91.527896	0.049248	105.000000	nontarget	6.000000	na
91.577144	0.050723	105.000000	nontarget	7.000000	na
91.627867	0.049497	105.000000	nontarget	8.000000	na
91.677364	0.050154	105.000000	nontarget	9.000000	na
91.727517	0.050007	105.000000	nontarget	10.000000	na
91.777524	0.049924	105.000000	nontarget	11.000000	na
91.827448	0.050425	105.000000	nontarget	12.000000	na
91.877872	0.049983	105.000000	nontarget	13.000000	na
91.927856	0.050050	105.000000	nontarget	14.000000	na
91.977906	0.049742	105.000000	nontarget	15.000000	na
92.027647	0.050211	105.000000	nontarget	16.000000	92.055171
92.077858	0.049969	106.000000	nontarget	1.000000	92.084402
92.127827	0.049538	106.000000	nontarget	2.000000	na
92.177365	0.050445	106.000000	nontarget	3.000000	na
92.227809	0.050113	106.000000	nontarget	4.000000	na
92.277922	0.049930	106.000000	nontarget	5.000000	na
92.327853	0.049964	106.000000	nontarget	6.000000	na
92.377817	0.050003	106.000000	nontarget	7.000000	na
92.427819	0.050190	106.000000	nontarget	8.000000	na
92.478010	0.049796	106.000000	nontarget	9.000000	na
92.527806	0.050005	106.000000	nontarget	10.000000	na
92.577811	0.050040	106.000000	nontarget	11.000000	na
92.627851	0.049515	106.000000	nontarget	12.000000	na
92.677367	0.050487	106.000000	nontarget	13.000000	na
92.727854	0.049201	106.000000	nontarget	14.000000	na
92.777055	0.050938	106.000000	nontarget	15.000000	na
92.827993	0.049848	106.000000	nontarget	16.000000	na
92.877841	0.049316	107.000000	nontarget	1.000000	na
92.927157	0.050669	107.000000	nontarget	2.000000	na
92.977826	0.049279	107.000000	nontarget	3.000000	na
93.027105	0.050762	107.000000	nontarget	4.000000	na
93.077867	0.049706	107.000000	nontarget	5.000000	na
93.127573	0.050087	107.000000	nontarget	6.000000	na
93.177661	0.049260	107.000000	nontarget	7.000000	93.183412
93.226920	0.050883	107.000000	nontarget	8.000000	na
93.277803	0.049994	107.000000	nontarget	9.000000	na
93.327797	0.050015	107.000000	nontarget	10.000000	na
93.377812	0.050012	107.000000	nontarget	11.000000	na
93.427823	0.049216	107.000000	nontarget	12.000000	na
93.477039	0.051098	107.000000	nontarget	13.000000	na
93.528137	0.049973	107.000000	nontarget	14.000000	na
93.578110	0.049709	107.000000	nontarget	15.000000	na
93.627819	0.050189	107.000000	nontarget	16.000000	na
93.678008	0.049982	108.000000	nontarget	1.000000	na
93.727989	0.049697	108.000000	nontarget	2.000000	na
93.777686	0.050037	108.000000	nontarget	3.000000	na
93.827723	0.050067	108.000000	nontarget	4.000000	na
93.877790	0.050033	108.000000	nontarget	5.000000	na
93.927824	0.049979	108.000000	nontarget	6.000000	na
93.977802	0.049782	108.000000	nontarget	7.000000	na
94.027584	0.050423	108.000000	nontarget	8.000000	na
94.078007	0.049831	108.000000	nontarget	9.000000	na
94.127838	0.049356	108.000000	nontarget	10.000000	na
94.177194	0.050923	108.000000	nontarget	11.000000	na
94.228116	0.048904	108.000000	nontarget	12.000000	na
94.277020	0.051099	108.000000	nontarget	13.000000	na
94.328119	0.050027	108.000000	nontarget	14.000000	94.351765
94.378145	0.049598	108.000000	nontarget	15.000000	na
94.427744	0.050092	108.000000	nontarget	16.000000	na
94.477835	0.049402	109.000000	nontarget	1.000000	94.484487
94.527237	0.050435	109.000000	nontarget	2.000000	na
94.577672	0.049817	109.000000	nontarget	3.000000	na
94.627489	0.050273	109.000000	nontarget	4.000000	na
94.677762	0.049979	109.000000	nontarget	5.000000	na
94.727742	0.050051	109.000000	nontarget	6.000000	na
94.777792	0.049941	109.000000	nontarget	7.000000	na
94.827734	0.050092	109.000000	nontarget	8.000000	na
94.877825	0.049523	109.000000	nontarget	9.000000	na
94.927348	0.050446	109.000000	nontarget	10.000000	na
94.977794	0.049979	109.000000	nontarget	11.000000	na
95.027773	0.049917	109.000000	nontarget	12.000000	na
95.077690	0.050349	109.000000	nontarget	13.000000	na
95.128039	0.049746	109.000000	nontarget	14.000000	na
95.177784	0.049915	109.000000	nontarget	15.000000	na
95.227700	0.050439	109.000000	nontarget	16.000000	na
95.278138	0.049057	110.000000	target	1.000000	na
95.327195	0.050922	110.000000	target	2.000000	na
95.378117	0.049371	110.000000	target	3.000000	na
95.427488	0.049547	110.000000	target	4.000000	na
95.477036	0.050762	110.000000	target	5.000000	na
95.527798	0.050134	110.000000	target	6.000000	na
95.577931	0.049949	110.000000	target	7.000000	na
95.627880	0.050135	110.000000	target	8.000000	na
95.678015	0.050071	110.000000	target	9.000000	na
95.728086	0.049619	110.000000	target	10.000000	na
95.777705	0.050121	110.000000	target	11.000000	na
95.827827	0.050202	110.000000	target	12.000000	na
95.878029	0.049751	110.000000	target	13.000000	na
95.927780	0.050009	110.000000	target	14.000000	na
95.977789	0.049975	110.000000	target	15.000000	na
96.027764	0.050019	110.000000	target	16.000000	na
96.077784	0.050226	111.000000	nontarget	1.000000	na
96.128010	0.049816	111.000000	nontarget	2.000000	96.139374
96.177826	0.049941	111.000000	nontarget	3.000000	na
96.227767	0.050194	111.000000	nontarget	4.000000	na
96.277961	0.049404	111.000000	nontarget	5.000000	na
96.327365	0.050417	111.000000	nontarget	6.000000	na
96.377782	0.050183	111.000000	nontarget	7.000000	na
96.427965	0.049124	111.000000	nontarget	8.000000	na
96.477089	0.050815	111.000000	nontarget	9.000000	na
96.527905	0.050124	111.000000	nontarget	10.000000	na
96.578029	0.049799	111.000000	nontarget	11.000000	na
96.627828	0.049222	111.000000	nontarget	12.000000	na
96.677050	0.050538	111.000000	nontarget	13.000000	na
96.727588	0.050186	111.000000	nontarget	14.000000	na
96.777774	0.049675	111.000000	nontarget	15.000000	na
96.827450	0.050304	111.000000	nontarget	16.000000	na
96.877753	0.050030	112.000000	nontarget	1.000000	na
96.927783	0.050378	112.000000	nontarget	2.000000	na
96.978161	0.049811	112.000000	nontarget	3.000000	na
97.027972	0.050134	112.000000	nontarget	4.000000	na
97.078106	0.049906	112.000000	nontarget	5.000000	97.084948
97.128012	0.049770	112.000000	nontarget	6.000000	na
97.177782	0.050065	112.000000	nontarget	7.000000	na
97.227847	0.049709	112.000000	nontarget	8.000000	na
97.277556	0.050410	112.000000	nontarget	9.000000	na
97.327966	0.049912	112.000000	nontarget	10.000000	na
97.377878	0.049886	112.000000	nontarget	11.000000	na
97.427765	0.049977	112.000000	nontarget	12.000000	na
97.477742	0.049900	112.000000	nontarget	13.000000	na
97.527642	0.049633	112.000000	nontarget	14.000000	na
97.577274	0.050480	112.000000	nontarget	15.000000	na
97.627755	0.050055	112.000000	nontarget	16.000000	na
97.677810	0.049774	113.000000	nontarget	1.000000	na
97.727584	0.050176	113.000000	nontarget	2.000000	na
97.777760	0.049844	113.000000	nontarget	3.000000	na
97.827604	0.049778	113.000000	nontarget	4.000000	na
97.877382	0.050255	113.000000	nontarget	5.000000	na
97.927637	0.050005	113.000000	nontarget	6.000000	na
97.977642	0.050109	113.000000	nontarget	7.000000	na
98.027752	0.050234	113.000000	nontarget	8.000000	na
98.077986	0.049764	113.000000	nontarget	9.000000	na
98.127750	0.050120	113.000000	nontarget	10.000000	98.143319
98.177869	0.050124	113.000000	nontarget	11.000000	na
98.227993	0.049887	113.000000	nontarget	12.000000	na
98.277881	0.049957	113.000000	nontarget	13.000000	na
98.327838	0.049293	113.000000	nontarget	14.000000	na
98.377131	0.050840	113.000000	nontarget	15.000000	na
98.427971	0.049894	113.000000	nontarget	16.000000	na
98.477865	0.049708	114.000000	nontarget	1.000000	na
98.527573	0.049833	114.000000	nontarget	2.000000	na
98.577406	0.050307	114.000000	nontarget	3.000000	na
98.627713	0.049376	114.000000	nontarget	4.000000	na
98.677089	0.039244	114.000000	nontarget	5.000000	na
98.716333	0.044368	114.000000	nontarget	6.000000	na
98.760701	0.050052	114.000000	nontarget	7.000000	na
98.810753	0.049651	114.000000	nontarget	8.000000	na
98.860405	0.050292	114.000000	nontarget	9.000000	na
98.910696	0.050390	114.000000	nontarget	10.000000	na
98.961086	0.049595	114.000000	nontarget	11.000000	na
99.010681	0.039493	114.000000	nontarget	12.000000	na
99.050174	0.043244	114.000000	nontarget	13.000000	na
99.093419	0.050983	114.000000	nontarget	14.000000	99.108575
99.144401	0.049216	114.000000	nontarget	15.000000	na
99.193617	0.050673	114.000000	nontarget	16.000000	na
99.244290	0.050113	115.000000	nontarget	1.000000	99.250920
99.294403	0.050080	115.000000	nontarget	2.000000	na
99.344483	0.049935	115.000000	nontarget	3.000000	na
99.394419	0.049519	115.000000	nontarget	4.000000	na
99.443938	0.050663	115.000000	nontarget	5.000000	na
99.494601	0.049837	115.000000	nontarget	6.000000	na
99.544438	0.049944	115.000000	nontarget	7.000000	na
99.594383	0.050029	115.000000	nontarget	8.000000	na
99.644412	0.049496	115.000000	nontarget	9.000000	na
99.693908	0.049861	115.000000	nontarget	10.000000	na
99.743769	0.050235	115.000000	nontarget	11.000000	na
99.794004	0.050400	115.000000	nontarget	12.000000	na
99.844404	0.050023	115.000000	nontarget	13.000000	na
99.894427	0.049970	115.000000	nontarget	14.000000	na
99.944397	0.049679	115.000000	nontarget	15.000000	na
99.994076	0.039106	115.000000	nontarget	16.000000	na
100.033182	0.044225	116.000000	nontarget	1.000000	na
100.077408	0.050329	116.000000	nontarget	2.000000	na
100.127737	0.049127	116.000000	nontarget	3.000000	na
100.176864	0.050734	116.000000	nontarget	4.000000	100.183243
100.227597	0.050133	116.000000	nontarget	5.000000	na
100.277731	0.050153	116.000000	nontarget	6.000000	na
100.327884	0.049836	116.000000	nontarget	7.000000	na
100.377720	0.050004	116.000000	nontarget	8.000000	na
100.427724	0.050183	116.000000	nontarget	9.000000	na
100.477907	0.049587	116.000000	nontarget	10.000000	na
100.527494	0.050132	116.000000	nontarget	11.000000	na
100.577626	0.050113	116.000000	nontarget	12.000000	na
100.627739	0.049311	116.000000	nontarget	13.000000	na
100.677050	0.050474	116.000000	nontarget	14.000000	na
100.727524	0.049751	116.000000	nontarget	15.000000	na
100.777276	0.049700	116.000000	nontarget	16.000000	na
100.826976	0.050361	117.000000	nontarget	1.000000	na
100.877338	0.050374	117.000000	nontarget	2.000000	na
100.927712	0.050010	117.000000	nontarget	3.000000	na
100.977721	0.050032	117.000000	nontarget	4.000000	na
101.027754	0.049288	117.000000	nontarget	5.000000	na
101.077042	0.050674	117.000000	nontarget	6.000000	101.083224
101.127716	0.050034	117.000000	nontarget	7.000000	na
101.177750	0.049881	117.000000	nontarget	8.000000	na
101.227631	0.050404	117.000000	nontarget	9.000000	na
101.278035	0.048907	117.000000	nontarget	10.000000	na
101.326942	0.050912	117.000000	nontarget	11.000000	na
101.377853	0.049109	117.000000	nontarget	12.000000	na
101.426962	0.050924	117.000000	nontarget	13.000000	na
101.477886	0.049812	117.000000	nontarget	14.000000	na
101.527698	0.049718	117.000000	nontarget	15.000000	na
101.577416	0.050301	117.000000	nontarget	16.000000	na
101.627717	0.049995	118.000000	target	1.000000	na
101.677712	0.049978	118.000000	target	2.000000	na
101.727690	0.049599	118.000000	target	3.000000	na
101.777289	0.050440	118.000000	target	4.000000	na
101.827729	0.049362	118.000000	target	5.000000	na
101.877091	0.050300	118.000000	target	6.000000	na
101.927391	0.050443	118.000000	target	7.000000	na
101.977834	0.049279	118.000000	target	8.000000	na
102.027112	0.049985	118.000000	target	9.000000	na
102.077097	0.049993	118.000000	target	10.000000	na
102.127090	0.050628	118.000000	target	11.000000	na
102.177718	0.049857	118.000000	target	12.000000	na
102.227575	0.049630	118.000000	target	13.000000	na
102.277205	0.050636	118.000000	target	14.000000	na
102.327841	0.049257	118.000000	target	15.000000	na
102.377098	0.050471	118.000000	target	16.000000	na
102.427569	0.050102	119.000000	nontarget	1.000000	na
102.477671	0.049866	119.000000	nontarget	2.000000	102.483645
102.527537	0.049805	119.000000	nontarget	3.000000	na
102.577342	0.050375	119.000000	nontarget	4.000000	na
102.627716	0.049073	119.000000	nontarget	5.000000	na
102.676790	0.050999	119.000000	nontarget	6.000000	na
102.727788	0.049901	119.000000	nontarget	7.000000	na
102.777690	0.050011	119.000000	nontarget	8.000000	na
102.827701	0.050045	119.000000	nontarget	9.000000	na
102.877746	0.049688	119.000000	nontarget	10.000000	na
102.927434	0.049930	119.000000	nontarget	11.000000	na
102.977364	0.049834	119.000000	nontarget	12.000000	na
103.027198	0.049870	119.000000	nontarget	13.000000	na
103.077068	0.050853	119.000000	nontarget	14.000000	na
103.127921	0.049242	119.000000	nontarget	15.000000	na
103.177163	0.050538	119.000000	nontarget	16.000000	na
103.227701	0.049815	120.000000	nontarget	1.000000	103.243107
103.277517	0.049997	120.000000	nontarget	2.000000	na
103.327514	0.049989	120.000000	nontarget	3.000000	na
103.377503	0.050219	120.000000	nontarget	4.000000	na
103.427723	0.048998	120.000000	nontarget	5.000000	na
103.476721	0.039736	120.000000	nontarget	6.000000	na
103.516456	0.044790	120.000000	nontarget	7.000000	na
103.561246	0.049473	120.000000	nontarget	8.000000	na
103.610720	0.050190	120.000000	nontarget	9.000000	na
103.660910	0.049981	120.000000	nontarget	10.000000	na
103.710891	0.050134	120.000000	nontarget	11.000000	na
103.761025	0.049042	120.000000	nontarget	12.000000	na
103.810067	0.050385	120.000000	nontarget	13.000000	na
103.860452	0.050373	120.000000	nontarget	14.000000	na
103.910825	0.050133	120.000000	nontarget	15.000000	na
103.960957	0.049993	120.000000	nontarget	16.000000	103.967441
104.010950	0.050061	121.000000	nontarget	1.000000	104.017587
104.061011	0.050004	121.000000	nontarget	2.000000	na
104.111015	0.049879	121.000000	nontarget	3.000000	na
104.160894	0.050112	121.000000	nontarget	4.000000	na
104.211006	0.050042	121.000000	nontarget	5.000000	na
104.261048	0.049920	121.000000	nontarget	6.000000	na
104.310968	0.049440	121.000000	nontarget	7.000000	na
104.360408	0.050598	121.000000	nontarget	8.000000	na
104.411006	0.050084	121.000000	nontarget	9.000000	na
104.461089	0.049290	121.000000	nontarget	10.000000	na
104.510379	0.050619	121.000000	nontarget	11.000000	na
104.560998	0.050203	121.000000	nontarget	12.000000	na
