onset	duration	event	trial_number	trial_type	requested_SOA	actual_SOA	accuracy	resp1	resp2	rt1	rt2
8.017192	0.500000	fixation	1.000000	na	na	na	na	na	na	na	na
8.517192	1.500000	stimulus	1.000000	no_signal	0.000000	0.000000	correct	right	no_response	0.533000	0.000000
10.017192	0.500000	fixation	2.000000	na	na	na	na	na	na	na	na
10.517192	1.499000	stimulus	2.000000	no_signal	0.000000	0.000000	correct	right	no_response	0.895000	0.000000
12.016192	0.501000	fixation	3.000000	na	na	na	na	na	na	na	na
12.517192	1.499000	stimulus	3.000000	no_signal	0.000000	0.000000	correct	right	no_response	0.974000	0.000000
14.016192	0.501000	fixation	4.000000	na	na	na	na	na	na	na	na
14.517192	1.500000	stimulus	4.000000	no_signal	0.000000	0.000000	correct	right	no_response	0.962000	0.000000
16.017192	0.499000	fixation	5.000000	na	na	na	na	na	na	na	na
16.516192	1.500000	stimulus	5.000000	no_signal	0.000000	0.000000	correct	left	no_response	0.899000	0.000000
18.016192	0.501000	fixation	6.000000	na	na	na	na	na	na	na	na
18.517192	1.499000	stimulus	6.000000	no_signal	0.000000	0.000000	correct	right	no_response	0.932000	0.000000
20.016192	0.500000	fixation	7.000000	na	na	na	na	na	na	na	na
20.516192	1.500000	stimulus	7.000000	signal	0.550000	0.550000	correct	no_response	no_response	0.000000	0.000000
22.016192	0.500000	fixation	8.000000	na	na	na	na	na	na	na	na
22.516192	1.501000	stimulus	8.000000	no_signal	0.000000	0.000000	correct	right	no_response	0.822000	0.000000
24.017192	0.499000	fixation	9.000000	na	na	na	na	na	na	na	na
24.516192	1.500000	stimulus	9.000000	signal	0.600000	0.599000	correct	no_response	no_response	0.000000	0.000000
26.016192	0.500000	fixation	10.000000	na	na	na	na	na	na	na	na
26.516192	1.500000	stimulus	10.000000	signal	0.650000	0.650000	signal_respond	left	no_response	0.703000	0.000000
28.016192	0.501000	fixation	11.000000	na	na	na	na	na	na	na	na
28.517192	1.499000	stimulus	11.000000	no_signal	0.000000	0.000000	correct	left	no_response	0.790000	0.000000
30.016192	0.500000	fixation	12.000000	na	na	na	na	na	na	na	na
30.516192	1.500000	stimulus	12.000000	no_signal	0.000000	0.000000	correct	left	no_response	1.022000	0.000000
32.016192	0.500000	fixation	13.000000	na	na	na	na	na	na	na	na
32.516192	1.500000	stimulus	13.000000	no_signal	0.000000	0.000000	correct	left	no_response	1.069000	0.000000
34.016192	0.501000	fixation	14.000000	na	na	na	na	na	na	na	na
34.517192	1.499000	stimulus	14.000000	signal	0.600000	0.599000	correct	no_response	no_response	0.000000	0.000000
36.016192	0.500000	fixation	15.000000	na	na	na	na	na	na	na	na
36.516192	1.500000	stimulus	15.000000	no_signal	0.000000	0.000000	correct	left	no_response	1.007000	0.000000
38.016192	0.499000	fixation	16.000000	na	na	na	na	na	na	na	na
38.515192	1.501000	stimulus	16.000000	signal	0.650000	0.651000	signal_respond	right	no_response	0.782000	0.000000
40.016192	0.499000	fixation	17.000000	na	na	na	na	na	na	na	na
40.515192	1.501000	stimulus	17.000000	no_signal	0.000000	0.000000	correct	right	no_response	1.131000	0.000000
42.016192	0.500000	fixation	18.000000	na	na	na	na	na	na	na	na
42.516192	1.500000	stimulus	18.000000	signal	0.600000	0.600000	correct	no_response	no_response	0.000000	0.000000
44.016192	0.500000	fixation	19.000000	na	na	na	na	na	na	na	na
44.516192	1.500000	stimulus	19.000000	no_signal	0.000000	0.000000	correct	right	no_response	0.929000	0.000000
46.016192	0.500000	fixation	20.000000	na	na	na	na	na	na	na	na
46.516192	1.500000	stimulus	20.000000	no_signal	0.000000	0.000000	correct	left	no_response	0.924000	0.000000
48.016192	0.500000	fixation	21.000000	na	na	na	na	na	na	na	na
48.516192	1.500000	stimulus	21.000000	signal	0.650000	0.650000	correct	no_response	no_response	0.000000	0.000000
50.016192	0.500000	fixation	22.000000	na	na	na	na	na	na	na	na
50.516192	1.500000	stimulus	22.000000	no_signal	0.000000	0.000000	correct	left	no_response	0.970000	0.000000
52.016192	0.500000	fixation	23.000000	na	na	na	na	na	na	na	na
52.516192	1.500000	stimulus	23.000000	no_signal	0.000000	0.000000	correct	left	no_response	1.345000	0.000000
54.016192	0.499000	fixation	24.000000	na	na	na	na	na	na	na	na
54.515192	1.501000	stimulus	24.000000	no_signal	0.000000	0.000000	correct	left	no_response	1.015000	0.000000
56.016192	0.499000	fixation	25.000000	na	na	na	na	na	na	na	na
56.515192	1.501000	stimulus	25.000000	no_signal	0.000000	0.000000	correct	left	no_response	0.901000	0.000000
58.016192	0.500000	fixation	26.000000	na	na	na	na	na	na	na	na
58.516192	1.500000	stimulus	26.000000	no_signal	0.000000	0.000000	correct	left	no_response	0.885000	0.000000
60.016192	0.500000	fixation	27.000000	na	na	na	na	na	na	na	na
60.516192	1.500000	stimulus	27.000000	signal	0.700000	0.700000	correct	no_response	no_response	0.000000	0.000000
62.016192	0.500000	fixation	28.000000	na	na	na	na	na	na	na	na
62.516192	1.500000	stimulus	28.000000	no_signal	0.000000	0.000000	correct	left	no_response	0.988000	0.000000
64.016192	0.499000	fixation	29.000000	na	na	na	na	na	na	na	na
64.515192	1.501000	stimulus	29.000000	signal	0.750000	0.751000	correct	no_response	no_response	0.000000	0.000000
66.016192	0.499000	fixation	30.000000	na	na	na	na	na	na	na	na
66.515192	1.501000	stimulus	30.000000	signal	0.800000	0.801000	signal_respond	left	no_response	0.636000	0.000000
68.016192	0.500000	fixation	31.000000	na	na	na	na	na	na	na	na
68.516192	1.499000	stimulus	31.000000	no_signal	0.000000	0.000000	correct	right	no_response	0.700000	0.000000
70.015192	0.501000	fixation	32.000000	na	na	na	na	na	na	na	na
70.516192	1.500000	stimulus	32.000000	no_signal	0.000000	0.000000	correct	right	no_response	0.818000	0.000000
72.016192	0.500000	fixation	33.000000	na	na	na	na	na	na	na	na
72.516192	1.500000	stimulus	33.000000	signal	0.750000	0.750000	correct	no_response	no_response	0.000000	0.000000
74.016192	0.500000	fixation	34.000000	na	na	na	na	na	na	na	na
74.516192	1.500000	stimulus	34.000000	no_signal	0.000000	0.000000	correct	left	no_response	0.734000	0.000000
76.016192	0.500000	fixation	35.000000	na	na	na	na	na	na	na	na
76.516192	1.500000	stimulus	35.000000	no_signal	0.000000	0.000000	correct	left	no_response	0.909000	0.000000
78.016192	0.499000	fixation	36.000000	na	na	na	na	na	na	na	na
78.515192	1.501000	stimulus	36.000000	signal	0.800000	0.800000	correct	no_response	no_response	0.000000	0.000000
80.016192	0.499000	fixation	37.000000	na	na	na	na	na	na	na	na
80.515192	1.500000	stimulus	37.000000	no_signal	0.000000	0.000000	correct	right	no_response	0.904000	0.000000
82.015192	0.501000	fixation	38.000000	na	na	na	na	na	na	na	na
82.516192	1.500000	stimulus	38.000000	no_signal	0.000000	0.000000	correct	left	no_response	0.909000	0.000000
84.016192	0.500000	fixation	39.000000	na	na	na	na	na	na	na	na
84.516192	1.499000	stimulus	39.000000	no_signal	0.000000	0.000000	correct	left	no_response	1.017000	0.000000
86.015192	0.500000	fixation	40.000000	na	na	na	na	na	na	na	na
86.515192	1.501000	stimulus	40.000000	no_signal	0.000000	0.000000	correct	left	no_response	0.830000	0.000000
88.016192	0.499000	fixation	41.000000	na	na	na	na	na	na	na	na
88.515192	1.500000	stimulus	41.000000	no_signal	0.000000	0.000000	correct	right	no_response	0.861000	0.000000
90.015192	0.500000	fixation	42.000000	na	na	na	na	na	na	na	na
90.515192	1.501000	stimulus	42.000000	signal	0.850000	0.850000	signal_respond	right	no_response	0.914000	0.000000
92.016192	0.499000	fixation	43.000000	na	na	na	na	na	na	na	na
92.515192	1.500000	stimulus	43.000000	no_signal	0.000000	0.000000	correct	right	no_response	0.636000	0.000000
94.015192	0.500000	fixation	44.000000	na	na	na	na	na	na	na	na
94.515192	1.501000	stimulus	44.000000	no_signal	0.000000	0.000000	correct	left	no_response	0.924000	0.000000
96.016192	0.499000	fixation	45.000000	na	na	na	na	na	na	na	na
96.515192	1.500000	stimulus	45.000000	no_signal	0.000000	0.000000	correct	right	no_response	1.104000	0.000000
98.015192	0.500000	fixation	46.000000	na	na	na	na	na	na	na	na
98.515192	1.501000	stimulus	46.000000	no_signal	0.000000	0.000000	correct	right	no_response	0.961000	0.000000
100.016192	0.499000	fixation	47.000000	na	na	na	na	na	na	na	na
100.515192	1.500000	stimulus	47.000000	no_signal	0.000000	0.000000	correct	left	no_response	0.907000	0.000000
102.015192	0.500000	fixation	48.000000	na	na	na	na	na	na	na	na
102.515192	1.500000	stimulus	48.000000	no_signal	0.000000	0.000000	correct	left	no_response	1.066000	0.000000
104.015192	0.500000	fixation	49.000000	na	na	na	na	na	na	na	na
104.515192	1.500000	stimulus	49.000000	no_signal	0.000000	0.000000	not_quick_enough	no_response	no_response	0.000000	0.000000
106.015192	0.500000	fixation	50.000000	na	na	na	na	na	na	na	na
106.515192	1.500000	stimulus	50.000000	no_signal	0.000000	0.000000	correct	right	no_response	0.115000	0.000000
108.015192	0.500000	fixation	51.000000	na	na	na	na	na	na	na	na
108.515192	1.500000	stimulus	51.000000	no_signal	0.000000	0.000000	correct	right	no_response	0.430000	0.000000
110.015192	0.500000	fixation	52.000000	na	na	na	na	na	na	na	na
110.515192	1.500000	stimulus	52.000000	no_signal	0.000000	0.000000	correct	right	no_response	0.723000	0.000000
112.015192	0.500000	fixation	53.000000	na	na	na	na	na	na	na	na
112.515192	1.501000	stimulus	53.000000	signal	0.800000	0.800000	signal_respond	left	no_response	0.947000	0.000000
114.016192	0.499000	fixation	54.000000	na	na	na	na	na	na	na	na
114.515192	1.500000	stimulus	54.000000	no_signal	0.000000	0.000000	correct	right	no_response	0.965000	0.000000
116.015192	0.500000	fixation	55.000000	na	na	na	na	na	na	na	na
116.515192	1.499000	stimulus	55.000000	signal	0.750000	0.749000	signal_respond	left	no_response	0.896000	0.000000
118.014192	0.501000	fixation	56.000000	na	na	na	na	na	na	na	na
118.515192	1.500000	stimulus	56.000000	signal	0.700000	0.700000	correct	no_response	no_response	0.000000	0.000000
120.015192	0.500000	fixation	57.000000	na	na	na	na	na	na	na	na
120.515192	1.500000	stimulus	57.000000	no_signal	0.000000	0.000000	correct	left	no_response	0.756000	0.000000
122.015192	0.500000	fixation	58.000000	na	na	na	na	na	na	na	na
122.515192	1.500000	stimulus	58.000000	no_signal	0.000000	0.000000	correct	right	no_response	0.965000	0.000000
124.015192	0.500000	fixation	59.000000	na	na	na	na	na	na	na	na
124.515192	1.500000	stimulus	59.000000	no_signal	0.000000	0.000000	correct	right	no_response	0.988000	0.000000
126.015192	0.500000	fixation	60.000000	na	na	na	na	na	na	na	na
126.515192	1.500000	stimulus	60.000000	no_signal	0.000000	0.000000	correct	left	no_response	0.712000	0.000000
128.015192	0.500000	fixation	61.000000	na	na	na	na	na	na	na	na
128.515192	1.499000	stimulus	61.000000	no_signal	0.000000	0.000000	correct	right	no_response	0.704000	0.000000
130.014192	0.501000	fixation	62.000000	na	na	na	na	na	na	na	na
130.515192	1.500000	stimulus	62.000000	no_signal	0.000000	0.000000	correct	left	no_response	0.736000	0.000000
132.015192	0.499000	fixation	63.000000	na	na	na	na	na	na	na	na
132.514192	1.501000	stimulus	63.000000	signal	0.750000	0.751000	correct	no_response	no_response	0.000000	0.000000
134.015192	0.500000	fixation	64.000000	na	na	na	na	na	na	na	na
134.515192	1.499000	stimulus	64.000000	no_signal	0.000000	0.000000	correct	left	no_response	0.611000	0.000000
136.014192	0.501000	fixation	65.000000	na	na	na	na	na	na	na	na
136.515192	1.499000	stimulus	65.000000	signal	0.800000	0.800000	signal_respond	right	no_response	0.936000	0.000000
138.014192	0.501000	fixation	66.000000	na	na	na	na	na	na	na	na
138.515192	1.499000	stimulus	66.000000	no_signal	0.000000	0.000000	correct	left	no_response	0.934000	0.000000
140.014192	0.501000	fixation	67.000000	na	na	na	na	na	na	na	na
140.515192	1.500000	stimulus	67.000000	no_signal	0.000000	0.000000	correct	right	no_response	0.836000	0.000000
142.015192	0.500000	fixation	68.000000	na	na	na	na	na	na	na	na
142.515192	1.500000	stimulus	68.000000	no_signal	0.000000	0.000000	correct	right	no_response	0.899000	0.000000
144.015192	0.500000	fixation	69.000000	na	na	na	na	na	na	na	na
144.515192	1.500000	stimulus	69.000000	no_signal	0.000000	0.000000	correct	left	no_response	0.765000	0.000000
146.015192	0.500000	fixation	70.000000	na	na	na	na	na	na	na	na
146.515192	1.500000	stimulus	70.000000	no_signal	0.000000	0.000000	correct	left	no_response	0.670000	0.000000
148.015192	0.499000	fixation	71.000000	na	na	na	na	na	na	na	na
148.514192	1.501000	stimulus	71.000000	signal	0.750000	0.750000	signal_respond	left	no_response	0.650000	0.000000
150.015192	0.499000	fixation	72.000000	na	na	na	na	na	na	na	na
150.514192	1.501000	stimulus	72.000000	no_signal	0.000000	0.000000	correct	left	no_response	0.639000	0.000000
152.015192	0.500000	fixation	73.000000	na	na	na	na	na	na	na	na
152.515192	1.499000	stimulus	73.000000	no_signal	0.000000	0.000000	correct	right	no_response	0.908000	0.000000
154.014192	0.501000	fixation	74.000000	na	na	na	na	na	na	na	na
154.515192	1.500000	stimulus	74.000000	no_signal	0.000000	0.000000	correct	right	no_response	0.736000	0.000000
156.015192	0.499000	fixation	75.000000	na	na	na	na	na	na	na	na
156.514192	1.501000	stimulus	75.000000	no_signal	0.000000	0.000000	correct	left	no_response	0.787000	0.000000
158.015192	0.499000	fixation	76.000000	na	na	na	na	na	na	na	na
158.514192	1.501000	stimulus	76.000000	no_signal	0.000000	0.000000	correct	right	no_response	0.807000	0.000000
160.015192	0.499000	fixation	77.000000	na	na	na	na	na	na	na	na
160.514192	1.501000	stimulus	77.000000	signal	0.700000	0.700000	signal_respond	left	no_response	0.826000	0.000000
162.015192	0.499000	fixation	78.000000	na	na	na	na	na	na	na	na
162.514192	1.500000	stimulus	78.000000	no_signal	0.000000	0.000000	correct	left	no_response	0.677000	0.000000
164.014192	0.500000	fixation	79.000000	na	na	na	na	na	na	na	na
164.514192	1.500000	stimulus	79.000000	no_signal	0.000000	0.000000	correct	right	no_response	1.018000	0.000000
166.014192	0.500000	fixation	80.000000	na	na	na	na	na	na	na	na
166.514192	1.500000	stimulus	80.000000	signal	0.650000	0.650000	correct	no_response	no_response	0.000000	0.000000
168.014192	0.500000	fixation	81.000000	na	na	na	na	na	na	na	na
168.514192	1.500000	stimulus	81.000000	no_signal	0.000000	0.000000	correct	right	no_response	0.659000	0.000000
170.014192	0.500000	fixation	82.000000	na	na	na	na	na	na	na	na
170.514192	1.500000	stimulus	82.000000	no_signal	0.000000	0.000000	correct	right	no_response	0.974000	0.000000
172.014192	0.500000	fixation	83.000000	na	na	na	na	na	na	na	na
172.514192	1.500000	stimulus	83.000000	no_signal	0.000000	0.000000	correct	left	no_response	0.922000	0.000000
174.014192	0.500000	fixation	84.000000	na	na	na	na	na	na	na	na
174.514192	1.500000	stimulus	84.000000	no_signal	0.000000	0.000000	correct	right	no_response	0.888000	0.000000
176.014192	0.500000	fixation	85.000000	na	na	na	na	na	na	na	na
176.514192	1.500000	stimulus	85.000000	signal	0.700000	0.700000	correct	no_response	no_response	0.000000	0.000000
178.014192	0.500000	fixation	86.000000	na	na	na	na	na	na	na	na
178.514192	1.500000	stimulus	86.000000	no_signal	0.000000	0.000000	correct	right	no_response	0.945000	0.000000
180.014192	0.500000	fixation	87.000000	na	na	na	na	na	na	na	na
180.514192	1.500000	stimulus	87.000000	no_signal	0.000000	0.000000	correct	left	no_response	1.046000	0.000000
182.014192	0.500000	fixation	88.000000	na	na	na	na	na	na	na	na
182.514192	1.500000	stimulus	88.000000	no_signal	0.000000	0.000000	correct	left	no_response	1.295000	0.000000
184.014192	0.500000	fixation	89.000000	na	na	na	na	na	na	na	na
184.514192	1.500000	stimulus	89.000000	signal	0.750000	0.750000	correct	no_response	no_response	0.000000	0.000000
186.014192	0.500000	fixation	90.000000	na	na	na	na	na	na	na	na
186.514192	1.500000	stimulus	90.000000	no_signal	0.000000	0.000000	correct	right	no_response	0.804000	0.000000
188.014192	0.500000	fixation	91.000000	na	na	na	na	na	na	na	na
188.514192	1.500000	stimulus	91.000000	signal	0.800000	0.801000	signal_respond	left	no_response	1.053000	0.000000
190.014192	0.500000	fixation	92.000000	na	na	na	na	na	na	na	na
190.514192	1.500000	stimulus	92.000000	no_signal	0.000000	0.000000	correct	left	no_response	0.780000	0.000000
192.014192	0.500000	fixation	93.000000	na	na	na	na	na	na	na	na
192.514192	1.500000	stimulus	93.000000	no_signal	0.000000	0.000000	correct	right	no_response	1.141000	0.000000
194.014192	0.500000	fixation	94.000000	na	na	na	na	na	na	na	na
194.514192	1.500000	stimulus	94.000000	no_signal	0.000000	0.000000	correct	left	no_response	1.052000	0.000000
196.014192	0.500000	fixation	95.000000	na	na	na	na	na	na	na	na
196.514192	1.500000	stimulus	95.000000	no_signal	0.000000	0.000000	correct	left	no_response	1.031000	0.000000
198.014192	0.500000	fixation	96.000000	na	na	na	na	na	na	na	na
198.514192	1.500000	stimulus	96.000000	signal	0.750000	0.750000	correct	no_response	no_response	0.000000	0.000000
200.014192	0.500000	fixation	97.000000	na	na	na	na	na	na	na	na
200.514192	1.500000	stimulus	97.000000	signal	0.800000	0.800000	signal_respond	right	no_response	0.984000	0.000000
202.014192	0.500000	fixation	98.000000	na	na	na	na	na	na	na	na
202.514192	1.500000	stimulus	98.000000	signal	0.750000	0.750000	signal_respond	left	no_response	0.918000	0.000000
204.014192	0.500000	fixation	99.000000	na	na	na	na	na	na	na	na
204.514192	1.500000	stimulus	99.000000	no_signal	0.000000	0.000000	correct	right	no_response	0.893000	0.000000
206.014192	0.500000	fixation	100.000000	na	na	na	na	na	na	na	na
206.514192	1.500000	stimulus	100.000000	no_signal	0.000000	0.000000	correct	right	no_response	1.010000	0.000000
208.014192	0.499000	fixation	101.000000	na	na	na	na	na	na	na	na
208.513192	1.501000	stimulus	101.000000	signal	0.700000	0.700000	signal_respond	left	no_response	0.909000	0.000000
210.014192	0.500000	fixation	102.000000	na	na	na	na	na	na	na	na
210.514192	1.500000	stimulus	102.000000	no_signal	0.000000	0.000000	correct	left	no_response	1.110000	0.000000
212.014192	0.500000	fixation	103.000000	na	na	na	na	na	na	na	na
212.514192	1.499000	stimulus	103.000000	no_signal	0.000000	0.000000	correct	left	no_response	1.058000	0.000000
214.013192	0.501000	fixation	104.000000	na	na	na	na	na	na	na	na
214.514192	1.500000	stimulus	104.000000	no_signal	0.000000	0.000000	correct	left	no_response	0.922000	0.000000
216.014192	0.499000	fixation	105.000000	na	na	na	na	na	na	na	na
216.513192	1.501000	stimulus	105.000000	no_signal	0.000000	0.000000	correct	right	no_response	1.164000	0.000000
218.014192	0.500000	fixation	106.000000	na	na	na	na	na	na	na	na
218.514192	1.500000	stimulus	106.000000	no_signal	0.000000	0.000000	correct	left	no_response	0.917000	0.000000
220.014192	0.499000	fixation	107.000000	na	na	na	na	na	na	na	na
220.513192	1.501000	stimulus	107.000000	no_signal	0.000000	0.000000	correct	right	no_response	1.067000	0.000000
222.014192	0.499000	fixation	108.000000	na	na	na	na	na	na	na	na
222.513192	1.500000	stimulus	108.000000	no_signal	0.000000	0.000000	correct	left	no_response	0.779000	0.000000
224.013192	0.501000	fixation	109.000000	na	na	na	na	na	na	na	na
224.514192	1.500000	stimulus	109.000000	no_signal	0.000000	0.000000	correct	right	no_response	0.774000	0.000000
226.014192	0.499000	fixation	110.000000	na	na	na	na	na	na	na	na
226.513192	1.501000	stimulus	110.000000	no_signal	0.000000	0.000000	correct	right	no_response	1.068000	0.000000
228.014192	0.500000	fixation	111.000000	na	na	na	na	na	na	na	na
228.514192	1.500000	stimulus	111.000000	no_signal	0.000000	0.000000	correct	left	no_response	0.999000	0.000000
230.014192	0.500000	fixation	112.000000	na	na	na	na	na	na	na	na
230.514192	1.500000	stimulus	112.000000	signal	0.650000	0.650000	correct	no_response	no_response	0.000000	0.000000
232.014192	0.499000	fixation	113.000000	na	na	na	na	na	na	na	na
232.513192	1.501000	stimulus	113.000000	no_signal	0.000000	0.000000	correct	right	no_response	1.176000	0.000000
234.014192	0.499000	fixation	114.000000	na	na	na	na	na	na	na	na
234.513192	1.500000	stimulus	114.000000	no_signal	0.000000	0.000000	correct	right	no_response	1.097000	0.000000
236.013192	0.501000	fixation	115.000000	na	na	na	na	na	na	na	na
236.514192	1.498000	stimulus	115.000000	no_signal	0.000000	0.000000	correct	left	no_response	1.093000	0.000000
238.012192	0.489000	fixation	116.000000	na	na	na	na	na	na	na	na
238.501192	1.496000	stimulus	116.000000	no_signal	0.000000	0.000000	correct	left	no_response	1.160000	0.000000
239.997192	0.500000	fixation	117.000000	na	na	na	na	na	na	na	na
240.497192	1.500000	stimulus	117.000000	no_signal	0.000000	0.000000	correct	left	no_response	1.176000	0.000000
241.997192	0.500000	fixation	118.000000	na	na	na	na	na	na	na	na
242.497192	1.500000	stimulus	118.000000	no_signal	0.000000	0.000000	correct	right	no_response	1.105000	0.000000
243.997192	0.500000	fixation	119.000000	na	na	na	na	na	na	na	na
244.497192	1.499000	stimulus	119.000000	no_signal	0.000000	0.000000	correct	right	no_response	1.140000	0.000000
245.996192	0.500000	fixation	120.000000	na	na	na	na	na	na	na	na
246.496192	1.501000	stimulus	120.000000	signal	0.700000	0.701000	signal_respond	left	no_response	0.982000	0.000000
247.997192	0.499000	fixation	121.000000	na	na	na	na	na	na	na	na
248.496192	1.501000	stimulus	121.000000	no_signal	0.000000	0.000000	not_quick_enough	no_response	no_response	0.000000	0.000000
249.997192	0.499000	fixation	122.000000	na	na	na	na	na	na	na	na
250.496192	1.500000	stimulus	122.000000	no_signal	0.000000	0.000000	correct	right	no_response	0.635000	0.000000
251.996192	0.501000	fixation	123.000000	na	na	na	na	na	na	na	na
252.497192	1.499000	stimulus	123.000000	no_signal	0.000000	0.000000	correct	left	no_response	1.035000	0.000000
253.996192	0.500000	fixation	124.000000	na	na	na	na	na	na	na	na
254.496192	1.501000	stimulus	124.000000	signal	0.650000	0.650000	correct	no_response	no_response	0.000000	0.000000
255.997192	0.499000	fixation	125.000000	na	na	na	na	na	na	na	na
256.496192	1.501000	stimulus	125.000000	no_signal	0.000000	0.000000	correct	right	no_response	0.664000	0.000000
257.997192	0.499000	fixation	126.000000	na	na	na	na	na	na	na	na
258.496192	1.500000	stimulus	126.000000	no_signal	0.000000	0.000000	correct	right	no_response	0.967000	0.000000
259.996192	0.500000	fixation	127.000000	na	na	na	na	na	na	na	na
260.496192	1.500000	stimulus	127.000000	signal	0.700000	0.700000	correct	no_response	no_response	0.000000	0.000000
261.996192	0.500000	fixation	128.000000	na	na	na	na	na	na	na	na
262.496192	1.500000	stimulus	128.000000	no_signal	0.000000	0.000000	correct	left	no_response	0.815000	0.000000
263.996192	0.488000	fixation	129.000000	na	na	na	na	na	na	na	na
264.484192	1.495000	stimulus	129.000000	no_signal	0.000000	0.000000	correct	right	no_response	1.251000	0.000000
265.979192	0.489000	fixation	130.000000	na	na	na	na	na	na	na	na
266.468192	1.495000	stimulus	130.000000	signal	0.750000	0.750000	signal_respond	right	no_response	0.902000	0.000000
267.963192	0.500000	fixation	131.000000	na	na	na	na	na	na	na	na
268.463192	1.500000	stimulus	131.000000	signal	0.700000	0.700000	correct	no_response	no_response	0.000000	0.000000
269.963192	0.500000	fixation	132.000000	na	na	na	na	na	na	na	na
270.463192	1.500000	stimulus	132.000000	no_signal	0.000000	0.000000	correct	right	no_response	0.629000	0.000000
271.963192	0.500000	fixation	133.000000	na	na	na	na	na	na	na	na
272.463192	1.500000	stimulus	133.000000	no_signal	0.000000	0.000000	correct	left	no_response	0.834000	0.000000
273.963192	0.500000	fixation	134.000000	na	na	na	na	na	na	na	na
274.463192	1.500000	stimulus	134.000000	no_signal	0.000000	0.000000	correct	left	no_response	1.038000	0.000000
275.963192	0.500000	fixation	135.000000	na	na	na	na	na	na	na	na
276.463192	1.500000	stimulus	135.000000	no_signal	0.000000	0.000000	correct	left	no_response	1.230000	0.000000
277.963192	0.500000	fixation	136.000000	na	na	na	na	na	na	na	na
278.463192	1.500000	stimulus	136.000000	signal	0.750000	0.750000	correct	no_response	no_response	0.000000	0.000000
279.963192	0.500000	fixation	137.000000	na	na	na	na	na	na	na	na
280.463192	1.500000	stimulus	137.000000	no_signal	0.000000	0.000000	correct	left	no_response	0.668000	0.000000
281.963192	0.500000	fixation	138.000000	na	na	na	na	na	na	na	na
282.463192	1.500000	stimulus	138.000000	signal	0.800000	0.800000	signal_respond	right	no_response	0.699000	0.000000
283.963192	0.500000	fixation	139.000000	na	na	na	na	na	na	na	na
284.463192	1.500000	stimulus	139.000000	no_signal	0.000000	0.000000	correct	right	no_response	0.811000	0.000000
285.963192	0.500000	fixation	140.000000	na	na	na	na	na	na	na	na
286.463192	1.499000	stimulus	140.000000	signal	0.750000	0.750000	correct	no_response	no_response	0.000000	0.000000
287.962192	0.490000	fixation	141.000000	na	na	na	na	na	na	na	na
288.452192	1.493000	stimulus	141.000000	no_signal	0.000000	0.000000	correct	right	no_response	0.792000	0.000000
289.945192	0.489000	fixation	142.000000	na	na	na	na	na	na	na	na
290.434192	1.495000	stimulus	142.000000	no_signal	0.000000	0.000000	correct	right	no_response	1.064000	0.000000
291.929192	0.500000	fixation	143.000000	na	na	na	na	na	na	na	na
292.429192	1.500000	stimulus	143.000000	no_signal	0.000000	0.000000	correct	right	no_response	0.873000	0.000000
293.929192	0.500000	fixation	144.000000	na	na	na	na	na	na	na	na
294.429192	1.500000	stimulus	144.000000	no_signal	0.000000	0.000000	correct	left	no_response	1.011000	0.000000
295.929192	0.500000	fixation	145.000000	na	na	na	na	na	na	na	na
296.429192	1.500000	stimulus	145.000000	no_signal	0.000000	0.000000	correct	left	no_response	0.985000	0.000000
297.929192	0.488000	fixation	146.000000	na	na	na	na	na	na	na	na
298.417192	1.496000	stimulus	146.000000	no_signal	0.000000	0.000000	correct	left	no_response	1.101000	0.000000
299.913192	0.499000	fixation	147.000000	na	na	na	na	na	na	na	na
300.412192	1.501000	stimulus	147.000000	no_signal	0.000000	0.000000	correct	left	no_response	1.046000	0.000000
301.913192	0.500000	fixation	148.000000	na	na	na	na	na	na	na	na
302.413192	1.499000	stimulus	148.000000	signal	0.800000	0.800000	correct	no_response	no_response	0.000000	0.000000
303.912192	0.490000	fixation	149.000000	na	na	na	na	na	na	na	na
304.402192	1.493000	stimulus	149.000000	no_signal	0.000000	0.000000	correct	left	no_response	0.865000	0.000000
305.895192	0.489000	fixation	150.000000	na	na	na	na	na	na	na	na
306.384192	1.494000	stimulus	150.000000	no_signal	0.000000	0.000000	correct	left	no_response	1.381000	0.000000
307.878192	0.490000	fixation	151.000000	na	na	na	na	na	na	na	na
308.368192	1.494000	stimulus	151.000000	no_signal	0.000000	0.000000	correct	right	no_response	1.068000	0.000000
309.862192	0.489000	fixation	152.000000	na	na	na	na	na	na	na	na
310.351192	1.494000	stimulus	152.000000	no_signal	0.000000	0.000000	correct	left	no_response	1.020000	0.000000
311.845192	0.489000	fixation	153.000000	na	na	na	na	na	na	na	na
312.334192	1.494000	stimulus	153.000000	no_signal	0.000000	0.000000	correct	right	no_response	1.003000	0.000000
313.828192	0.491000	fixation	154.000000	na	na	na	na	na	na	na	na
314.319192	1.499000	stimulus	154.000000	no_signal	0.000000	0.000000	correct	right	no_response	0.995000	0.000000
315.818192	0.494000	fixation	155.000000	na	na	na	na	na	na	na	na
316.312192	1.500000	stimulus	155.000000	no_signal	0.000000	0.000000	correct	right	no_response	1.050000	0.000000
317.812192	0.489000	fixation	156.000000	na	na	na	na	na	na	na	na
318.301192	1.494000	stimulus	156.000000	no_signal	0.000000	0.000000	correct	right	no_response	1.060000	0.000000
319.795192	0.489000	fixation	157.000000	na	na	na	na	na	na	na	na
320.284192	1.494000	stimulus	157.000000	no_signal	0.000000	0.000000	correct	left	no_response	0.942000	0.000000
321.778192	0.489000	fixation	158.000000	na	na	na	na	na	na	na	na
322.267192	1.495000	stimulus	158.000000	no_signal	0.000000	0.000000	correct	right	no_response	0.876000	0.000000
323.762192	0.489000	fixation	159.000000	na	na	na	na	na	na	na	na
324.251192	1.494000	stimulus	159.000000	signal	0.850000	0.844000	signal_respond	left	no_response	0.939000	0.000000
325.745192	0.489000	fixation	160.000000	na	na	na	na	na	na	na	na
326.234192	1.501000	stimulus	160.000000	no_signal	0.000000	0.000000	correct	right	no_response	0.668000	0.000000
327.735192	0.494000	fixation	161.000000	na	na	na	na	na	na	na	na
328.229192	1.499000	stimulus	161.000000	no_signal	0.000000	0.000000	correct	right	no_response	0.979000	0.000000
329.728192	0.489000	fixation	162.000000	na	na	na	na	na	na	na	na
330.217192	1.495000	stimulus	162.000000	signal	0.800000	0.795000	signal_respond	right	no_response	0.941000	0.000000
331.712192	0.489000	fixation	163.000000	na	na	na	na	na	na	na	na
332.201192	1.494000	stimulus	163.000000	no_signal	0.000000	0.000000	correct	right	no_response	1.117000	0.000000
333.695192	0.489000	fixation	164.000000	na	na	na	na	na	na	na	na
334.184192	1.495000	stimulus	164.000000	no_signal	0.000000	0.000000	correct	right	no_response	1.152000	0.000000
335.679192	0.488000	fixation	165.000000	na	na	na	na	na	na	na	na
336.167192	1.495000	stimulus	165.000000	no_signal	0.000000	0.000000	correct	left	no_response	1.254000	0.000000
337.662192	0.490000	fixation	166.000000	na	na	na	na	na	na	na	na
338.152192	1.493000	stimulus	166.000000	signal	0.750000	0.743000	correct	no_response	no_response	0.000000	0.000000
339.645192	0.489000	fixation	167.000000	na	na	na	na	na	na	na	na
340.134192	1.500000	stimulus	167.000000	no_signal	0.000000	0.000000	correct	left	no_response	0.646000	0.000000
341.634192	0.495000	fixation	168.000000	na	na	na	na	na	na	na	na
342.129192	1.500000	stimulus	168.000000	signal	0.800000	0.800000	correct	no_response	no_response	0.000000	0.000000
343.629192	0.488000	fixation	169.000000	na	na	na	na	na	na	na	na
344.117192	1.494000	stimulus	169.000000	no_signal	0.000000	0.000000	correct	right	no_response	1.007000	0.000000
345.611192	0.491000	fixation	170.000000	na	na	na	na	na	na	na	na
346.102192	1.499000	stimulus	170.000000	no_signal	0.000000	0.000000	correct	left	no_response	1.127000	0.000000
347.601192	0.494000	fixation	171.000000	na	na	na	na	na	na	na	na
348.095192	1.500000	stimulus	171.000000	signal	0.850000	0.850000	signal_respond	right	no_response	1.056000	0.000000
349.595192	0.489000	fixation	172.000000	na	na	na	na	na	na	na	na
350.084192	1.494000	stimulus	172.000000	signal	0.800000	0.800000	signal_respond	right	no_response	0.841000	0.000000
351.578192	0.490000	fixation	173.000000	na	na	na	na	na	na	na	na
352.068192	1.493000	stimulus	173.000000	no_signal	0.000000	0.000000	correct	left	no_response	1.137000	0.000000
353.561192	0.490000	fixation	174.000000	na	na	na	na	na	na	na	na
354.051192	1.493000	stimulus	174.000000	no_signal	0.000000	0.000000	correct	left	no_response	1.301000	0.000000
355.544192	0.490000	fixation	175.000000	na	na	na	na	na	na	na	na
356.034192	1.494000	stimulus	175.000000	no_signal	0.000000	0.000000	correct	left	no_response	1.157000	0.000000
357.528192	0.490000	fixation	176.000000	na	na	na	na	na	na	na	na
358.018192	1.487269	stimulus	176.000000	no_signal	0.000000	0.000000	correct	right	no_response	1.056000	0.000000
